[{"trial_n":1,"n_dots":4.25,"target":"right","response":"right","rt":1289.6999999285,"correct":true,"confidence":-1},{"trial_n":2,"n_dots":4.25,"target":"left","response":"right","rt":5017.4000000954,"correct":false,"confidence":-1},{"trial_n":3,"n_dots":4.65,"target":"right","response":"right","rt":690.69999992847,"correct":true,"confidence":-1},{"trial_n":4,"n_dots":4.65,"target":"right","response":"right","rt":533.39999997616,"correct":true,"confidence":-1},{"trial_n":5,"n_dots":4.25,"target":"left","response":"left","rt":461.29999995232,"correct":true,"confidence":-1},{"trial_n":6,"n_dots":4.25,"target":"right","response":"right","rt":497.69999992847,"correct":true,"confidence":-1},{"trial_n":7,"n_dots":3.85,"target":"left","response":"left","rt":455.19999992847,"correct":true,"confidence":-1},{"trial_n":8,"n_dots":3.85,"target":"left","response":"left","rt":546.29999995232,"correct":true,"confidence":-1},{"trial_n":9,"n_dots":3.65,"target":"left","response":"right","rt":485.29999995232,"correct":false,"confidence":-1},{"trial_n":10,"n_dots":3.85,"target":"right","response":"right","rt":401.79999995232,"correct":true,"confidence":-1},{"trial_n":11,"n_dots":3.85,"target":"left","response":"left","rt":382.30000007153,"correct":true,"confidence":-1},{"trial_n":12,"n_dots":3.65,"target":"right","response":"right","rt":280,"correct":true,"confidence":-1},{"trial_n":13,"n_dots":3.65,"target":"right","response":"right","rt":279.10000002384,"correct":true,"confidence":-1},{"trial_n":14,"n_dots":3.55,"target":"left","response":"left","rt":729.30000007153,"correct":true,"confidence":-1},{"trial_n":15,"n_dots":3.55,"target":"right","response":"right","rt":295,"correct":true,"confidence":-1},{"trial_n":16,"n_dots":3.45,"target":"left","response":"left","rt":345.29999995232,"correct":true,"confidence":-1},{"trial_n":17,"n_dots":3.45,"target":"left","response":"right","rt":384.20000004768,"correct":false,"confidence":-1},{"trial_n":18,"n_dots":3.55,"target":"left","response":"left","rt":347.20000004768,"correct":true,"confidence":-1},{"trial_n":19,"n_dots":3.55,"target":"right","response":"left","rt":373,"correct":false,"confidence":-1},{"trial_n":20,"n_dots":3.65,"target":"left","response":"left","rt":277,"correct":true,"confidence":-1},{"trial_n":21,"n_dots":3.65,"target":"right","response":"right","rt":183.39999997616,"correct":true,"confidence":-1},{"trial_n":22,"n_dots":3.55,"target":"right","response":"right","rt":957.60000002384,"correct":true,"confidence":-1},{"trial_n":23,"n_dots":3.55,"target":"right","response":"right","rt":350.79999995232,"correct":true,"confidence":-1},{"trial_n":24,"n_dots":3.45,"target":"left","response":"right","rt":231.10000002384,"correct":false,"confidence":-1},{"trial_n":25,"n_dots":3.55,"target":"right","response":"right","rt":517.29999995232,"correct":true,"confidence":-1},{"trial_n":26,"n_dots":3.55,"target":"right","response":"left","rt":698.89999997616,"correct":false,"confidence":-1},{"trial_n":27,"n_dots":3.65,"target":"left","response":"left","rt":475.09999990463,"correct":true,"confidence":3},{"trial_n":28,"n_dots":3.65,"target":"left","response":"left","rt":631.29999995232,"correct":true,"confidence":3},{"trial_n":29,"n_dots":3.55,"target":"right","response":"right","rt":404.90000009537,"correct":true,"confidence":4},{"trial_n":30,"n_dots":3.55,"target":"right","response":"right","rt":412.5,"correct":true,"confidence":5},{"trial_n":31,"n_dots":3.45,"target":"right","response":"right","rt":392.39999997616,"correct":true,"confidence":5},{"trial_n":32,"n_dots":3.45,"target":"right","response":"left","rt":1073.7000000477,"correct":false,"confidence":3},{"trial_n":33,"n_dots":3.55,"target":"right","response":"right","rt":285,"correct":true,"confidence":4},{"trial_n":34,"n_dots":3.55,"target":"left","response":"left","rt":361.10000002384,"correct":true,"confidence":4},{"trial_n":35,"n_dots":3.45,"target":"left","response":"left","rt":407.30000007153,"correct":true,"confidence":5},{"trial_n":36,"n_dots":3.45,"target":"left","response":"left","rt":718.79999995232,"correct":true,"confidence":3},{"trial_n":37,"n_dots":3.35,"target":"left","response":"left","rt":794.29999995232,"correct":true,"confidence":3},{"trial_n":38,"n_dots":3.35,"target":"right","response":"right","rt":375.30000007153,"correct":true,"confidence":4},{"trial_n":39,"n_dots":3.25,"target":"left","response":"left","rt":780.79999995232,"correct":true,"confidence":3},{"trial_n":40,"n_dots":3.25,"target":"right","response":"right","rt":773.89999997616,"correct":true,"confidence":2},{"trial_n":41,"n_dots":3.15,"target":"right","response":"left","rt":628.29999995232,"correct":false,"confidence":3},{"trial_n":42,"n_dots":3.25,"target":"right","response":"right","rt":658.80000007153,"correct":true,"confidence":3},{"trial_n":43,"n_dots":3.25,"target":"right","response":"left","rt":1203.6000000238,"correct":false,"confidence":2},{"trial_n":44,"n_dots":3.35,"target":"right","response":"right","rt":377.5,"correct":true,"confidence":4},{"trial_n":45,"n_dots":3.35,"target":"right","response":"right","rt":718.60000002384,"correct":true,"confidence":3},{"trial_n":46,"n_dots":3.25,"target":"right","response":"right","rt":584.10000002384,"correct":true,"confidence":3},{"trial_n":47,"n_dots":3.25,"target":"left","response":"left","rt":467.5,"correct":true,"confidence":2},{"trial_n":48,"n_dots":3.15,"target":"right","response":"left","rt":767.69999992847,"correct":false,"confidence":3},{"trial_n":49,"n_dots":3.25,"target":"right","response":"right","rt":1007.3999999762,"correct":true,"confidence":2},{"trial_n":50,"n_dots":3.25,"target":"right","response":"left","rt":757.10000002384,"correct":false,"confidence":2},{"trial_n":51,"n_dots":3.35,"target":"left","response":"left","rt":806.5,"correct":true,"confidence":2},{"trial_n":52,"n_dots":3.35,"target":"left","response":"left","rt":508.29999995232,"correct":true,"confidence":3},{"trial_n":53,"n_dots":3.25,"target":"right","response":"left","rt":655.20000004768,"correct":false,"confidence":3},{"trial_n":54,"n_dots":3.35,"target":"left","response":"left","rt":528.20000004768,"correct":true,"confidence":4},{"trial_n":55,"n_dots":3.35,"target":"right","response":"left","rt":1293.8999999762,"correct":false,"confidence":3},{"trial_n":56,"n_dots":3.45,"target":"left","response":"left","rt":2193.1999999285,"correct":true,"confidence":2},{"trial_n":57,"n_dots":3.45,"target":"left","response":"left","rt":1547.8000000715,"correct":true,"confidence":2},{"trial_n":58,"n_dots":3.35,"target":"right","response":"right","rt":1187.5,"correct":true,"confidence":2},{"trial_n":59,"n_dots":3.35,"target":"right","response":"left","rt":1338.7999999523,"correct":false,"confidence":2},{"trial_n":60,"n_dots":3.45,"target":"left","response":"left","rt":733.69999992847,"correct":true,"confidence":3},{"trial_n":61,"n_dots":3.45,"target":"left","response":"left","rt":992.79999995232,"correct":true,"confidence":2},{"trial_n":62,"n_dots":3.35,"target":"left","response":"left","rt":1195.7000000477,"correct":true,"confidence":2},{"trial_n":63,"n_dots":3.35,"target":"left","response":"left","rt":807.30000007153,"correct":true,"confidence":2},{"trial_n":64,"n_dots":3.25,"target":"left","response":"left","rt":810.5,"correct":true,"confidence":2},{"trial_n":65,"n_dots":3.25,"target":"left","response":"right","rt":1606.8999999762,"correct":false,"confidence":2},{"trial_n":66,"n_dots":3.35,"target":"left","response":"left","rt":725.90000009537,"correct":true,"confidence":2},{"trial_n":67,"n_dots":3.35,"target":"left","response":"left","rt":711.60000002384,"correct":true,"confidence":4},{"trial_n":68,"n_dots":3.25,"target":"left","response":"left","rt":856.59999990463,"correct":true,"confidence":2},{"trial_n":69,"n_dots":3.25,"target":"left","response":"left","rt":663.60000002384,"correct":true,"confidence":4},{"trial_n":70,"n_dots":3.15,"target":"right","response":"right","rt":727.79999995232,"correct":true,"confidence":3},{"trial_n":71,"n_dots":3.15,"target":"right","response":"right","rt":759.89999997616,"correct":true,"confidence":2},{"trial_n":72,"n_dots":3.05,"target":"left","response":"left","rt":895.29999995232,"correct":true,"confidence":2},{"trial_n":73,"n_dots":3.05,"target":"right","response":"right","rt":671.19999992847,"correct":true,"confidence":2},{"trial_n":74,"n_dots":2.95,"target":"left","response":"left","rt":646.09999990463,"correct":true,"confidence":2},{"trial_n":75,"n_dots":2.95,"target":"left","response":"right","rt":1215.6000000238,"correct":false,"confidence":2},{"trial_n":76,"n_dots":3.05,"target":"left","response":"right","rt":770.39999997616,"correct":false,"confidence":2},{"trial_n":77,"n_dots":3.15,"target":"left","response":"left","rt":557.29999995232,"correct":true,"confidence":3},{"trial_n":78,"n_dots":3.15,"target":"left","response":"left","rt":492.29999995232,"correct":true,"confidence":3},{"trial_n":79,"n_dots":3.05,"target":"right","response":"left","rt":1471.6000000238,"correct":false,"confidence":1},{"trial_n":80,"n_dots":3.15,"target":"left","response":"left","rt":862.89999997616,"correct":true,"confidence":2},{"trial_n":81,"n_dots":3.15,"target":"left","response":"right","rt":592.60000002384,"correct":false,"confidence":3},{"trial_n":82,"n_dots":3.25,"target":"right","response":"right","rt":563.89999997616,"correct":true,"confidence":4},{"trial_n":83,"n_dots":3.25,"target":"left","response":"left","rt":946.90000009537,"correct":true,"confidence":2},{"trial_n":84,"n_dots":3.15,"target":"left","response":"left","rt":619.70000004768,"correct":true,"confidence":2},{"trial_n":85,"n_dots":3.15,"target":"right","response":"left","rt":1202.8999999762,"correct":false,"confidence":2},{"trial_n":86,"n_dots":3.25,"target":"right","response":"right","rt":511.60000002384,"correct":true,"confidence":3},{"trial_n":87,"n_dots":3.25,"target":"left","response":"right","rt":2107.7999999523,"correct":false,"confidence":2},{"trial_n":88,"n_dots":3.35,"target":"left","response":"left","rt":617.80000007153,"correct":true,"confidence":2},{"trial_n":89,"n_dots":3.35,"target":"right","response":"right","rt":1258,"correct":true,"confidence":2},{"trial_n":90,"n_dots":3.25,"target":"left","response":"left","rt":693.59999990463,"correct":true,"confidence":1},{"trial_n":91,"n_dots":3.25,"target":"right","response":"right","rt":1661.6999999285,"correct":true,"confidence":1},{"trial_n":92,"n_dots":3.15,"target":"left","response":"left","rt":819.89999997616,"correct":true,"confidence":1},{"trial_n":93,"n_dots":3.15,"target":"right","response":"right","rt":373.59999990463,"correct":true,"confidence":4},{"trial_n":94,"n_dots":3.05,"target":"right","response":"left","rt":729.60000002384,"correct":false,"confidence":4},{"trial_n":95,"n_dots":3.15,"target":"right","response":"right","rt":628.70000004768,"correct":true,"confidence":2},{"trial_n":96,"n_dots":3.15,"target":"left","response":"left","rt":836.89999997616,"correct":true,"confidence":1},{"trial_n":97,"n_dots":3.05,"target":"left","response":"right","rt":351.60000002384,"correct":false,"confidence":3},{"trial_n":98,"n_dots":3.15,"target":"right","response":"right","rt":866.79999995232,"correct":true,"confidence":2},{"trial_n":99,"n_dots":3.15,"target":"right","response":"right","rt":322.40000009537,"correct":true,"confidence":4},{"trial_n":100,"n_dots":3.05,"target":"left","response":"left","rt":1236.8999999762,"correct":true,"confidence":2},{"trial_n":101,"n_dots":3.05,"target":"right","response":"right","rt":304.69999992847,"correct":true,"confidence":5},{"trial_n":102,"n_dots":2.95,"target":"right","response":"right","rt":227.80000007153,"correct":true,"confidence":5},{"trial_n":103,"n_dots":2.95,"target":"right","response":"left","rt":737.69999992847,"correct":false,"confidence":2},{"trial_n":104,"n_dots":3.05,"target":"left","response":"left","rt":1057.8000000715,"correct":true,"confidence":1},{"trial_n":105,"n_dots":3.05,"target":"left","response":"left","rt":643.60000002384,"correct":true,"confidence":4},{"trial_n":106,"n_dots":2.95,"target":"left","response":"left","rt":671.39999997616,"correct":true,"confidence":5},{"trial_n":107,"n_dots":2.95,"target":"left","response":"right","rt":418.5,"correct":false,"confidence":4},{"trial_n":108,"n_dots":3.05,"target":"left","response":"left","rt":701.30000007153,"correct":true,"confidence":3},{"trial_n":109,"n_dots":3.05,"target":"right","response":"right","rt":245.29999995232,"correct":true,"confidence":4},{"trial_n":110,"n_dots":2.95,"target":"left","response":"left","rt":809,"correct":true,"confidence":2},{"trial_n":111,"n_dots":2.95,"target":"right","response":"right","rt":317.10000002384,"correct":true,"confidence":2},{"trial_n":112,"n_dots":2.85,"target":"right","response":"right","rt":463.60000002384,"correct":true,"confidence":3},{"trial_n":113,"n_dots":2.85,"target":"left","response":"left","rt":464.19999992847,"correct":true,"confidence":1},{"trial_n":114,"n_dots":2.75,"target":"left","response":"right","rt":988.5,"correct":false,"confidence":1},{"trial_n":115,"n_dots":2.85,"target":"left","response":"right","rt":1384.2000000477,"correct":false,"confidence":1},{"trial_n":116,"n_dots":2.95,"target":"right","response":"right","rt":463.60000002384,"correct":true,"confidence":2},{"trial_n":117,"n_dots":2.95,"target":"left","response":"left","rt":579.79999995232,"correct":true,"confidence":3},{"trial_n":118,"n_dots":2.85,"target":"left","response":"left","rt":716.89999997616,"correct":true,"confidence":2},{"trial_n":119,"n_dots":2.85,"target":"right","response":"left","rt":1076.1000000238,"correct":false,"confidence":2},{"trial_n":120,"n_dots":2.95,"target":"left","response":"left","rt":579.80000007153,"correct":true,"confidence":4},{"trial_n":121,"n_dots":2.95,"target":"left","response":"left","rt":649,"correct":true,"confidence":3},{"trial_n":122,"n_dots":2.85,"target":"right","response":"left","rt":663.59999990463,"correct":false,"confidence":2},{"trial_n":123,"n_dots":2.95,"target":"right","response":"right","rt":972,"correct":true,"confidence":4},{"trial_n":124,"n_dots":2.95,"target":"right","response":"left","rt":705.70000004768,"correct":false,"confidence":3},{"trial_n":125,"n_dots":3.05,"target":"right","response":"left","rt":845.29999995232,"correct":false,"confidence":2},{"trial_n":126,"n_dots":3.15,"target":"right","response":"right","rt":793.39999997616,"correct":true,"confidence":1},{"trial_n":127,"n_dots":3.15,"target":"right","response":"right","rt":437.70000004768,"correct":true,"confidence":3},{"trial_n":128,"n_dots":3.05,"target":"left","response":"left","rt":1095.7000000477,"correct":true,"confidence":2},{"trial_n":129,"n_dots":3.05,"target":"left","response":"left","rt":1286.5,"correct":true,"confidence":1},{"trial_n":130,"n_dots":2.95,"target":"left","response":"left","rt":2120.8000000715,"correct":true,"confidence":1},{"trial_n":131,"n_dots":2.95,"target":"left","response":"left","rt":666.70000004768,"correct":true,"confidence":2},{"trial_n":132,"n_dots":2.85,"target":"right","response":"right","rt":438.70000004768,"correct":true,"confidence":3},{"trial_n":133,"n_dots":2.85,"target":"left","response":"right","rt":1243.7000000477,"correct":false,"confidence":2},{"trial_n":134,"n_dots":2.95,"target":"right","response":"left","rt":689.10000002384,"correct":false,"confidence":1},{"trial_n":135,"n_dots":3.05,"target":"right","response":"right","rt":507.40000009537,"correct":true,"confidence":1},{"trial_n":136,"n_dots":3.05,"target":"left","response":"left","rt":722.20000004768,"correct":true,"confidence":1},{"trial_n":137,"n_dots":2.95,"target":"left","response":"left","rt":614.19999992847,"correct":true,"confidence":3},{"trial_n":138,"n_dots":2.95,"target":"right","response":"left","rt":858.89999997616,"correct":false,"confidence":1},{"trial_n":139,"n_dots":3.05,"target":"right","response":"right","rt":938.5,"correct":true,"confidence":2},{"trial_n":140,"n_dots":3.05,"target":"right","response":"right","rt":786.5,"correct":true,"confidence":1},{"trial_n":141,"n_dots":2.95,"target":"right","response":"left","rt":969.89999997616,"correct":false,"confidence":1},{"trial_n":142,"n_dots":3.05,"target":"left","response":"left","rt":629.89999997616,"correct":true,"confidence":3},{"trial_n":143,"n_dots":3.05,"target":"right","response":"left","rt":1337.3000000715,"correct":false,"confidence":1},{"trial_n":144,"n_dots":3.15,"target":"left","response":"left","rt":658.20000004768,"correct":true,"confidence":3},{"trial_n":145,"n_dots":3.15,"target":"right","response":"right","rt":1065.8999999762,"correct":true,"confidence":1},{"trial_n":146,"n_dots":3.05,"target":"left","response":"left","rt":737.79999995232,"correct":true,"confidence":1},{"trial_n":147,"n_dots":3.05,"target":"left","response":"left","rt":575.89999997616,"correct":true,"confidence":3},{"trial_n":148,"n_dots":2.95,"target":"right","response":"right","rt":530.69999992847,"correct":true,"confidence":4},{"trial_n":149,"n_dots":2.95,"target":"right","response":"right","rt":1104.6999999285,"correct":true,"confidence":1},{"trial_n":150,"n_dots":2.85,"target":"right","response":"right","rt":697.89999997616,"correct":true,"confidence":3},{"trial_n":151,"n_dots":2.85,"target":"right","response":"right","rt":737.90000009537,"correct":true,"confidence":1},{"trial_n":152,"n_dots":2.75,"target":"right","response":"right","rt":607.5,"correct":true,"confidence":1},{"trial_n":153,"n_dots":2.75,"target":"right","response":"right","rt":441.69999992847,"correct":true,"confidence":3},{"trial_n":154,"n_dots":2.65,"target":"right","response":"right","rt":713.20000004768,"correct":true,"confidence":1},{"trial_n":155,"n_dots":2.65,"target":"right","response":"right","rt":757.5,"correct":true,"confidence":1},{"trial_n":156,"n_dots":2.55,"target":"left","response":"right","rt":697.79999995232,"correct":false,"confidence":2},{"trial_n":157,"n_dots":2.65,"target":"left","response":"right","rt":1684.7000000477,"correct":false,"confidence":1},{"trial_n":158,"n_dots":2.75,"target":"right","response":"right","rt":846.60000002384,"correct":true,"confidence":1},{"trial_n":159,"n_dots":2.75,"target":"right","response":"right","rt":563.29999995232,"correct":true,"confidence":1},{"trial_n":160,"n_dots":2.65,"target":"right","response":"left","rt":603.60000002384,"correct":false,"confidence":1},{"trial_n":161,"n_dots":2.75,"target":"right","response":"left","rt":636,"correct":false,"confidence":2},{"trial_n":162,"n_dots":2.85,"target":"left","response":"right","rt":1297.1000000238,"correct":false,"confidence":1},{"trial_n":163,"n_dots":2.95,"target":"left","response":"left","rt":274,"correct":true,"confidence":5},{"trial_n":164,"n_dots":2.95,"target":"left","response":"left","rt":677.20000004768,"correct":true,"confidence":3},{"trial_n":165,"n_dots":2.85,"target":"left","response":"left","rt":841.10000002384,"correct":true,"confidence":2},{"trial_n":166,"n_dots":2.85,"target":"left","response":"left","rt":577.19999992847,"correct":true,"confidence":3},{"trial_n":167,"n_dots":2.75,"target":"left","response":"left","rt":1141.2000000477,"correct":true,"confidence":2},{"trial_n":168,"n_dots":2.75,"target":"left","response":"left","rt":803,"correct":true,"confidence":2},{"trial_n":169,"n_dots":2.65,"target":"left","response":"left","rt":817.60000002384,"correct":true,"confidence":2},{"trial_n":170,"n_dots":2.65,"target":"left","response":"left","rt":570.60000002384,"correct":true,"confidence":2},{"trial_n":171,"n_dots":2.55,"target":"right","response":"left","rt":560.10000002384,"correct":false,"confidence":2},{"trial_n":172,"n_dots":2.65,"target":"left","response":"left","rt":660.70000004768,"correct":true,"confidence":2},{"trial_n":173,"n_dots":2.65,"target":"left","response":"left","rt":881.70000004768,"correct":true,"confidence":2},{"trial_n":174,"n_dots":2.55,"target":"left","response":"right","rt":596.59999990463,"correct":false,"confidence":2},{"trial_n":175,"n_dots":2.65,"target":"right","response":"right","rt":408.89999997616,"correct":true,"confidence":2},{"trial_n":176,"n_dots":2.65,"target":"right","response":"right","rt":369.70000004768,"correct":true,"confidence":3},{"trial_n":177,"n_dots":2.55,"target":"right","response":"left","rt":1030.7000000477,"correct":false,"confidence":1},{"trial_n":178,"n_dots":2.65,"target":"left","response":"left","rt":514.20000004768,"correct":true,"confidence":1},{"trial_n":179,"n_dots":2.65,"target":"right","response":"right","rt":805.5,"correct":true,"confidence":2},{"trial_n":180,"n_dots":2.55,"target":"left","response":"left","rt":629.10000002384,"correct":true,"confidence":3},{"trial_n":181,"n_dots":2.55,"target":"right","response":"right","rt":1342.5,"correct":true,"confidence":1},{"trial_n":182,"n_dots":2.45,"target":"right","response":"left","rt":577,"correct":false,"confidence":1},{"trial_n":183,"n_dots":2.55,"target":"left","response":"right","rt":736.30000007153,"correct":false,"confidence":1},{"trial_n":184,"n_dots":2.65,"target":"left","response":"left","rt":511.20000004768,"correct":true,"confidence":4},{"trial_n":185,"n_dots":2.65,"target":"right","response":"left","rt":485.10000002384,"correct":false,"confidence":2},{"trial_n":186,"n_dots":2.75,"target":"right","response":"right","rt":510.29999995232,"correct":true,"confidence":3},{"trial_n":187,"n_dots":2.75,"target":"left","response":"left","rt":1151.8000000715,"correct":true,"confidence":2},{"trial_n":188,"n_dots":2.65,"target":"right","response":"right","rt":309.60000002384,"correct":true,"confidence":5},{"trial_n":189,"n_dots":2.65,"target":"right","response":"left","rt":821.69999992847,"correct":false,"confidence":2},{"trial_n":190,"n_dots":2.75,"target":"left","response":"left","rt":820.29999995232,"correct":true,"confidence":2},{"trial_n":191,"n_dots":2.75,"target":"right","response":"right","rt":913,"correct":true,"confidence":3},{"trial_n":192,"n_dots":2.65,"target":"left","response":"left","rt":764.69999992847,"correct":true,"confidence":2},{"trial_n":193,"n_dots":2.65,"target":"right","response":"left","rt":912.80000007153,"correct":false,"confidence":1},{"trial_n":194,"n_dots":2.75,"target":"right","response":"left","rt":1037.1000000238,"correct":false,"confidence":1}]