[{"trial_n":1,"n_dots":4.25,"target":"right","response":"right","rt":3117,"correct":true,"confidence":-1},{"trial_n":2,"n_dots":4.25,"target":"right","response":"right","rt":625.20000004768,"correct":true,"confidence":-1},{"trial_n":3,"n_dots":3.85,"target":"right","response":"right","rt":312,"correct":true,"confidence":-1},{"trial_n":4,"n_dots":3.85,"target":"right","response":"right","rt":322.5,"correct":true,"confidence":-1},{"trial_n":5,"n_dots":3.45,"target":"left","response":"right","rt":130.29999995232,"correct":false,"confidence":-1},{"trial_n":6,"n_dots":3.85,"target":"left","response":"left","rt":478.30000007153,"correct":true,"confidence":-1},{"trial_n":7,"n_dots":3.85,"target":"left","response":"left","rt":299.60000002384,"correct":true,"confidence":-1},{"trial_n":8,"n_dots":3.65,"target":"left","response":"right","rt":711.40000009537,"correct":false,"confidence":-1},{"trial_n":9,"n_dots":3.85,"target":"right","response":"right","rt":135,"correct":true,"confidence":-1},{"trial_n":10,"n_dots":3.85,"target":"right","response":"right","rt":835.5,"correct":true,"confidence":-1},{"trial_n":11,"n_dots":3.65,"target":"left","response":"left","rt":526.39999997616,"correct":true,"confidence":-1},{"trial_n":12,"n_dots":3.65,"target":"left","response":"right","rt":838.89999997616,"correct":false,"confidence":-1},{"trial_n":13,"n_dots":3.75,"target":"right","response":"right","rt":159.60000002384,"correct":true,"confidence":-1},{"trial_n":14,"n_dots":3.75,"target":"right","response":"right","rt":709.39999997616,"correct":true,"confidence":-1},{"trial_n":15,"n_dots":3.65,"target":"left","response":"left","rt":747,"correct":true,"confidence":-1},{"trial_n":16,"n_dots":3.65,"target":"right","response":"right","rt":324,"correct":true,"confidence":-1},{"trial_n":17,"n_dots":3.55,"target":"left","response":"left","rt":188.79999995232,"correct":true,"confidence":-1},{"trial_n":18,"n_dots":3.55,"target":"left","response":"left","rt":327.10000002384,"correct":true,"confidence":-1},{"trial_n":19,"n_dots":3.45,"target":"right","response":"right","rt":229,"correct":true,"confidence":-1},{"trial_n":20,"n_dots":3.45,"target":"left","response":"left","rt":72.700000047684,"correct":true,"confidence":-1},{"trial_n":21,"n_dots":3.35,"target":"left","response":"left","rt":350.80000007153,"correct":true,"confidence":-1},{"trial_n":22,"n_dots":3.35,"target":"right","response":"right","rt":170.89999997616,"correct":true,"confidence":-1},{"trial_n":23,"n_dots":3.25,"target":"left","response":"left","rt":260.89999997616,"correct":true,"confidence":-1},{"trial_n":24,"n_dots":3.25,"target":"right","response":"right","rt":315.10000002384,"correct":true,"confidence":-1},{"trial_n":25,"n_dots":3.15,"target":"right","response":"left","rt":74.199999928474,"correct":false,"confidence":-1},{"trial_n":26,"n_dots":3.25,"target":"left","response":"left","rt":509.39999997616,"correct":true,"confidence":-1},{"trial_n":27,"n_dots":3.25,"target":"right","response":"right","rt":343.89999997616,"correct":true,"confidence":5},{"trial_n":28,"n_dots":3.15,"target":"left","response":"left","rt":557,"correct":true,"confidence":4},{"trial_n":29,"n_dots":3.15,"target":"left","response":"right","rt":875.79999995232,"correct":false,"confidence":4},{"trial_n":30,"n_dots":3.25,"target":"right","response":"right","rt":373,"correct":true,"confidence":4},{"trial_n":31,"n_dots":3.25,"target":"right","response":"right","rt":655.70000004768,"correct":true,"confidence":6},{"trial_n":32,"n_dots":3.15,"target":"right","response":"right","rt":390.39999997616,"correct":true,"confidence":6},{"trial_n":33,"n_dots":3.15,"target":"right","response":"right","rt":3185.5,"correct":true,"confidence":6},{"trial_n":34,"n_dots":3.05,"target":"left","response":"right","rt":384,"correct":false,"confidence":4},{"trial_n":35,"n_dots":3.15,"target":"right","response":"right","rt":353.5,"correct":true,"confidence":4},{"trial_n":36,"n_dots":3.15,"target":"left","response":"left","rt":2982.6999999285,"correct":true,"confidence":4},{"trial_n":37,"n_dots":3.05,"target":"left","response":"left","rt":1392.5999999046,"correct":true,"confidence":4},{"trial_n":38,"n_dots":3.05,"target":"right","response":"right","rt":313.60000002384,"correct":true,"confidence":4},{"trial_n":39,"n_dots":2.95,"target":"left","response":"right","rt":1743.2999999523,"correct":false,"confidence":3},{"trial_n":40,"n_dots":3.05,"target":"left","response":"right","rt":1167,"correct":false,"confidence":3},{"trial_n":41,"n_dots":3.15,"target":"right","response":"right","rt":485.10000002384,"correct":true,"confidence":4},{"trial_n":42,"n_dots":3.15,"target":"left","response":"left","rt":145.59999990463,"correct":true,"confidence":5},{"trial_n":43,"n_dots":3.05,"target":"right","response":"right","rt":245.39999997616,"correct":true,"confidence":4},{"trial_n":44,"n_dots":3.05,"target":"left","response":"left","rt":354.5,"correct":true,"confidence":5},{"trial_n":45,"n_dots":2.95,"target":"right","response":"right","rt":19.199999928474,"correct":true,"confidence":5},{"trial_n":46,"n_dots":2.95,"target":"left","response":"left","rt":1158.1000000238,"correct":true,"confidence":5},{"trial_n":47,"n_dots":2.85,"target":"left","response":"right","rt":257.29999995232,"correct":false,"confidence":6},{"trial_n":48,"n_dots":2.95,"target":"right","response":"right","rt":337.10000002384,"correct":true,"confidence":6},{"trial_n":49,"n_dots":2.95,"target":"right","response":"right","rt":313.89999997616,"correct":true,"confidence":6},{"trial_n":50,"n_dots":2.85,"target":"right","response":"right","rt":-0.30000007152557,"correct":true,"confidence":6},{"trial_n":51,"n_dots":2.85,"target":"left","response":"left","rt":392.60000002384,"correct":true,"confidence":3},{"trial_n":52,"n_dots":2.75,"target":"left","response":"right","rt":409,"correct":false,"confidence":4},{"trial_n":53,"n_dots":2.85,"target":"right","response":"right","rt":205.5,"correct":true,"confidence":4},{"trial_n":54,"n_dots":2.85,"target":"right","response":"left","rt":529.60000002384,"correct":false,"confidence":5},{"trial_n":55,"n_dots":2.95,"target":"left","response":"right","rt":353.39999997616,"correct":false,"confidence":5},{"trial_n":56,"n_dots":3.05,"target":"right","response":"right","rt":139.29999995232,"correct":true,"confidence":6},{"trial_n":57,"n_dots":3.05,"target":"left","response":"left","rt":141.60000002384,"correct":true,"confidence":5},{"trial_n":58,"n_dots":2.95,"target":"right","response":"right","rt":346,"correct":true,"confidence":6},{"trial_n":59,"n_dots":2.95,"target":"right","response":"right","rt":81.600000023842,"correct":true,"confidence":4},{"trial_n":60,"n_dots":2.85,"target":"right","response":"right","rt":351.40000009537,"correct":true,"confidence":4},{"trial_n":61,"n_dots":2.85,"target":"left","response":"right","rt":653.10000002384,"correct":false,"confidence":5},{"trial_n":62,"n_dots":2.95,"target":"left","response":"left","rt":1300.1999999285,"correct":true,"confidence":4},{"trial_n":63,"n_dots":2.95,"target":"right","response":"left","rt":355.10000002384,"correct":false,"confidence":3},{"trial_n":64,"n_dots":3.05,"target":"right","response":"right","rt":13.5,"correct":true,"confidence":5},{"trial_n":65,"n_dots":3.05,"target":"right","response":"right","rt":258,"correct":true,"confidence":6},{"trial_n":66,"n_dots":2.95,"target":"left","response":"left","rt":161.20000004768,"correct":true,"confidence":4},{"trial_n":67,"n_dots":2.95,"target":"right","response":"right","rt":3.3000000715256,"correct":true,"confidence":3},{"trial_n":68,"n_dots":2.85,"target":"right","response":"left","rt":350.40000009537,"correct":false,"confidence":4},{"trial_n":69,"n_dots":2.95,"target":"right","response":"right","rt":309.60000002384,"correct":true,"confidence":6},{"trial_n":70,"n_dots":2.95,"target":"right","response":"left","rt":338.29999995232,"correct":false,"confidence":3},{"trial_n":71,"n_dots":3.05,"target":"right","response":"right","rt":69.100000023842,"correct":true,"confidence":6},{"trial_n":72,"n_dots":3.05,"target":"left","response":"left","rt":942.60000002384,"correct":true,"confidence":4},{"trial_n":73,"n_dots":2.95,"target":"left","response":"right","rt":421.39999997616,"correct":false,"confidence":6},{"trial_n":74,"n_dots":3.05,"target":"right","response":"right","rt":329.39999997616,"correct":true,"confidence":4},{"trial_n":75,"n_dots":3.05,"target":"left","response":"left","rt":1524.7000000477,"correct":true,"confidence":4},{"trial_n":76,"n_dots":2.95,"target":"left","response":"left","rt":526.30000007153,"correct":true,"confidence":3},{"trial_n":77,"n_dots":2.95,"target":"left","response":"right","rt":1308.1000000238,"correct":false,"confidence":2},{"trial_n":78,"n_dots":3.05,"target":"left","response":"left","rt":296.39999997616,"correct":true,"confidence":4},{"trial_n":79,"n_dots":3.05,"target":"left","response":"left","rt":502.60000002384,"correct":true,"confidence":3},{"trial_n":80,"n_dots":2.95,"target":"right","response":"right","rt":274.59999990463,"correct":true,"confidence":5},{"trial_n":81,"n_dots":2.95,"target":"left","response":"left","rt":1196.1999999285,"correct":true,"confidence":3},{"trial_n":82,"n_dots":2.85,"target":"left","response":"left","rt":896.60000002384,"correct":true,"confidence":4},{"trial_n":83,"n_dots":2.85,"target":"left","response":"right","rt":264.20000004768,"correct":false,"confidence":5},{"trial_n":84,"n_dots":2.95,"target":"right","response":"right","rt":830.39999997616,"correct":true,"confidence":5},{"trial_n":85,"n_dots":2.95,"target":"right","response":"left","rt":601.39999997616,"correct":false,"confidence":3},{"trial_n":86,"n_dots":3.05,"target":"right","response":"right","rt":635.39999997616,"correct":true,"confidence":5},{"trial_n":87,"n_dots":3.05,"target":"left","response":"left","rt":779.59999990463,"correct":true,"confidence":5},{"trial_n":88,"n_dots":2.95,"target":"right","response":"right","rt":511.80000007153,"correct":true,"confidence":5},{"trial_n":89,"n_dots":2.95,"target":"left","response":"left","rt":212.10000002384,"correct":true,"confidence":4},{"trial_n":90,"n_dots":2.85,"target":"right","response":"right","rt":3.5,"correct":true,"confidence":6},{"trial_n":91,"n_dots":2.85,"target":"left","response":"left","rt":520.10000002384,"correct":true,"confidence":5},{"trial_n":92,"n_dots":2.75,"target":"right","response":"right","rt":381.09999990463,"correct":true,"confidence":5},{"trial_n":93,"n_dots":2.75,"target":"left","response":"left","rt":357.39999997616,"correct":true,"confidence":3},{"trial_n":94,"n_dots":2.65,"target":"left","response":"right","rt":293.69999992847,"correct":false,"confidence":5},{"trial_n":95,"n_dots":2.75,"target":"right","response":"right","rt":522.39999997616,"correct":true,"confidence":1},{"trial_n":96,"n_dots":2.75,"target":"right","response":"right","rt":286.70000004768,"correct":true,"confidence":5},{"trial_n":97,"n_dots":2.65,"target":"left","response":"right","rt":94.199999928474,"correct":false,"confidence":5},{"trial_n":98,"n_dots":2.75,"target":"left","response":"right","rt":707.20000004768,"correct":false,"confidence":4},{"trial_n":99,"n_dots":2.85,"target":"right","response":"right","rt":249.60000002384,"correct":true,"confidence":4},{"trial_n":100,"n_dots":2.85,"target":"right","response":"right","rt":679.39999997616,"correct":true,"confidence":5},{"trial_n":101,"n_dots":2.75,"target":"left","response":"left","rt":536.60000002384,"correct":true,"confidence":4},{"trial_n":102,"n_dots":2.75,"target":"right","response":"right","rt":337.89999997616,"correct":true,"confidence":5},{"trial_n":103,"n_dots":2.65,"target":"left","response":"left","rt":930,"correct":true,"confidence":3},{"trial_n":104,"n_dots":2.65,"target":"right","response":"right","rt":54.899999976158,"correct":true,"confidence":5},{"trial_n":105,"n_dots":2.55,"target":"left","response":"left","rt":219.60000002384,"correct":true,"confidence":4},{"trial_n":106,"n_dots":2.55,"target":"left","response":"right","rt":497.10000002384,"correct":false,"confidence":1},{"trial_n":107,"n_dots":2.65,"target":"right","response":"right","rt":645.30000007153,"correct":true,"confidence":5},{"trial_n":108,"n_dots":2.65,"target":"left","response":"left","rt":102.29999995232,"correct":true,"confidence":5},{"trial_n":109,"n_dots":2.55,"target":"right","response":"right","rt":86.199999928474,"correct":true,"confidence":5},{"trial_n":110,"n_dots":2.55,"target":"left","response":"left","rt":481.29999995232,"correct":true,"confidence":4},{"trial_n":111,"n_dots":2.45,"target":"right","response":"left","rt":134.60000002384,"correct":false,"confidence":5},{"trial_n":112,"n_dots":2.55,"target":"left","response":"left","rt":167.69999992847,"correct":true,"confidence":4},{"trial_n":113,"n_dots":2.55,"target":"right","response":"right","rt":51.700000047684,"correct":true,"confidence":5},{"trial_n":114,"n_dots":2.45,"target":"right","response":"right","rt":484.20000004768,"correct":true,"confidence":4},{"trial_n":115,"n_dots":2.45,"target":"left","response":"left","rt":998.19999992847,"correct":true,"confidence":5},{"trial_n":116,"n_dots":2.35,"target":"right","response":"left","rt":813.70000004768,"correct":false,"confidence":4},{"trial_n":117,"n_dots":2.45,"target":"right","response":"right","rt":755.29999995232,"correct":true,"confidence":4},{"trial_n":118,"n_dots":2.45,"target":"right","response":"left","rt":163.5,"correct":false,"confidence":5},{"trial_n":119,"n_dots":2.55,"target":"right","response":"left","rt":839.20000004768,"correct":false,"confidence":5},{"trial_n":120,"n_dots":2.65,"target":"right","response":"right","rt":287.59999990463,"correct":true,"confidence":5},{"trial_n":121,"n_dots":2.65,"target":"left","response":"left","rt":257.89999997616,"correct":true,"confidence":1},{"trial_n":122,"n_dots":2.55,"target":"left","response":"left","rt":1013.8000000715,"correct":true,"confidence":3},{"trial_n":123,"n_dots":2.55,"target":"right","response":"right","rt":382.09999990463,"correct":true,"confidence":5},{"trial_n":124,"n_dots":2.45,"target":"left","response":"right","rt":1841.1000000238,"correct":false,"confidence":2},{"trial_n":125,"n_dots":2.55,"target":"right","response":"right","rt":332.69999992847,"correct":true,"confidence":2},{"trial_n":126,"n_dots":2.55,"target":"right","response":"right","rt":376.89999997616,"correct":true,"confidence":2},{"trial_n":127,"n_dots":2.45,"target":"right","response":"right","rt":298.90000009537,"correct":true,"confidence":2},{"trial_n":128,"n_dots":2.45,"target":"right","response":"right","rt":382.89999997616,"correct":true,"confidence":4},{"trial_n":129,"n_dots":2.35,"target":"left","response":"left","rt":1171.6999999285,"correct":true,"confidence":1},{"trial_n":130,"n_dots":2.35,"target":"left","response":"right","rt":982.40000009537,"correct":false,"confidence":3},{"trial_n":131,"n_dots":2.45,"target":"left","response":"right","rt":395.20000004768,"correct":false,"confidence":4},{"trial_n":132,"n_dots":2.55,"target":"left","response":"right","rt":599.79999995232,"correct":false,"confidence":5},{"trial_n":133,"n_dots":2.65,"target":"right","response":"right","rt":40.899999976158,"correct":true,"confidence":4},{"trial_n":134,"n_dots":2.65,"target":"left","response":"right","rt":547.60000002384,"correct":false,"confidence":3},{"trial_n":135,"n_dots":2.75,"target":"left","response":"right","rt":353.20000004768,"correct":false,"confidence":2},{"trial_n":136,"n_dots":2.85,"target":"left","response":"left","rt":992.60000002384,"correct":true,"confidence":1},{"trial_n":137,"n_dots":2.85,"target":"right","response":"right","rt":399.19999992847,"correct":true,"confidence":2},{"trial_n":138,"n_dots":2.75,"target":"left","response":"left","rt":1139.2999999523,"correct":true,"confidence":3},{"trial_n":139,"n_dots":2.75,"target":"left","response":"right","rt":223.39999997616,"correct":false,"confidence":4},{"trial_n":140,"n_dots":2.85,"target":"right","response":"right","rt":86.600000023842,"correct":true,"confidence":5},{"trial_n":141,"n_dots":2.85,"target":"left","response":"right","rt":455,"correct":false,"confidence":5},{"trial_n":142,"n_dots":2.95,"target":"right","response":"right","rt":922,"correct":true,"confidence":4},{"trial_n":143,"n_dots":2.95,"target":"left","response":"right","rt":293.70000004768,"correct":false,"confidence":2},{"trial_n":144,"n_dots":3.05,"target":"left","response":"right","rt":591.19999992847,"correct":false,"confidence":2},{"trial_n":145,"n_dots":3.15,"target":"right","response":"left","rt":296.69999992847,"correct":false,"confidence":4},{"trial_n":146,"n_dots":3.25,"target":"right","response":"right","rt":282.20000004768,"correct":true,"confidence":4},{"trial_n":147,"n_dots":3.25,"target":"right","response":"right","rt":707.79999995232,"correct":true,"confidence":4},{"trial_n":148,"n_dots":3.15,"target":"left","response":"left","rt":1703.6000000238,"correct":true,"confidence":4},{"trial_n":149,"n_dots":3.15,"target":"right","response":"right","rt":438,"correct":true,"confidence":1},{"trial_n":150,"n_dots":3.05,"target":"left","response":"left","rt":1199.5,"correct":true,"confidence":4},{"trial_n":151,"n_dots":3.05,"target":"left","response":"right","rt":517.70000004768,"correct":false,"confidence":4},{"trial_n":152,"n_dots":3.15,"target":"left","response":"left","rt":766.30000007153,"correct":true,"confidence":4},{"trial_n":153,"n_dots":3.15,"target":"right","response":"right","rt":448.90000009537,"correct":true,"confidence":3},{"trial_n":154,"n_dots":3.05,"target":"right","response":"right","rt":1053.2999999523,"correct":true,"confidence":3},{"trial_n":155,"n_dots":3.05,"target":"right","response":"right","rt":249,"correct":true,"confidence":3},{"trial_n":156,"n_dots":2.95,"target":"left","response":"left","rt":123.20000004768,"correct":true,"confidence":4},{"trial_n":157,"n_dots":2.95,"target":"right","response":"right","rt":677.5,"correct":true,"confidence":4},{"trial_n":158,"n_dots":2.85,"target":"left","response":"left","rt":1073.3000000715,"correct":true,"confidence":5},{"trial_n":159,"n_dots":2.85,"target":"left","response":"left","rt":438.20000004768,"correct":true,"confidence":5},{"trial_n":160,"n_dots":2.75,"target":"left","response":"right","rt":2143,"correct":false,"confidence":4},{"trial_n":161,"n_dots":2.85,"target":"left","response":"right","rt":637.69999992847,"correct":false,"confidence":5},{"trial_n":162,"n_dots":2.95,"target":"left","response":"left","rt":837.30000007153,"correct":true,"confidence":5},{"trial_n":163,"n_dots":2.95,"target":"left","response":"left","rt":2369.5,"correct":true,"confidence":4},{"trial_n":164,"n_dots":2.85,"target":"left","response":"right","rt":479.79999995232,"correct":false,"confidence":5},{"trial_n":165,"n_dots":2.95,"target":"left","response":"right","rt":164.69999992847,"correct":false,"confidence":4},{"trial_n":166,"n_dots":3.05,"target":"right","response":"right","rt":55.299999952316,"correct":true,"confidence":3},{"trial_n":167,"n_dots":3.05,"target":"left","response":"left","rt":411.89999997616,"correct":true,"confidence":4},{"trial_n":168,"n_dots":2.95,"target":"right","response":"right","rt":399.5,"correct":true,"confidence":5},{"trial_n":169,"n_dots":2.95,"target":"right","response":"right","rt":962.59999990463,"correct":true,"confidence":5},{"trial_n":170,"n_dots":2.85,"target":"left","response":"left","rt":309.20000004768,"correct":true,"confidence":4},{"trial_n":171,"n_dots":2.85,"target":"right","response":"right","rt":138.5,"correct":true,"confidence":5},{"trial_n":172,"n_dots":2.75,"target":"left","response":"left","rt":554.5,"correct":true,"confidence":4},{"trial_n":173,"n_dots":2.75,"target":"left","response":"left","rt":518.79999995232,"correct":true,"confidence":4},{"trial_n":174,"n_dots":2.65,"target":"right","response":"right","rt":57.899999976158,"correct":true,"confidence":5},{"trial_n":175,"n_dots":2.65,"target":"right","response":"right","rt":284.09999990463,"correct":true,"confidence":5},{"trial_n":176,"n_dots":2.55,"target":"right","response":"left","rt":1070.9000000954,"correct":false,"confidence":4},{"trial_n":177,"n_dots":2.65,"target":"right","response":"right","rt":286,"correct":true,"confidence":5},{"trial_n":178,"n_dots":2.65,"target":"left","response":"right","rt":180.70000004768,"correct":false,"confidence":5},{"trial_n":179,"n_dots":2.75,"target":"right","response":"right","rt":368.09999990463,"correct":true,"confidence":4},{"trial_n":180,"n_dots":2.75,"target":"right","response":"right","rt":401.29999995232,"correct":true,"confidence":4},{"trial_n":181,"n_dots":2.65,"target":"left","response":"left","rt":882,"correct":true,"confidence":4},{"trial_n":182,"n_dots":2.65,"target":"left","response":"right","rt":31.5,"correct":false,"confidence":4},{"trial_n":183,"n_dots":2.75,"target":"right","response":"right","rt":328.20000004768,"correct":true,"confidence":5},{"trial_n":184,"n_dots":2.75,"target":"left","response":"left","rt":490.19999992847,"correct":true,"confidence":4},{"trial_n":185,"n_dots":2.65,"target":"left","response":"left","rt":479.70000004768,"correct":true,"confidence":5},{"trial_n":186,"n_dots":2.65,"target":"right","response":"right","rt":115.20000004768,"correct":true,"confidence":4},{"trial_n":187,"n_dots":2.55,"target":"right","response":"right","rt":514.89999997616,"correct":true,"confidence":4},{"trial_n":188,"n_dots":2.55,"target":"left","response":"left","rt":208.5,"correct":true,"confidence":4},{"trial_n":189,"n_dots":2.45,"target":"right","response":"left","rt":484.5,"correct":false,"confidence":4},{"trial_n":190,"n_dots":2.55,"target":"right","response":"right","rt":103.89999997616,"correct":true,"confidence":4},{"trial_n":191,"n_dots":2.55,"target":"left","response":"left","rt":422,"correct":true,"confidence":4},{"trial_n":192,"n_dots":2.45,"target":"left","response":"right","rt":406.5,"correct":false,"confidence":4},{"trial_n":193,"n_dots":2.55,"target":"right","response":"right","rt":99.200000047684,"correct":true,"confidence":5},{"trial_n":194,"n_dots":2.55,"target":"left","response":"left","rt":1744.4000000954,"correct":true,"confidence":4}]