[{"trial_n":1,"n_dots":4.25,"target":"left","response":"left","rt":2660.4000000954,"correct":true,"confidence":-1},{"trial_n":2,"n_dots":4.25,"target":"left","response":"left","rt":328.70000004768,"correct":true,"confidence":-1},{"trial_n":3,"n_dots":3.85,"target":"left","response":"left","rt":281.89999985695,"correct":true,"confidence":-1},{"trial_n":4,"n_dots":3.85,"target":"left","response":"left","rt":76.5,"correct":true,"confidence":-1},{"trial_n":5,"n_dots":3.45,"target":"right","response":"left","rt":253.29999995232,"correct":false,"confidence":-1},{"trial_n":6,"n_dots":3.85,"target":"left","response":"right","rt":411.29999995232,"correct":false,"confidence":-1},{"trial_n":7,"n_dots":4.25,"target":"right","response":"right","rt":25.200000047684,"correct":true,"confidence":-1},{"trial_n":8,"n_dots":4.25,"target":"left","response":"left","rt":639,"correct":true,"confidence":-1},{"trial_n":9,"n_dots":4.05,"target":"right","response":"right","rt":161.70000004768,"correct":true,"confidence":-1},{"trial_n":10,"n_dots":4.05,"target":"left","response":"left","rt":577.70000004768,"correct":true,"confidence":-1},{"trial_n":11,"n_dots":3.85,"target":"left","response":"left","rt":332.29999995232,"correct":true,"confidence":-1},{"trial_n":12,"n_dots":3.85,"target":"right","response":"right","rt":253.70000004768,"correct":true,"confidence":-1},{"trial_n":13,"n_dots":3.75,"target":"right","response":"right","rt":199.90000009537,"correct":true,"confidence":-1},{"trial_n":14,"n_dots":3.75,"target":"left","response":"left","rt":6.1999998092651,"correct":true,"confidence":-1},{"trial_n":15,"n_dots":3.65,"target":"left","response":"left","rt":5.2000000476837,"correct":true,"confidence":-1},{"trial_n":16,"n_dots":3.65,"target":"left","response":"left","rt":202.70000004768,"correct":true,"confidence":-1},{"trial_n":17,"n_dots":3.55,"target":"left","response":"left","rt":27.799999952316,"correct":true,"confidence":-1},{"trial_n":18,"n_dots":3.55,"target":"left","response":"left","rt":130.69999980927,"correct":true,"confidence":-1},{"trial_n":19,"n_dots":3.45,"target":"left","response":"left","rt":94.5,"correct":true,"confidence":-1},{"trial_n":20,"n_dots":3.45,"target":"left","response":"left","rt":331.60000014305,"correct":true,"confidence":-1},{"trial_n":21,"n_dots":3.35,"target":"left","response":"left","rt":226.20000004768,"correct":true,"confidence":-1},{"trial_n":22,"n_dots":3.35,"target":"left","response":"left","rt":195.89999985695,"correct":true,"confidence":-1},{"trial_n":23,"n_dots":3.25,"target":"left","response":"left","rt":288.5,"correct":true,"confidence":-1},{"trial_n":24,"n_dots":3.25,"target":"right","response":"right","rt":308.59999990463,"correct":true,"confidence":-1},{"trial_n":25,"n_dots":3.15,"target":"left","response":"left","rt":156.89999985695,"correct":true,"confidence":-1},{"trial_n":26,"n_dots":3.15,"target":"left","response":"left","rt":56.100000143051,"correct":true,"confidence":-1},{"trial_n":27,"n_dots":3.05,"target":"left","response":"left","rt":248.10000014305,"correct":true,"confidence":5},{"trial_n":28,"n_dots":3.05,"target":"right","response":"right","rt":248.29999995232,"correct":true,"confidence":4},{"trial_n":29,"n_dots":2.95,"target":"right","response":"right","rt":293.79999995232,"correct":true,"confidence":3},{"trial_n":30,"n_dots":2.95,"target":"left","response":"left","rt":265.70000004768,"correct":true,"confidence":3},{"trial_n":31,"n_dots":2.85,"target":"right","response":"right","rt":234.59999990463,"correct":true,"confidence":3},{"trial_n":32,"n_dots":2.85,"target":"right","response":"right","rt":45.399999856949,"correct":true,"confidence":3},{"trial_n":33,"n_dots":2.75,"target":"left","response":"right","rt":299.20000004768,"correct":false,"confidence":3},{"trial_n":34,"n_dots":2.85,"target":"right","response":"right","rt":396.5,"correct":true,"confidence":4},{"trial_n":35,"n_dots":2.85,"target":"right","response":"right","rt":131.69999980927,"correct":true,"confidence":6},{"trial_n":36,"n_dots":2.75,"target":"left","response":"right","rt":535.79999995232,"correct":false,"confidence":3},{"trial_n":37,"n_dots":2.85,"target":"left","response":"right","rt":330.89999985695,"correct":false,"confidence":3},{"trial_n":38,"n_dots":2.95,"target":"left","response":"right","rt":295.40000009537,"correct":false,"confidence":2},{"trial_n":39,"n_dots":3.05,"target":"left","response":"left","rt":497.79999995232,"correct":true,"confidence":3},{"trial_n":40,"n_dots":3.05,"target":"right","response":"right","rt":410.39999985695,"correct":true,"confidence":4},{"trial_n":41,"n_dots":2.95,"target":"left","response":"right","rt":449.70000004768,"correct":false,"confidence":4},{"trial_n":42,"n_dots":3.05,"target":"left","response":"right","rt":407.59999990463,"correct":false,"confidence":3},{"trial_n":43,"n_dots":3.15,"target":"right","response":"right","rt":577.29999995232,"correct":true,"confidence":2},{"trial_n":44,"n_dots":3.15,"target":"right","response":"right","rt":523.90000009537,"correct":true,"confidence":3},{"trial_n":45,"n_dots":3.05,"target":"left","response":"left","rt":507.59999990463,"correct":true,"confidence":3},{"trial_n":46,"n_dots":3.05,"target":"right","response":"right","rt":526,"correct":true,"confidence":4},{"trial_n":47,"n_dots":2.95,"target":"right","response":"right","rt":285.59999990463,"correct":true,"confidence":4},{"trial_n":48,"n_dots":2.95,"target":"right","response":"right","rt":407.20000004768,"correct":true,"confidence":5},{"trial_n":49,"n_dots":2.85,"target":"right","response":"right","rt":351.5,"correct":true,"confidence":5},{"trial_n":50,"n_dots":2.85,"target":"right","response":"right","rt":406.10000014305,"correct":true,"confidence":5},{"trial_n":51,"n_dots":2.75,"target":"right","response":"right","rt":354.70000004768,"correct":true,"confidence":2},{"trial_n":52,"n_dots":2.75,"target":"left","response":"right","rt":478.5,"correct":false,"confidence":3},{"trial_n":53,"n_dots":2.85,"target":"right","response":"right","rt":544.20000004768,"correct":true,"confidence":4},{"trial_n":54,"n_dots":2.85,"target":"right","response":"right","rt":381.29999995232,"correct":true,"confidence":4},{"trial_n":55,"n_dots":2.75,"target":"left","response":"left","rt":579.29999995232,"correct":true,"confidence":2},{"trial_n":56,"n_dots":2.75,"target":"right","response":"right","rt":499.40000009537,"correct":true,"confidence":3},{"trial_n":57,"n_dots":2.65,"target":"left","response":"right","rt":296.79999995232,"correct":false,"confidence":3},{"trial_n":58,"n_dots":2.75,"target":"right","response":"right","rt":482.70000004768,"correct":true,"confidence":3},{"trial_n":59,"n_dots":2.75,"target":"left","response":"left","rt":565.30000019073,"correct":true,"confidence":3},{"trial_n":60,"n_dots":2.65,"target":"right","response":"right","rt":509.79999995232,"correct":true,"confidence":3},{"trial_n":61,"n_dots":2.65,"target":"right","response":"right","rt":313.10000014305,"correct":true,"confidence":4},{"trial_n":62,"n_dots":2.55,"target":"left","response":"right","rt":455.29999995232,"correct":false,"confidence":3},{"trial_n":63,"n_dots":2.65,"target":"right","response":"right","rt":162.40000009537,"correct":true,"confidence":4},{"trial_n":64,"n_dots":2.65,"target":"left","response":"right","rt":445.40000009537,"correct":false,"confidence":2},{"trial_n":65,"n_dots":2.75,"target":"left","response":"left","rt":396.70000004768,"correct":true,"confidence":1},{"trial_n":66,"n_dots":2.75,"target":"right","response":"right","rt":241.59999990463,"correct":true,"confidence":5},{"trial_n":67,"n_dots":2.65,"target":"left","response":"left","rt":278.29999995232,"correct":true,"confidence":5},{"trial_n":68,"n_dots":2.65,"target":"left","response":"left","rt":521.60000014305,"correct":true,"confidence":5},{"trial_n":69,"n_dots":2.55,"target":"right","response":"right","rt":433.90000009537,"correct":true,"confidence":4},{"trial_n":70,"n_dots":2.55,"target":"right","response":"right","rt":66.200000047684,"correct":true,"confidence":6},{"trial_n":71,"n_dots":2.45,"target":"left","response":"right","rt":365.59999990463,"correct":false,"confidence":6},{"trial_n":72,"n_dots":2.55,"target":"left","response":"right","rt":897.09999990463,"correct":false,"confidence":3},{"trial_n":73,"n_dots":2.65,"target":"right","response":"right","rt":117.09999990463,"correct":true,"confidence":5},{"trial_n":74,"n_dots":2.65,"target":"left","response":"right","rt":333.5,"correct":false,"confidence":3},{"trial_n":75,"n_dots":2.75,"target":"left","response":"left","rt":298.40000009537,"correct":true,"confidence":2},{"trial_n":76,"n_dots":2.75,"target":"left","response":"left","rt":263.09999990463,"correct":true,"confidence":4},{"trial_n":77,"n_dots":2.65,"target":"left","response":"right","rt":333.70000004768,"correct":false,"confidence":4},{"trial_n":78,"n_dots":2.75,"target":"left","response":"left","rt":221.30000019073,"correct":true,"confidence":4},{"trial_n":79,"n_dots":2.75,"target":"right","response":"right","rt":547,"correct":true,"confidence":3},{"trial_n":80,"n_dots":2.65,"target":"left","response":"left","rt":368,"correct":true,"confidence":5},{"trial_n":81,"n_dots":2.65,"target":"left","response":"right","rt":320,"correct":false,"confidence":4},{"trial_n":82,"n_dots":2.75,"target":"right","response":"left","rt":105.40000009537,"correct":false,"confidence":4},{"trial_n":83,"n_dots":2.85,"target":"left","response":"right","rt":425.5,"correct":false,"confidence":4},{"trial_n":84,"n_dots":2.95,"target":"right","response":"right","rt":207.39999985695,"correct":true,"confidence":5},{"trial_n":85,"n_dots":2.95,"target":"right","response":"right","rt":288.79999995232,"correct":true,"confidence":4},{"trial_n":86,"n_dots":2.85,"target":"right","response":"right","rt":285.79999995232,"correct":true,"confidence":5},{"trial_n":87,"n_dots":2.85,"target":"right","response":"right","rt":435.5,"correct":true,"confidence":5},{"trial_n":88,"n_dots":2.75,"target":"right","response":"right","rt":372.79999995232,"correct":true,"confidence":5},{"trial_n":89,"n_dots":2.75,"target":"right","response":"left","rt":324,"correct":false,"confidence":2},{"trial_n":90,"n_dots":2.85,"target":"left","response":"right","rt":12.900000095367,"correct":false,"confidence":4},{"trial_n":91,"n_dots":2.95,"target":"left","response":"left","rt":363.59999990463,"correct":true,"confidence":4},{"trial_n":92,"n_dots":2.95,"target":"left","response":"left","rt":329.39999985695,"correct":true,"confidence":5},{"trial_n":93,"n_dots":2.85,"target":"right","response":"left","rt":1881.3999998569,"correct":false,"confidence":5},{"trial_n":94,"n_dots":2.95,"target":"left","response":"left","rt":675.40000009537,"correct":true,"confidence":5},{"trial_n":95,"n_dots":2.95,"target":"left","response":"left","rt":1520.5,"correct":true,"confidence":3},{"trial_n":96,"n_dots":2.85,"target":"right","response":"right","rt":1059.5999999046,"correct":true,"confidence":5},{"trial_n":97,"n_dots":2.85,"target":"left","response":"left","rt":1751,"correct":true,"confidence":1},{"trial_n":98,"n_dots":2.75,"target":"left","response":"left","rt":639.5,"correct":true,"confidence":5},{"trial_n":99,"n_dots":2.75,"target":"right","response":"right","rt":2564.2999999523,"correct":true,"confidence":4},{"trial_n":100,"n_dots":2.65,"target":"right","response":"left","rt":889.59999990463,"correct":false,"confidence":3},{"trial_n":101,"n_dots":2.75,"target":"right","response":"left","rt":488.10000014305,"correct":false,"confidence":3},{"trial_n":102,"n_dots":2.85,"target":"right","response":"right","rt":451.29999995232,"correct":true,"confidence":4},{"trial_n":103,"n_dots":2.85,"target":"right","response":"right","rt":325.70000004768,"correct":true,"confidence":4},{"trial_n":104,"n_dots":2.75,"target":"right","response":"right","rt":353,"correct":true,"confidence":3},{"trial_n":105,"n_dots":2.75,"target":"right","response":"right","rt":295.39999985695,"correct":true,"confidence":5},{"trial_n":106,"n_dots":2.65,"target":"left","response":"left","rt":261.09999990463,"correct":true,"confidence":6},{"trial_n":107,"n_dots":2.65,"target":"left","response":"right","rt":353.09999990463,"correct":false,"confidence":5},{"trial_n":108,"n_dots":2.75,"target":"left","response":"right","rt":192.20000004768,"correct":false,"confidence":4},{"trial_n":109,"n_dots":2.85,"target":"right","response":"right","rt":372.89999985695,"correct":true,"confidence":4},{"trial_n":110,"n_dots":2.85,"target":"right","response":"left","rt":154.29999995232,"correct":false,"confidence":2},{"trial_n":111,"n_dots":2.95,"target":"right","response":"right","rt":106.89999985695,"correct":true,"confidence":5},{"trial_n":112,"n_dots":2.95,"target":"right","response":"right","rt":317.20000004768,"correct":true,"confidence":2},{"trial_n":113,"n_dots":2.85,"target":"left","response":"left","rt":252.80000019073,"correct":true,"confidence":4},{"trial_n":114,"n_dots":2.85,"target":"left","response":"left","rt":124.90000009537,"correct":true,"confidence":4},{"trial_n":115,"n_dots":2.75,"target":"right","response":"right","rt":371.09999990463,"correct":true,"confidence":4},{"trial_n":116,"n_dots":2.75,"target":"right","response":"left","rt":369.5,"correct":false,"confidence":4},{"trial_n":117,"n_dots":2.85,"target":"left","response":"right","rt":509.5,"correct":false,"confidence":4},{"trial_n":118,"n_dots":2.95,"target":"left","response":"left","rt":225.30000019073,"correct":true,"confidence":4},{"trial_n":119,"n_dots":2.95,"target":"right","response":"right","rt":224.10000014305,"correct":true,"confidence":5},{"trial_n":120,"n_dots":2.85,"target":"left","response":"left","rt":290.29999995232,"correct":true,"confidence":4},{"trial_n":121,"n_dots":2.85,"target":"right","response":"right","rt":270.90000009537,"correct":true,"confidence":5},{"trial_n":122,"n_dots":2.75,"target":"left","response":"right","rt":433.29999995232,"correct":false,"confidence":4},{"trial_n":123,"n_dots":2.85,"target":"left","response":"right","rt":359.10000014305,"correct":false,"confidence":2},{"trial_n":124,"n_dots":2.95,"target":"left","response":"right","rt":23.599999904633,"correct":false,"confidence":2},{"trial_n":125,"n_dots":3.05,"target":"right","response":"right","rt":312.70000004768,"correct":true,"confidence":4},{"trial_n":126,"n_dots":3.05,"target":"right","response":"left","rt":791.5,"correct":false,"confidence":2},{"trial_n":127,"n_dots":3.15,"target":"right","response":"left","rt":675.20000004768,"correct":false,"confidence":2},{"trial_n":128,"n_dots":3.25,"target":"left","response":"right","rt":394.29999995232,"correct":false,"confidence":5},{"trial_n":129,"n_dots":3.35,"target":"left","response":"left","rt":425.60000014305,"correct":true,"confidence":5},{"trial_n":130,"n_dots":3.35,"target":"right","response":"right","rt":315.59999990463,"correct":true,"confidence":4},{"trial_n":131,"n_dots":3.25,"target":"right","response":"right","rt":717.60000014305,"correct":true,"confidence":4},{"trial_n":132,"n_dots":3.25,"target":"right","response":"right","rt":608.5,"correct":true,"confidence":4},{"trial_n":133,"n_dots":3.15,"target":"right","response":"right","rt":466.5,"correct":true,"confidence":2},{"trial_n":134,"n_dots":3.15,"target":"left","response":"left","rt":54.700000047684,"correct":true,"confidence":5},{"trial_n":135,"n_dots":3.05,"target":"right","response":"left","rt":314.29999995232,"correct":false,"confidence":5},{"trial_n":136,"n_dots":3.15,"target":"right","response":"left","rt":266.90000009537,"correct":false,"confidence":5},{"trial_n":137,"n_dots":3.25,"target":"left","response":"left","rt":62.900000095367,"correct":true,"confidence":5},{"trial_n":138,"n_dots":3.25,"target":"left","response":"right","rt":27.599999904633,"correct":false,"confidence":5},{"trial_n":139,"n_dots":3.35,"target":"right","response":"right","rt":311.59999990463,"correct":true,"confidence":5},{"trial_n":140,"n_dots":3.35,"target":"left","response":"left","rt":464.29999995232,"correct":true,"confidence":5},{"trial_n":141,"n_dots":3.25,"target":"right","response":"right","rt":310,"correct":true,"confidence":4},{"trial_n":142,"n_dots":3.25,"target":"right","response":"left","rt":74,"correct":false,"confidence":2},{"trial_n":143,"n_dots":3.35,"target":"left","response":"left","rt":44.100000143051,"correct":true,"confidence":4},{"trial_n":144,"n_dots":3.35,"target":"left","response":"right","rt":468.5,"correct":false,"confidence":4},{"trial_n":145,"n_dots":3.45,"target":"right","response":"right","rt":329.59999990463,"correct":true,"confidence":4},{"trial_n":146,"n_dots":3.45,"target":"right","response":"right","rt":204.10000014305,"correct":true,"confidence":4},{"trial_n":147,"n_dots":3.35,"target":"left","response":"right","rt":331.69999980927,"correct":false,"confidence":4},{"trial_n":148,"n_dots":3.45,"target":"right","response":"right","rt":341.10000014305,"correct":true,"confidence":5},{"trial_n":149,"n_dots":3.45,"target":"right","response":"right","rt":828.09999990463,"correct":true,"confidence":2},{"trial_n":150,"n_dots":3.35,"target":"left","response":"left","rt":505.79999995232,"correct":true,"confidence":4},{"trial_n":151,"n_dots":3.35,"target":"left","response":"left","rt":499.40000009537,"correct":true,"confidence":2},{"trial_n":152,"n_dots":3.25,"target":"left","response":"left","rt":93.799999952316,"correct":true,"confidence":5},{"trial_n":153,"n_dots":3.25,"target":"right","response":"right","rt":341.90000009537,"correct":true,"confidence":5},{"trial_n":154,"n_dots":3.15,"target":"right","response":"right","rt":448.29999995232,"correct":true,"confidence":5},{"trial_n":155,"n_dots":3.15,"target":"right","response":"right","rt":333.89999985695,"correct":true,"confidence":5},{"trial_n":156,"n_dots":3.05,"target":"left","response":"left","rt":148.10000014305,"correct":true,"confidence":5},{"trial_n":157,"n_dots":3.05,"target":"right","response":"right","rt":511.19999980927,"correct":true,"confidence":5},{"trial_n":158,"n_dots":2.95,"target":"left","response":"left","rt":331,"correct":true,"confidence":3},{"trial_n":159,"n_dots":2.95,"target":"right","response":"right","rt":210.09999990463,"correct":true,"confidence":4},{"trial_n":160,"n_dots":2.85,"target":"right","response":"right","rt":362.20000004768,"correct":true,"confidence":4},{"trial_n":161,"n_dots":2.85,"target":"left","response":"right","rt":507.70000004768,"correct":false,"confidence":4},{"trial_n":162,"n_dots":2.95,"target":"right","response":"right","rt":371.70000004768,"correct":true,"confidence":4},{"trial_n":163,"n_dots":2.95,"target":"right","response":"right","rt":318.80000019073,"correct":true,"confidence":5},{"trial_n":164,"n_dots":2.85,"target":"right","response":"right","rt":467.59999990463,"correct":true,"confidence":5},{"trial_n":165,"n_dots":2.85,"target":"left","response":"right","rt":496.80000019073,"correct":false,"confidence":2},{"trial_n":166,"n_dots":2.95,"target":"left","response":"right","rt":436.09999990463,"correct":false,"confidence":2},{"trial_n":167,"n_dots":3.05,"target":"right","response":"right","rt":281.70000004768,"correct":true,"confidence":3},{"trial_n":168,"n_dots":3.05,"target":"left","response":"right","rt":363.90000009537,"correct":false,"confidence":4},{"trial_n":169,"n_dots":3.15,"target":"left","response":"right","rt":303.5,"correct":false,"confidence":4},{"trial_n":170,"n_dots":3.25,"target":"left","response":"right","rt":468.40000009537,"correct":false,"confidence":2},{"trial_n":171,"n_dots":3.35,"target":"left","response":"left","rt":355.79999995232,"correct":true,"confidence":3},{"trial_n":172,"n_dots":3.35,"target":"left","response":"left","rt":74.099999904633,"correct":true,"confidence":6},{"trial_n":173,"n_dots":3.25,"target":"right","response":"right","rt":224.20000004768,"correct":true,"confidence":6},{"trial_n":174,"n_dots":3.25,"target":"right","response":"right","rt":31.100000143051,"correct":true,"confidence":5},{"trial_n":175,"n_dots":3.15,"target":"right","response":"right","rt":609.5,"correct":true,"confidence":3},{"trial_n":176,"n_dots":3.15,"target":"left","response":"left","rt":280.89999985695,"correct":true,"confidence":5},{"trial_n":177,"n_dots":3.05,"target":"right","response":"left","rt":203.5,"correct":false,"confidence":5},{"trial_n":178,"n_dots":3.15,"target":"left","response":"left","rt":205.90000009537,"correct":true,"confidence":5},{"trial_n":179,"n_dots":3.15,"target":"left","response":"left","rt":139.60000014305,"correct":true,"confidence":5},{"trial_n":180,"n_dots":3.05,"target":"right","response":"right","rt":528.20000004768,"correct":true,"confidence":2},{"trial_n":181,"n_dots":3.05,"target":"right","response":"right","rt":210.5,"correct":true,"confidence":5},{"trial_n":182,"n_dots":2.95,"target":"left","response":"left","rt":333.20000004768,"correct":true,"confidence":3},{"trial_n":183,"n_dots":2.95,"target":"right","response":"right","rt":220.40000009537,"correct":true,"confidence":5},{"trial_n":184,"n_dots":2.85,"target":"left","response":"left","rt":460.90000009537,"correct":true,"confidence":2},{"trial_n":185,"n_dots":2.85,"target":"right","response":"right","rt":110.70000004768,"correct":true,"confidence":4},{"trial_n":186,"n_dots":2.75,"target":"left","response":"left","rt":470,"correct":true,"confidence":4},{"trial_n":187,"n_dots":2.75,"target":"right","response":"right","rt":165.10000014305,"correct":true,"confidence":5},{"trial_n":188,"n_dots":2.65,"target":"left","response":"left","rt":520,"correct":true,"confidence":4},{"trial_n":189,"n_dots":2.65,"target":"right","response":"right","rt":203.89999985695,"correct":true,"confidence":4},{"trial_n":190,"n_dots":2.55,"target":"left","response":"right","rt":143.29999995232,"correct":false,"confidence":4},{"trial_n":191,"n_dots":2.65,"target":"right","response":"right","rt":295.89999985695,"correct":true,"confidence":4},{"trial_n":192,"n_dots":2.65,"target":"right","response":"right","rt":163.79999995232,"correct":true,"confidence":4},{"trial_n":193,"n_dots":2.55,"target":"right","response":"right","rt":193.59999990463,"correct":true,"confidence":5},{"trial_n":194,"n_dots":2.55,"target":"right","response":"left","rt":485.20000004768,"correct":false,"confidence":3}]