[{"trial_n":1,"n_dots":4.25,"target":"left","response":"left","rt":796.30000000075,"correct":true,"confidence":-1},{"trial_n":2,"n_dots":4.25,"target":"left","response":"left","rt":380.70000000112,"correct":true,"confidence":-1},{"trial_n":3,"n_dots":3.85,"target":"left","response":"left","rt":344.5,"correct":true,"confidence":-1},{"trial_n":4,"n_dots":3.85,"target":"left","response":"left","rt":434.59999999963,"correct":true,"confidence":-1},{"trial_n":5,"n_dots":3.45,"target":"right","response":"right","rt":394.40000000037,"correct":true,"confidence":-1},{"trial_n":6,"n_dots":3.45,"target":"left","response":"left","rt":328.69999999925,"correct":true,"confidence":-1},{"trial_n":7,"n_dots":3.05,"target":"left","response":"left","rt":326.70000000112,"correct":true,"confidence":-1},{"trial_n":8,"n_dots":3.05,"target":"right","response":"right","rt":274.90000000037,"correct":true,"confidence":-1},{"trial_n":9,"n_dots":2.85,"target":"right","response":"right","rt":366.89999999851,"correct":true,"confidence":-1},{"trial_n":10,"n_dots":2.85,"target":"left","response":"right","rt":312.70000000112,"correct":false,"confidence":-1},{"trial_n":11,"n_dots":3.05,"target":"left","response":"left","rt":490.90000000037,"correct":true,"confidence":-1},{"trial_n":12,"n_dots":3.05,"target":"right","response":"left","rt":399.90000000037,"correct":false,"confidence":-1},{"trial_n":13,"n_dots":3.15,"target":"right","response":"right","rt":284.79999999888,"correct":true,"confidence":-1},{"trial_n":14,"n_dots":3.15,"target":"right","response":"right","rt":307.70000000112,"correct":true,"confidence":-1},{"trial_n":15,"n_dots":3.05,"target":"left","response":"left","rt":402,"correct":true,"confidence":-1},{"trial_n":16,"n_dots":3.05,"target":"right","response":"left","rt":466,"correct":false,"confidence":-1},{"trial_n":17,"n_dots":3.15,"target":"right","response":"right","rt":358.30000000075,"correct":true,"confidence":-1},{"trial_n":18,"n_dots":3.15,"target":"left","response":"left","rt":194.80000000075,"correct":true,"confidence":-1},{"trial_n":19,"n_dots":3.05,"target":"left","response":"left","rt":186.19999999925,"correct":true,"confidence":-1},{"trial_n":20,"n_dots":3.05,"target":"left","response":"left","rt":326.40000000037,"correct":true,"confidence":-1},{"trial_n":21,"n_dots":2.95,"target":"right","response":"right","rt":443.59999999963,"correct":true,"confidence":-1},{"trial_n":22,"n_dots":2.95,"target":"left","response":"left","rt":584.09999999963,"correct":true,"confidence":-1},{"trial_n":23,"n_dots":2.85,"target":"right","response":"right","rt":453.19999999925,"correct":true,"confidence":-1},{"trial_n":24,"n_dots":2.85,"target":"left","response":"left","rt":152.40000000037,"correct":true,"confidence":-1},{"trial_n":25,"n_dots":2.75,"target":"left","response":"left","rt":592.19999999925,"correct":true,"confidence":-1},{"trial_n":26,"n_dots":2.75,"target":"left","response":"left","rt":338.59999999963,"correct":true,"confidence":-1},{"trial_n":27,"n_dots":2.65,"target":"right","response":"left","rt":375.59999999963,"correct":false,"confidence":4},{"trial_n":28,"n_dots":2.75,"target":"left","response":"left","rt":313.80000000075,"correct":true,"confidence":3},{"trial_n":29,"n_dots":2.75,"target":"right","response":"right","rt":369.90000000037,"correct":true,"confidence":5},{"trial_n":30,"n_dots":2.65,"target":"right","response":"left","rt":534.79999999888,"correct":false,"confidence":3},{"trial_n":31,"n_dots":2.75,"target":"right","response":"right","rt":295.90000000037,"correct":true,"confidence":5},{"trial_n":32,"n_dots":2.75,"target":"left","response":"left","rt":195.09999999963,"correct":true,"confidence":6},{"trial_n":33,"n_dots":2.65,"target":"right","response":"left","rt":396,"correct":false,"confidence":5},{"trial_n":34,"n_dots":2.75,"target":"right","response":"left","rt":421.69999999925,"correct":false,"confidence":5},{"trial_n":35,"n_dots":2.85,"target":"right","response":"left","rt":655.09999999963,"correct":false,"confidence":2},{"trial_n":36,"n_dots":2.95,"target":"left","response":"right","rt":518.09999999963,"correct":false,"confidence":4},{"trial_n":37,"n_dots":3.05,"target":"left","response":"left","rt":337.19999999925,"correct":true,"confidence":6},{"trial_n":38,"n_dots":3.05,"target":"left","response":"left","rt":558.20000000112,"correct":true,"confidence":5},{"trial_n":39,"n_dots":2.95,"target":"right","response":"left","rt":349.30000000075,"correct":false,"confidence":3},{"trial_n":40,"n_dots":3.05,"target":"left","response":"left","rt":357.09999999963,"correct":true,"confidence":6},{"trial_n":41,"n_dots":3.05,"target":"left","response":"left","rt":307.40000000037,"correct":true,"confidence":4},{"trial_n":42,"n_dots":2.95,"target":"left","response":"left","rt":516.39999999851,"correct":true,"confidence":5},{"trial_n":43,"n_dots":2.95,"target":"right","response":"right","rt":474.5,"correct":true,"confidence":4},{"trial_n":44,"n_dots":2.85,"target":"left","response":"right","rt":284.40000000037,"correct":false,"confidence":3},{"trial_n":45,"n_dots":2.95,"target":"left","response":"left","rt":319.5,"correct":true,"confidence":5},{"trial_n":46,"n_dots":2.95,"target":"left","response":"left","rt":403.40000000037,"correct":true,"confidence":6},{"trial_n":47,"n_dots":2.85,"target":"right","response":"right","rt":430.5,"correct":true,"confidence":5},{"trial_n":48,"n_dots":2.85,"target":"right","response":"right","rt":398.5,"correct":true,"confidence":5},{"trial_n":49,"n_dots":2.75,"target":"right","response":"left","rt":335.59999999963,"correct":false,"confidence":5},{"trial_n":50,"n_dots":2.85,"target":"left","response":"left","rt":702.80000000075,"correct":true,"confidence":6},{"trial_n":51,"n_dots":2.85,"target":"right","response":"right","rt":205.80000000075,"correct":true,"confidence":6},{"trial_n":52,"n_dots":2.75,"target":"left","response":"left","rt":288.89999999851,"correct":true,"confidence":6},{"trial_n":53,"n_dots":2.75,"target":"right","response":"right","rt":209.80000000075,"correct":true,"confidence":5},{"trial_n":54,"n_dots":2.65,"target":"right","response":"right","rt":307.90000000037,"correct":true,"confidence":3},{"trial_n":55,"n_dots":2.65,"target":"left","response":"left","rt":398.89999999851,"correct":true,"confidence":3},{"trial_n":56,"n_dots":2.55,"target":"left","response":"right","rt":360.80000000075,"correct":false,"confidence":5},{"trial_n":57,"n_dots":2.65,"target":"right","response":"left","rt":328.09999999963,"correct":false,"confidence":1},{"trial_n":58,"n_dots":2.75,"target":"left","response":"right","rt":457,"correct":false,"confidence":2},{"trial_n":59,"n_dots":2.85,"target":"right","response":"right","rt":310.09999999963,"correct":true,"confidence":6},{"trial_n":60,"n_dots":2.85,"target":"left","response":"left","rt":448.20000000112,"correct":true,"confidence":5},{"trial_n":61,"n_dots":2.75,"target":"left","response":"right","rt":688,"correct":false,"confidence":3},{"trial_n":62,"n_dots":2.85,"target":"left","response":"left","rt":446.29999999888,"correct":true,"confidence":5},{"trial_n":63,"n_dots":2.85,"target":"left","response":"right","rt":344.90000000037,"correct":false,"confidence":5},{"trial_n":64,"n_dots":2.95,"target":"left","response":"right","rt":355.29999999888,"correct":false,"confidence":5},{"trial_n":65,"n_dots":3.05,"target":"left","response":"left","rt":419.09999999963,"correct":true,"confidence":3},{"trial_n":66,"n_dots":3.05,"target":"left","response":"left","rt":266.40000000037,"correct":true,"confidence":5},{"trial_n":67,"n_dots":2.95,"target":"right","response":"right","rt":377.40000000037,"correct":true,"confidence":5},{"trial_n":68,"n_dots":2.95,"target":"right","response":"left","rt":502.30000000075,"correct":false,"confidence":3},{"trial_n":69,"n_dots":3.05,"target":"left","response":"left","rt":650.40000000037,"correct":true,"confidence":5},{"trial_n":70,"n_dots":3.05,"target":"left","response":"left","rt":205.5,"correct":true,"confidence":5},{"trial_n":71,"n_dots":2.95,"target":"left","response":"left","rt":370.5,"correct":true,"confidence":3},{"trial_n":72,"n_dots":2.95,"target":"left","response":"left","rt":456.79999999888,"correct":true,"confidence":2},{"trial_n":73,"n_dots":2.85,"target":"right","response":"right","rt":249.60000000149,"correct":true,"confidence":5},{"trial_n":74,"n_dots":2.85,"target":"right","response":"left","rt":345.80000000075,"correct":false,"confidence":4},{"trial_n":75,"n_dots":2.95,"target":"right","response":"right","rt":1402.7999999989,"correct":true,"confidence":1},{"trial_n":76,"n_dots":2.95,"target":"left","response":"right","rt":220.70000000112,"correct":false,"confidence":3},{"trial_n":77,"n_dots":3.05,"target":"right","response":"left","rt":215.69999999925,"correct":false,"confidence":2},{"trial_n":78,"n_dots":3.15,"target":"right","response":"right","rt":861,"correct":true,"confidence":5},{"trial_n":79,"n_dots":3.15,"target":"right","response":"right","rt":107.89999999851,"correct":true,"confidence":6},{"trial_n":80,"n_dots":3.05,"target":"left","response":"left","rt":93.5,"correct":true,"confidence":6},{"trial_n":81,"n_dots":3.05,"target":"right","response":"right","rt":172.80000000075,"correct":true,"confidence":4},{"trial_n":82,"n_dots":2.95,"target":"left","response":"left","rt":160.5,"correct":true,"confidence":5},{"trial_n":83,"n_dots":2.95,"target":"right","response":"right","rt":287.59999999963,"correct":true,"confidence":2},{"trial_n":84,"n_dots":2.85,"target":"right","response":"right","rt":215.59999999963,"correct":true,"confidence":5},{"trial_n":85,"n_dots":2.85,"target":"right","response":"right","rt":448.70000000112,"correct":true,"confidence":3},{"trial_n":86,"n_dots":2.75,"target":"right","response":"left","rt":321.69999999925,"correct":false,"confidence":5},{"trial_n":87,"n_dots":2.85,"target":"left","response":"left","rt":569.30000000075,"correct":true,"confidence":5},{"trial_n":88,"n_dots":2.85,"target":"right","response":"right","rt":152.80000000075,"correct":true,"confidence":4},{"trial_n":89,"n_dots":2.75,"target":"right","response":"left","rt":494.89999999851,"correct":false,"confidence":1},{"trial_n":90,"n_dots":2.85,"target":"left","response":"left","rt":235.90000000037,"correct":true,"confidence":6},{"trial_n":91,"n_dots":2.85,"target":"left","response":"left","rt":189.69999999925,"correct":true,"confidence":6},{"trial_n":92,"n_dots":2.75,"target":"left","response":"left","rt":516.89999999851,"correct":true,"confidence":3},{"trial_n":93,"n_dots":2.75,"target":"right","response":"right","rt":451.09999999963,"correct":true,"confidence":2},{"trial_n":94,"n_dots":2.65,"target":"right","response":"left","rt":79,"correct":false,"confidence":4},{"trial_n":95,"n_dots":2.75,"target":"left","response":"left","rt":537,"correct":true,"confidence":2},{"trial_n":96,"n_dots":2.75,"target":"right","response":"right","rt":396.09999999963,"correct":true,"confidence":3},{"trial_n":97,"n_dots":2.65,"target":"left","response":"left","rt":149.19999999925,"correct":true,"confidence":4},{"trial_n":98,"n_dots":2.65,"target":"right","response":"right","rt":403.09999999963,"correct":true,"confidence":3},{"trial_n":99,"n_dots":2.55,"target":"left","response":"left","rt":351.29999999888,"correct":true,"confidence":4},{"trial_n":100,"n_dots":2.55,"target":"left","response":"left","rt":140.30000000075,"correct":true,"confidence":5},{"trial_n":101,"n_dots":2.45,"target":"right","response":"left","rt":182.69999999925,"correct":false,"confidence":5},{"trial_n":102,"n_dots":2.55,"target":"left","response":"right","rt":337.5,"correct":false,"confidence":3},{"trial_n":103,"n_dots":2.65,"target":"right","response":"right","rt":314.5,"correct":true,"confidence":2},{"trial_n":104,"n_dots":2.65,"target":"left","response":"left","rt":926.40000000037,"correct":true,"confidence":2},{"trial_n":105,"n_dots":2.55,"target":"right","response":"right","rt":270.5,"correct":true,"confidence":5},{"trial_n":106,"n_dots":2.55,"target":"right","response":"left","rt":195.90000000037,"correct":false,"confidence":3},{"trial_n":107,"n_dots":2.65,"target":"right","response":"right","rt":305.80000000075,"correct":true,"confidence":3},{"trial_n":108,"n_dots":2.65,"target":"right","response":"left","rt":5.7999999988824,"correct":false,"confidence":5},{"trial_n":109,"n_dots":2.75,"target":"left","response":"left","rt":151,"correct":true,"confidence":6},{"trial_n":110,"n_dots":2.75,"target":"right","response":"right","rt":453.90000000037,"correct":true,"confidence":3},{"trial_n":111,"n_dots":2.65,"target":"right","response":"right","rt":416,"correct":true,"confidence":4},{"trial_n":112,"n_dots":2.65,"target":"left","response":"left","rt":1223.0999999996,"correct":true,"confidence":5},{"trial_n":113,"n_dots":2.55,"target":"right","response":"left","rt":209.19999999925,"correct":false,"confidence":2},{"trial_n":114,"n_dots":2.65,"target":"right","response":"right","rt":244.09999999963,"correct":true,"confidence":3},{"trial_n":115,"n_dots":2.65,"target":"right","response":"left","rt":304.39999999851,"correct":false,"confidence":3},{"trial_n":116,"n_dots":2.75,"target":"left","response":"left","rt":125,"correct":true,"confidence":5},{"trial_n":117,"n_dots":2.75,"target":"right","response":"right","rt":298.79999999888,"correct":true,"confidence":5},{"trial_n":118,"n_dots":2.65,"target":"right","response":"right","rt":255.70000000112,"correct":true,"confidence":3},{"trial_n":119,"n_dots":2.65,"target":"left","response":"left","rt":420.80000000075,"correct":true,"confidence":5},{"trial_n":120,"n_dots":2.55,"target":"left","response":"right","rt":6002.3000000007,"correct":false,"confidence":1},{"trial_n":121,"n_dots":2.65,"target":"right","response":"right","rt":575.20000000112,"correct":true,"confidence":3},{"trial_n":122,"n_dots":2.65,"target":"left","response":"left","rt":356,"correct":true,"confidence":6},{"trial_n":123,"n_dots":2.55,"target":"left","response":"left","rt":367.09999999963,"correct":true,"confidence":3},{"trial_n":124,"n_dots":2.55,"target":"right","response":"left","rt":490.89999999851,"correct":false,"confidence":4},{"trial_n":125,"n_dots":2.65,"target":"left","response":"left","rt":436.20000000112,"correct":true,"confidence":5},{"trial_n":126,"n_dots":2.65,"target":"right","response":"right","rt":211.19999999925,"correct":true,"confidence":3},{"trial_n":127,"n_dots":2.55,"target":"right","response":"right","rt":442.30000000075,"correct":true,"confidence":5},{"trial_n":128,"n_dots":2.55,"target":"left","response":"left","rt":997.5,"correct":true,"confidence":2},{"trial_n":129,"n_dots":2.45,"target":"left","response":"left","rt":520.19999999925,"correct":true,"confidence":3},{"trial_n":130,"n_dots":2.45,"target":"left","response":"left","rt":452.20000000112,"correct":true,"confidence":3},{"trial_n":131,"n_dots":2.35,"target":"left","response":"left","rt":302.60000000149,"correct":true,"confidence":5},{"trial_n":132,"n_dots":2.35,"target":"right","response":"right","rt":340.69999999925,"correct":true,"confidence":3},{"trial_n":133,"n_dots":2.25,"target":"left","response":"left","rt":413.69999999925,"correct":true,"confidence":5},{"trial_n":134,"n_dots":2.25,"target":"right","response":"left","rt":540.80000000075,"correct":false,"confidence":2},{"trial_n":135,"n_dots":2.35,"target":"left","response":"left","rt":20.799999998882,"correct":true,"confidence":5},{"trial_n":136,"n_dots":2.35,"target":"right","response":"left","rt":1117,"correct":false,"confidence":3},{"trial_n":137,"n_dots":2.45,"target":"right","response":"left","rt":258.79999999888,"correct":false,"confidence":4},{"trial_n":138,"n_dots":2.55,"target":"right","response":"right","rt":184.59999999963,"correct":true,"confidence":4},{"trial_n":139,"n_dots":2.55,"target":"right","response":"right","rt":295.90000000037,"correct":true,"confidence":3},{"trial_n":140,"n_dots":2.45,"target":"right","response":"left","rt":252.40000000037,"correct":false,"confidence":4},{"trial_n":141,"n_dots":2.55,"target":"right","response":"right","rt":337,"correct":true,"confidence":5},{"trial_n":142,"n_dots":2.55,"target":"left","response":"left","rt":377.20000000112,"correct":true,"confidence":5},{"trial_n":143,"n_dots":2.45,"target":"right","response":"right","rt":503.09999999963,"correct":true,"confidence":2},{"trial_n":144,"n_dots":2.45,"target":"left","response":"left","rt":331.90000000037,"correct":true,"confidence":5},{"trial_n":145,"n_dots":2.35,"target":"right","response":"right","rt":459.29999999888,"correct":true,"confidence":2},{"trial_n":146,"n_dots":2.35,"target":"right","response":"left","rt":152.29999999888,"correct":false,"confidence":5},{"trial_n":147,"n_dots":2.45,"target":"right","response":"left","rt":407.59999999963,"correct":false,"confidence":4},{"trial_n":148,"n_dots":2.55,"target":"left","response":"left","rt":379.40000000037,"correct":true,"confidence":5},{"trial_n":149,"n_dots":2.55,"target":"right","response":"right","rt":420.30000000075,"correct":true,"confidence":2},{"trial_n":150,"n_dots":2.45,"target":"left","response":"left","rt":298.20000000112,"correct":true,"confidence":4},{"trial_n":151,"n_dots":2.45,"target":"left","response":"left","rt":236.5,"correct":true,"confidence":5},{"trial_n":152,"n_dots":2.35,"target":"right","response":"left","rt":138.5,"correct":false,"confidence":4},{"trial_n":153,"n_dots":2.45,"target":"left","response":"left","rt":315.59999999963,"correct":true,"confidence":4},{"trial_n":154,"n_dots":2.45,"target":"left","response":"left","rt":119.69999999925,"correct":true,"confidence":5},{"trial_n":155,"n_dots":2.35,"target":"left","response":"left","rt":152.70000000112,"correct":true,"confidence":3},{"trial_n":156,"n_dots":2.35,"target":"left","response":"left","rt":92.599999999627,"correct":true,"confidence":5},{"trial_n":157,"n_dots":2.25,"target":"left","response":"left","rt":62.699999999255,"correct":true,"confidence":5},{"trial_n":158,"n_dots":2.25,"target":"left","response":"left","rt":386.80000000075,"correct":true,"confidence":2},{"trial_n":159,"n_dots":2.15,"target":"right","response":"left","rt":389.69999999925,"correct":false,"confidence":2},{"trial_n":160,"n_dots":2.25,"target":"left","response":"left","rt":129.69999999925,"correct":true,"confidence":4},{"trial_n":161,"n_dots":2.25,"target":"right","response":"right","rt":279.80000000075,"correct":true,"confidence":2},{"trial_n":162,"n_dots":2.15,"target":"right","response":"right","rt":437.69999999925,"correct":true,"confidence":1},{"trial_n":163,"n_dots":2.15,"target":"left","response":"right","rt":319.90000000037,"correct":false,"confidence":5},{"trial_n":164,"n_dots":2.25,"target":"right","response":"right","rt":505,"correct":true,"confidence":2},{"trial_n":165,"n_dots":2.25,"target":"left","response":"right","rt":220,"correct":false,"confidence":4},{"trial_n":166,"n_dots":2.35,"target":"left","response":"left","rt":334.70000000112,"correct":true,"confidence":5},{"trial_n":167,"n_dots":2.35,"target":"left","response":"left","rt":409,"correct":true,"confidence":3},{"trial_n":168,"n_dots":2.25,"target":"right","response":"left","rt":324.90000000037,"correct":false,"confidence":5},{"trial_n":169,"n_dots":2.35,"target":"right","response":"left","rt":154,"correct":false,"confidence":3},{"trial_n":170,"n_dots":2.45,"target":"right","response":"right","rt":287,"correct":true,"confidence":4},{"trial_n":171,"n_dots":2.45,"target":"left","response":"left","rt":74.199999999255,"correct":true,"confidence":6},{"trial_n":172,"n_dots":2.35,"target":"left","response":"left","rt":223.20000000112,"correct":true,"confidence":5},{"trial_n":173,"n_dots":2.35,"target":"left","response":"left","rt":212.30000000075,"correct":true,"confidence":4},{"trial_n":174,"n_dots":2.25,"target":"right","response":"right","rt":354.29999999888,"correct":true,"confidence":2},{"trial_n":175,"n_dots":2.25,"target":"right","response":"left","rt":261.5,"correct":false,"confidence":3},{"trial_n":176,"n_dots":2.35,"target":"left","response":"left","rt":250.40000000037,"correct":true,"confidence":2},{"trial_n":177,"n_dots":2.35,"target":"left","response":"left","rt":428.19999999925,"correct":true,"confidence":4},{"trial_n":178,"n_dots":2.25,"target":"right","response":"right","rt":513.20000000112,"correct":true,"confidence":2},{"trial_n":179,"n_dots":2.25,"target":"right","response":"left","rt":637.5,"correct":false,"confidence":4},{"trial_n":180,"n_dots":2.35,"target":"right","response":"right","rt":251.5,"correct":true,"confidence":5},{"trial_n":181,"n_dots":2.35,"target":"right","response":"right","rt":334.59999999963,"correct":true,"confidence":3},{"trial_n":182,"n_dots":2.25,"target":"left","response":"left","rt":492.59999999963,"correct":true,"confidence":4},{"trial_n":183,"n_dots":2.25,"target":"left","response":"left","rt":283.60000000149,"correct":true,"confidence":4},{"trial_n":184,"n_dots":2.15,"target":"right","response":"left","rt":141.69999999925,"correct":false,"confidence":2},{"trial_n":185,"n_dots":2.25,"target":"right","response":"right","rt":565.79999999888,"correct":true,"confidence":4},{"trial_n":186,"n_dots":2.25,"target":"left","response":"left","rt":347.59999999963,"correct":true,"confidence":3},{"trial_n":187,"n_dots":2.15,"target":"right","response":"left","rt":206.69999999925,"correct":false,"confidence":4},{"trial_n":188,"n_dots":2.25,"target":"right","response":"right","rt":406.80000000075,"correct":true,"confidence":3},{"trial_n":189,"n_dots":2.25,"target":"left","response":"left","rt":258.90000000037,"correct":true,"confidence":5},{"trial_n":190,"n_dots":2.15,"target":"right","response":"left","rt":408,"correct":false,"confidence":3},{"trial_n":191,"n_dots":2.25,"target":"right","response":"right","rt":50,"correct":true,"confidence":4},{"trial_n":192,"n_dots":2.25,"target":"left","response":"left","rt":189.40000000037,"correct":true,"confidence":3},{"trial_n":193,"n_dots":2.15,"target":"right","response":"right","rt":230.79999999888,"correct":true,"confidence":4},{"trial_n":194,"n_dots":2.15,"target":"left","response":"left","rt":106.59999999963,"correct":true,"confidence":3}]