[{"trial_n":1,"n_dots":4.25,"target":"right","response":"left","rt":3694.7999999523,"correct":false,"confidence":-1},{"trial_n":2,"n_dots":4.25,"target":"right","response":"left","rt":2137.9000000954,"correct":false,"confidence":-1},{"trial_n":3,"n_dots":4.65,"target":"left","response":"left","rt":496.5,"correct":true,"confidence":-1},{"trial_n":4,"n_dots":4.65,"target":"left","response":"left","rt":308.80000007153,"correct":true,"confidence":-1},{"trial_n":5,"n_dots":4.25,"target":"left","response":"left","rt":1207.5,"correct":true,"confidence":-1},{"trial_n":6,"n_dots":4.25,"target":"left","response":"left","rt":445,"correct":true,"confidence":-1},{"trial_n":7,"n_dots":3.85,"target":"right","response":"right","rt":506.10000002384,"correct":true,"confidence":-1},{"trial_n":8,"n_dots":3.85,"target":"left","response":"left","rt":711,"correct":true,"confidence":-1},{"trial_n":9,"n_dots":3.65,"target":"right","response":"right","rt":417,"correct":true,"confidence":-1},{"trial_n":10,"n_dots":3.65,"target":"right","response":"right","rt":510.69999992847,"correct":true,"confidence":-1},{"trial_n":11,"n_dots":3.45,"target":"left","response":"left","rt":446.19999992847,"correct":true,"confidence":-1},{"trial_n":12,"n_dots":3.45,"target":"left","response":"left","rt":428.5,"correct":true,"confidence":-1},{"trial_n":13,"n_dots":3.35,"target":"right","response":"left","rt":656.39999997616,"correct":false,"confidence":-1},{"trial_n":14,"n_dots":3.45,"target":"left","response":"right","rt":634.89999997616,"correct":false,"confidence":-1},{"trial_n":15,"n_dots":3.55,"target":"left","response":"left","rt":773.60000002384,"correct":true,"confidence":-1},{"trial_n":16,"n_dots":3.55,"target":"left","response":"left","rt":268.80000007153,"correct":true,"confidence":-1},{"trial_n":17,"n_dots":3.45,"target":"right","response":"left","rt":987.69999992847,"correct":false,"confidence":-1},{"trial_n":18,"n_dots":3.55,"target":"right","response":"left","rt":687.80000007153,"correct":false,"confidence":-1},{"trial_n":19,"n_dots":3.65,"target":"left","response":"left","rt":999.29999995232,"correct":true,"confidence":-1},{"trial_n":20,"n_dots":3.65,"target":"left","response":"left","rt":2185.7999999523,"correct":true,"confidence":-1},{"trial_n":21,"n_dots":3.55,"target":"right","response":"left","rt":2505.8999999762,"correct":false,"confidence":-1},{"trial_n":22,"n_dots":3.65,"target":"left","response":"left","rt":693.69999992847,"correct":true,"confidence":-1},{"trial_n":23,"n_dots":3.65,"target":"left","response":"left","rt":1223.4000000954,"correct":true,"confidence":-1},{"trial_n":24,"n_dots":3.55,"target":"left","response":"left","rt":710.39999997616,"correct":true,"confidence":-1},{"trial_n":25,"n_dots":3.55,"target":"left","response":"left","rt":723.39999997616,"correct":true,"confidence":-1},{"trial_n":26,"n_dots":3.45,"target":"left","response":"right","rt":669.39999997616,"correct":false,"confidence":-1},{"trial_n":27,"n_dots":3.55,"target":"right","response":"right","rt":472.60000002384,"correct":true,"confidence":6},{"trial_n":28,"n_dots":3.55,"target":"right","response":"right","rt":665.80000007153,"correct":true,"confidence":6},{"trial_n":29,"n_dots":3.45,"target":"left","response":"left","rt":648.5,"correct":true,"confidence":3},{"trial_n":30,"n_dots":3.45,"target":"left","response":"left","rt":705.60000002384,"correct":true,"confidence":1},{"trial_n":31,"n_dots":3.35,"target":"left","response":"right","rt":958.10000002384,"correct":false,"confidence":3},{"trial_n":32,"n_dots":3.45,"target":"left","response":"left","rt":711.10000002384,"correct":true,"confidence":5},{"trial_n":33,"n_dots":3.45,"target":"right","response":"right","rt":495.20000004768,"correct":true,"confidence":6},{"trial_n":34,"n_dots":3.35,"target":"left","response":"left","rt":557.60000002384,"correct":true,"confidence":3},{"trial_n":35,"n_dots":3.35,"target":"left","response":"left","rt":861.09999990463,"correct":true,"confidence":4},{"trial_n":36,"n_dots":3.25,"target":"right","response":"right","rt":658.60000002384,"correct":true,"confidence":4},{"trial_n":37,"n_dots":3.25,"target":"right","response":"right","rt":827.60000002384,"correct":true,"confidence":4},{"trial_n":38,"n_dots":3.15,"target":"right","response":"right","rt":521,"correct":true,"confidence":4},{"trial_n":39,"n_dots":3.15,"target":"right","response":"right","rt":1486.7999999523,"correct":true,"confidence":5},{"trial_n":40,"n_dots":3.05,"target":"left","response":"left","rt":527.60000002384,"correct":true,"confidence":6},{"trial_n":41,"n_dots":3.05,"target":"right","response":"right","rt":658,"correct":true,"confidence":6},{"trial_n":42,"n_dots":2.95,"target":"right","response":"left","rt":1378.1000000238,"correct":false,"confidence":4},{"trial_n":43,"n_dots":3.05,"target":"left","response":"left","rt":755.89999997616,"correct":true,"confidence":5},{"trial_n":44,"n_dots":3.05,"target":"left","response":"right","rt":534.80000007153,"correct":false,"confidence":4},{"trial_n":45,"n_dots":3.15,"target":"right","response":"right","rt":978.60000002384,"correct":true,"confidence":5},{"trial_n":46,"n_dots":3.15,"target":"right","response":"left","rt":407.5,"correct":false,"confidence":5},{"trial_n":47,"n_dots":3.25,"target":"right","response":"right","rt":855.09999990463,"correct":true,"confidence":2},{"trial_n":48,"n_dots":3.25,"target":"right","response":"left","rt":662.70000004768,"correct":false,"confidence":3},{"trial_n":49,"n_dots":3.35,"target":"right","response":"left","rt":465.10000002384,"correct":false,"confidence":4},{"trial_n":50,"n_dots":3.45,"target":"right","response":"left","rt":527,"correct":false,"confidence":5},{"trial_n":51,"n_dots":3.55,"target":"left","response":"left","rt":548.39999997616,"correct":true,"confidence":5},{"trial_n":52,"n_dots":3.55,"target":"right","response":"left","rt":1718.3000000715,"correct":false,"confidence":2},{"trial_n":53,"n_dots":3.65,"target":"left","response":"left","rt":524.70000004768,"correct":true,"confidence":4},{"trial_n":54,"n_dots":3.65,"target":"right","response":"right","rt":756.20000004768,"correct":true,"confidence":5},{"trial_n":55,"n_dots":3.55,"target":"right","response":"left","rt":1087.8999999762,"correct":false,"confidence":4},{"trial_n":56,"n_dots":3.65,"target":"right","response":"left","rt":545,"correct":false,"confidence":4},{"trial_n":57,"n_dots":3.75,"target":"left","response":"left","rt":348.60000002384,"correct":true,"confidence":4},{"trial_n":58,"n_dots":3.75,"target":"right","response":"right","rt":445.5,"correct":true,"confidence":5},{"trial_n":59,"n_dots":3.65,"target":"left","response":"left","rt":267,"correct":true,"confidence":4},{"trial_n":60,"n_dots":3.65,"target":"left","response":"left","rt":513.5,"correct":true,"confidence":4},{"trial_n":61,"n_dots":3.55,"target":"right","response":"right","rt":634.79999995232,"correct":true,"confidence":6},{"trial_n":62,"n_dots":3.55,"target":"right","response":"left","rt":418.30000007153,"correct":false,"confidence":4},{"trial_n":63,"n_dots":3.65,"target":"right","response":"right","rt":832.5,"correct":true,"confidence":6},{"trial_n":64,"n_dots":3.65,"target":"right","response":"right","rt":795.70000004768,"correct":true,"confidence":5},{"trial_n":65,"n_dots":3.55,"target":"left","response":"left","rt":58.799999952316,"correct":true,"confidence":4},{"trial_n":66,"n_dots":3.55,"target":"right","response":"right","rt":223.10000002384,"correct":true,"confidence":6},{"trial_n":67,"n_dots":3.45,"target":"right","response":"left","rt":638.10000002384,"correct":false,"confidence":3},{"trial_n":68,"n_dots":3.55,"target":"left","response":"left","rt":370.89999997616,"correct":true,"confidence":3},{"trial_n":69,"n_dots":3.55,"target":"left","response":"left","rt":508.80000007153,"correct":true,"confidence":4},{"trial_n":70,"n_dots":3.45,"target":"left","response":"left","rt":423.69999992847,"correct":true,"confidence":4},{"trial_n":71,"n_dots":3.45,"target":"right","response":"left","rt":565.70000004768,"correct":false,"confidence":4},{"trial_n":72,"n_dots":3.55,"target":"left","response":"left","rt":622.80000007153,"correct":true,"confidence":4},{"trial_n":73,"n_dots":3.55,"target":"right","response":"left","rt":834.30000007153,"correct":false,"confidence":2},{"trial_n":74,"n_dots":3.65,"target":"right","response":"left","rt":655.39999997616,"correct":false,"confidence":3},{"trial_n":75,"n_dots":3.75,"target":"right","response":"right","rt":620.10000002384,"correct":true,"confidence":4},{"trial_n":76,"n_dots":3.75,"target":"left","response":"left","rt":298.30000007153,"correct":true,"confidence":6},{"trial_n":77,"n_dots":3.65,"target":"left","response":"left","rt":22.799999952316,"correct":true,"confidence":6},{"trial_n":78,"n_dots":3.65,"target":"right","response":"right","rt":698.79999995232,"correct":true,"confidence":3},{"trial_n":79,"n_dots":3.55,"target":"left","response":"left","rt":266,"correct":true,"confidence":4},{"trial_n":80,"n_dots":3.55,"target":"left","response":"left","rt":637,"correct":true,"confidence":4},{"trial_n":81,"n_dots":3.45,"target":"left","response":"left","rt":216.60000002384,"correct":true,"confidence":4},{"trial_n":82,"n_dots":3.45,"target":"right","response":"right","rt":432,"correct":true,"confidence":5},{"trial_n":83,"n_dots":3.35,"target":"left","response":"left","rt":548.20000004768,"correct":true,"confidence":4},{"trial_n":84,"n_dots":3.35,"target":"left","response":"left","rt":605.39999997616,"correct":true,"confidence":4},{"trial_n":85,"n_dots":3.25,"target":"right","response":"left","rt":819.60000002384,"correct":false,"confidence":4},{"trial_n":86,"n_dots":3.35,"target":"right","response":"left","rt":805.89999997616,"correct":false,"confidence":4},{"trial_n":87,"n_dots":3.45,"target":"right","response":"left","rt":934.39999997616,"correct":false,"confidence":4},{"trial_n":88,"n_dots":3.55,"target":"right","response":"left","rt":482.20000004768,"correct":false,"confidence":4},{"trial_n":89,"n_dots":3.65,"target":"right","response":"left","rt":1237.1000000238,"correct":false,"confidence":4},{"trial_n":90,"n_dots":3.75,"target":"right","response":"left","rt":577,"correct":false,"confidence":3},{"trial_n":91,"n_dots":3.85,"target":"left","response":"left","rt":491.79999995232,"correct":true,"confidence":6},{"trial_n":92,"n_dots":3.85,"target":"right","response":"left","rt":538.70000004768,"correct":false,"confidence":3},{"trial_n":93,"n_dots":3.95,"target":"right","response":"right","rt":600.39999997616,"correct":true,"confidence":4},{"trial_n":94,"n_dots":3.95,"target":"left","response":"left","rt":737.10000002384,"correct":true,"confidence":4},{"trial_n":95,"n_dots":3.85,"target":"right","response":"right","rt":597.69999992847,"correct":true,"confidence":5},{"trial_n":96,"n_dots":3.85,"target":"left","response":"left","rt":715.5,"correct":true,"confidence":6},{"trial_n":97,"n_dots":3.75,"target":"right","response":"left","rt":1778.6999999285,"correct":false,"confidence":1},{"trial_n":98,"n_dots":3.85,"target":"left","response":"right","rt":986.5,"correct":false,"confidence":1},{"trial_n":99,"n_dots":3.95,"target":"left","response":"left","rt":434.79999995232,"correct":true,"confidence":5},{"trial_n":100,"n_dots":3.95,"target":"right","response":"right","rt":560.90000009537,"correct":true,"confidence":6},{"trial_n":101,"n_dots":3.85,"target":"right","response":"right","rt":356.09999990463,"correct":true,"confidence":5},{"trial_n":102,"n_dots":3.85,"target":"right","response":"right","rt":339.5,"correct":true,"confidence":5},{"trial_n":103,"n_dots":3.75,"target":"left","response":"left","rt":1004.3999999762,"correct":true,"confidence":5},{"trial_n":104,"n_dots":3.75,"target":"right","response":"right","rt":576.39999997616,"correct":true,"confidence":6},{"trial_n":105,"n_dots":3.65,"target":"right","response":"right","rt":1609.1000000238,"correct":true,"confidence":5},{"trial_n":106,"n_dots":3.65,"target":"left","response":"left","rt":467.30000007153,"correct":true,"confidence":4},{"trial_n":107,"n_dots":3.55,"target":"left","response":"left","rt":1937.5,"correct":true,"confidence":4},{"trial_n":108,"n_dots":3.55,"target":"right","response":"left","rt":721.60000002384,"correct":false,"confidence":4},{"trial_n":109,"n_dots":3.65,"target":"left","response":"left","rt":904,"correct":true,"confidence":3},{"trial_n":110,"n_dots":3.65,"target":"right","response":"right","rt":550.5,"correct":true,"confidence":3},{"trial_n":111,"n_dots":3.55,"target":"right","response":"left","rt":1210.2999999523,"correct":false,"confidence":1},{"trial_n":112,"n_dots":3.65,"target":"left","response":"left","rt":507.20000004768,"correct":true,"confidence":5},{"trial_n":113,"n_dots":3.65,"target":"left","response":"left","rt":361.39999997616,"correct":true,"confidence":5},{"trial_n":114,"n_dots":3.55,"target":"left","response":"left","rt":954.10000002384,"correct":true,"confidence":4},{"trial_n":115,"n_dots":3.55,"target":"right","response":"right","rt":456.89999997616,"correct":true,"confidence":6},{"trial_n":116,"n_dots":3.45,"target":"left","response":"left","rt":505.10000002384,"correct":true,"confidence":4},{"trial_n":117,"n_dots":3.45,"target":"right","response":"right","rt":1249,"correct":true,"confidence":2},{"trial_n":118,"n_dots":3.35,"target":"right","response":"right","rt":1103.7999999523,"correct":true,"confidence":2},{"trial_n":119,"n_dots":3.35,"target":"left","response":"left","rt":429.60000002384,"correct":true,"confidence":5},{"trial_n":120,"n_dots":3.25,"target":"right","response":"left","rt":849.40000009537,"correct":false,"confidence":1},{"trial_n":121,"n_dots":3.35,"target":"left","response":"left","rt":1492,"correct":true,"confidence":1},{"trial_n":122,"n_dots":3.35,"target":"left","response":"left","rt":400.39999997616,"correct":true,"confidence":5},{"trial_n":123,"n_dots":3.25,"target":"left","response":"left","rt":663.70000004768,"correct":true,"confidence":5},{"trial_n":124,"n_dots":3.25,"target":"right","response":"right","rt":534.5,"correct":true,"confidence":2},{"trial_n":125,"n_dots":3.15,"target":"left","response":"left","rt":555.79999995232,"correct":true,"confidence":5},{"trial_n":126,"n_dots":3.15,"target":"right","response":"right","rt":649.20000004768,"correct":true,"confidence":6},{"trial_n":127,"n_dots":3.05,"target":"right","response":"right","rt":626.5,"correct":true,"confidence":6},{"trial_n":128,"n_dots":3.05,"target":"left","response":"right","rt":1066.5,"correct":false,"confidence":3},{"trial_n":129,"n_dots":3.15,"target":"left","response":"right","rt":701.10000002384,"correct":false,"confidence":2},{"trial_n":130,"n_dots":3.25,"target":"left","response":"left","rt":925.5,"correct":true,"confidence":4},{"trial_n":131,"n_dots":3.25,"target":"right","response":"right","rt":561.30000007153,"correct":true,"confidence":4},{"trial_n":132,"n_dots":3.15,"target":"left","response":"left","rt":1560.1000000238,"correct":true,"confidence":4},{"trial_n":133,"n_dots":3.15,"target":"left","response":"left","rt":544.10000002384,"correct":true,"confidence":4},{"trial_n":134,"n_dots":3.05,"target":"left","response":"left","rt":1081.2999999523,"correct":true,"confidence":2},{"trial_n":135,"n_dots":3.05,"target":"right","response":"left","rt":544.79999995232,"correct":false,"confidence":3},{"trial_n":136,"n_dots":3.15,"target":"right","response":"right","rt":553.80000007153,"correct":true,"confidence":4},{"trial_n":137,"n_dots":3.15,"target":"left","response":"left","rt":654.5,"correct":true,"confidence":1},{"trial_n":138,"n_dots":3.05,"target":"left","response":"right","rt":841.30000007153,"correct":false,"confidence":3},{"trial_n":139,"n_dots":3.15,"target":"left","response":"right","rt":576.70000004768,"correct":false,"confidence":3},{"trial_n":140,"n_dots":3.25,"target":"right","response":"right","rt":414.79999995232,"correct":true,"confidence":6},{"trial_n":141,"n_dots":3.25,"target":"left","response":"left","rt":559.69999992847,"correct":true,"confidence":3},{"trial_n":142,"n_dots":3.15,"target":"left","response":"left","rt":931.60000002384,"correct":true,"confidence":3},{"trial_n":143,"n_dots":3.15,"target":"right","response":"right","rt":425.39999997616,"correct":true,"confidence":4},{"trial_n":144,"n_dots":3.05,"target":"left","response":"right","rt":578.59999990463,"correct":false,"confidence":4},{"trial_n":145,"n_dots":3.15,"target":"right","response":"right","rt":816.89999997616,"correct":true,"confidence":4},{"trial_n":146,"n_dots":3.15,"target":"right","response":"right","rt":357.29999995232,"correct":true,"confidence":4},{"trial_n":147,"n_dots":3.05,"target":"right","response":"right","rt":428.39999997616,"correct":true,"confidence":5},{"trial_n":148,"n_dots":3.05,"target":"left","response":"right","rt":882.69999992847,"correct":false,"confidence":2},{"trial_n":149,"n_dots":3.15,"target":"right","response":"right","rt":491.89999997616,"correct":true,"confidence":4},{"trial_n":150,"n_dots":3.15,"target":"right","response":"right","rt":485.39999997616,"correct":true,"confidence":6},{"trial_n":151,"n_dots":3.05,"target":"right","response":"right","rt":592.89999997616,"correct":true,"confidence":6},{"trial_n":152,"n_dots":3.05,"target":"left","response":"right","rt":408.60000002384,"correct":false,"confidence":6},{"trial_n":153,"n_dots":3.15,"target":"right","response":"left","rt":776.59999990463,"correct":false,"confidence":4},{"trial_n":154,"n_dots":3.25,"target":"right","response":"right","rt":538.39999997616,"correct":true,"confidence":3},{"trial_n":155,"n_dots":3.25,"target":"right","response":"left","rt":1672.6000000238,"correct":false,"confidence":2},{"trial_n":156,"n_dots":3.35,"target":"left","response":"left","rt":788.60000002384,"correct":true,"confidence":6},{"trial_n":157,"n_dots":3.35,"target":"left","response":"left","rt":1163.5,"correct":true,"confidence":2},{"trial_n":158,"n_dots":3.25,"target":"right","response":"right","rt":124.10000002384,"correct":true,"confidence":6},{"trial_n":159,"n_dots":3.25,"target":"right","response":"right","rt":481.5,"correct":true,"confidence":6},{"trial_n":160,"n_dots":3.15,"target":"left","response":"right","rt":1506.8000000715,"correct":false,"confidence":5},{"trial_n":161,"n_dots":3.25,"target":"right","response":"right","rt":642,"correct":true,"confidence":6},{"trial_n":162,"n_dots":3.25,"target":"right","response":"right","rt":1121.8999999762,"correct":true,"confidence":3},{"trial_n":163,"n_dots":3.15,"target":"left","response":"left","rt":564.30000007153,"correct":true,"confidence":4},{"trial_n":164,"n_dots":3.15,"target":"right","response":"right","rt":808.70000004768,"correct":true,"confidence":6},{"trial_n":165,"n_dots":3.05,"target":"right","response":"right","rt":760.5,"correct":true,"confidence":5},{"trial_n":166,"n_dots":3.05,"target":"left","response":"right","rt":481.20000004768,"correct":false,"confidence":6},{"trial_n":167,"n_dots":3.15,"target":"left","response":"left","rt":1258.3999999762,"correct":true,"confidence":3},{"trial_n":168,"n_dots":3.15,"target":"left","response":"left","rt":462.30000007153,"correct":true,"confidence":6},{"trial_n":169,"n_dots":3.05,"target":"left","response":"left","rt":936.10000002384,"correct":true,"confidence":3},{"trial_n":170,"n_dots":3.05,"target":"left","response":"left","rt":535.5,"correct":true,"confidence":3},{"trial_n":171,"n_dots":2.95,"target":"right","response":"right","rt":454,"correct":true,"confidence":5},{"trial_n":172,"n_dots":2.95,"target":"left","response":"left","rt":237.40000009537,"correct":true,"confidence":3},{"trial_n":173,"n_dots":2.85,"target":"left","response":"left","rt":181.79999995232,"correct":true,"confidence":3},{"trial_n":174,"n_dots":2.85,"target":"right","response":"right","rt":2320.1000000238,"correct":true,"confidence":4},{"trial_n":175,"n_dots":2.75,"target":"left","response":"left","rt":557.89999997616,"correct":true,"confidence":3},{"trial_n":176,"n_dots":2.75,"target":"left","response":"left","rt":930.10000002384,"correct":true,"confidence":3},{"trial_n":177,"n_dots":2.65,"target":"right","response":"left","rt":587.09999990463,"correct":false,"confidence":3},{"trial_n":178,"n_dots":2.75,"target":"right","response":"right","rt":999.79999995232,"correct":true,"confidence":5},{"trial_n":179,"n_dots":2.75,"target":"right","response":"right","rt":643.60000002384,"correct":true,"confidence":4},{"trial_n":180,"n_dots":2.65,"target":"right","response":"right","rt":458.79999995232,"correct":true,"confidence":4},{"trial_n":181,"n_dots":2.65,"target":"right","response":"right","rt":675,"correct":true,"confidence":4},{"trial_n":182,"n_dots":2.55,"target":"left","response":"right","rt":435.40000009537,"correct":false,"confidence":4},{"trial_n":183,"n_dots":2.65,"target":"left","response":"left","rt":411.5,"correct":true,"confidence":3},{"trial_n":184,"n_dots":2.65,"target":"left","response":"right","rt":337.79999995232,"correct":false,"confidence":6},{"trial_n":185,"n_dots":2.75,"target":"left","response":"right","rt":130.20000004768,"correct":false,"confidence":6},{"trial_n":186,"n_dots":2.85,"target":"left","response":"right","rt":3159.3999999762,"correct":false,"confidence":6},{"trial_n":187,"n_dots":2.95,"target":"right","response":"right","rt":299,"correct":true,"confidence":3},{"trial_n":188,"n_dots":2.95,"target":"left","response":"left","rt":546.29999995232,"correct":true,"confidence":3},{"trial_n":189,"n_dots":2.85,"target":"left","response":"left","rt":742.5,"correct":true,"confidence":3},{"trial_n":190,"n_dots":2.85,"target":"left","response":"left","rt":652.89999997616,"correct":true,"confidence":5},{"trial_n":191,"n_dots":2.75,"target":"left","response":"left","rt":593.69999992847,"correct":true,"confidence":4},{"trial_n":192,"n_dots":2.75,"target":"right","response":"right","rt":811.69999992847,"correct":true,"confidence":6},{"trial_n":193,"n_dots":2.65,"target":"right","response":"right","rt":646.80000007153,"correct":true,"confidence":6},{"trial_n":194,"n_dots":2.65,"target":"right","response":"right","rt":756.10000002384,"correct":true,"confidence":6}]