[{"trial_n":1,"n_dots":4.25,"target":"left","response":"left","rt":4068.5,"correct":true,"confidence":-1},{"trial_n":2,"n_dots":4.25,"target":"left","response":"left","rt":705.20000004768,"correct":true,"confidence":-1},{"trial_n":3,"n_dots":3.85,"target":"right","response":"left","rt":3130.3999999762,"correct":false,"confidence":-1},{"trial_n":4,"n_dots":4.25,"target":"left","response":"left","rt":439,"correct":true,"confidence":-1},{"trial_n":5,"n_dots":4.25,"target":"left","response":"left","rt":558.29999995232,"correct":true,"confidence":-1},{"trial_n":6,"n_dots":3.85,"target":"left","response":"left","rt":738.60000002384,"correct":true,"confidence":-1},{"trial_n":7,"n_dots":3.85,"target":"right","response":"left","rt":557.10000002384,"correct":false,"confidence":-1},{"trial_n":8,"n_dots":4.05,"target":"right","response":"right","rt":534.60000002384,"correct":true,"confidence":-1},{"trial_n":9,"n_dots":4.05,"target":"right","response":"left","rt":607.19999992847,"correct":false,"confidence":-1},{"trial_n":10,"n_dots":4.25,"target":"left","response":"left","rt":192,"correct":true,"confidence":-1},{"trial_n":11,"n_dots":4.25,"target":"right","response":"right","rt":223.5,"correct":true,"confidence":-1},{"trial_n":12,"n_dots":4.05,"target":"left","response":"left","rt":251.29999995232,"correct":true,"confidence":-1},{"trial_n":13,"n_dots":4.05,"target":"right","response":"right","rt":222.80000007153,"correct":true,"confidence":-1},{"trial_n":14,"n_dots":3.95,"target":"right","response":"right","rt":406.70000004768,"correct":true,"confidence":-1},{"trial_n":15,"n_dots":3.95,"target":"left","response":"left","rt":251.60000002384,"correct":true,"confidence":-1},{"trial_n":16,"n_dots":3.85,"target":"right","response":"right","rt":435,"correct":true,"confidence":-1},{"trial_n":17,"n_dots":3.85,"target":"right","response":"right","rt":543.79999995232,"correct":true,"confidence":-1},{"trial_n":18,"n_dots":3.75,"target":"left","response":"left","rt":448.10000002384,"correct":true,"confidence":-1},{"trial_n":19,"n_dots":3.75,"target":"left","response":"left","rt":238.19999992847,"correct":true,"confidence":-1},{"trial_n":20,"n_dots":3.65,"target":"left","response":"left","rt":239.20000004768,"correct":true,"confidence":-1},{"trial_n":21,"n_dots":3.65,"target":"right","response":"right","rt":165.89999997616,"correct":true,"confidence":-1},{"trial_n":22,"n_dots":3.55,"target":"left","response":"left","rt":175.10000002384,"correct":true,"confidence":-1},{"trial_n":23,"n_dots":3.55,"target":"right","response":"right","rt":9.6000000238419,"correct":true,"confidence":-1},{"trial_n":24,"n_dots":3.45,"target":"right","response":"left","rt":133.70000004768,"correct":false,"confidence":-1},{"trial_n":25,"n_dots":3.55,"target":"left","response":"right","rt":345.80000007153,"correct":false,"confidence":-1},{"trial_n":26,"n_dots":3.65,"target":"left","response":"left","rt":330.69999992847,"correct":true,"confidence":-1},{"trial_n":27,"n_dots":3.65,"target":"left","response":"left","rt":238.29999995232,"correct":true,"confidence":3},{"trial_n":28,"n_dots":3.55,"target":"left","response":"left","rt":236.69999992847,"correct":true,"confidence":3},{"trial_n":29,"n_dots":3.55,"target":"left","response":"left","rt":173.20000004768,"correct":true,"confidence":3},{"trial_n":30,"n_dots":3.45,"target":"left","response":"right","rt":395.89999997616,"correct":false,"confidence":3},{"trial_n":31,"n_dots":3.55,"target":"left","response":"left","rt":383,"correct":true,"confidence":1},{"trial_n":32,"n_dots":3.55,"target":"right","response":"left","rt":370.69999992847,"correct":false,"confidence":3},{"trial_n":33,"n_dots":3.65,"target":"right","response":"right","rt":245.5,"correct":true,"confidence":4},{"trial_n":34,"n_dots":3.65,"target":"left","response":"left","rt":300.59999990463,"correct":true,"confidence":3},{"trial_n":35,"n_dots":3.55,"target":"left","response":"right","rt":283.19999992847,"correct":false,"confidence":2},{"trial_n":36,"n_dots":3.65,"target":"right","response":"right","rt":289.29999995232,"correct":true,"confidence":2},{"trial_n":37,"n_dots":3.65,"target":"left","response":"left","rt":238.89999997616,"correct":true,"confidence":1},{"trial_n":38,"n_dots":3.55,"target":"right","response":"left","rt":391.70000004768,"correct":false,"confidence":5},{"trial_n":39,"n_dots":3.65,"target":"left","response":"left","rt":231.40000009537,"correct":true,"confidence":5},{"trial_n":40,"n_dots":3.65,"target":"right","response":"right","rt":288.80000007153,"correct":true,"confidence":2},{"trial_n":41,"n_dots":3.55,"target":"right","response":"right","rt":225.39999997616,"correct":true,"confidence":4},{"trial_n":42,"n_dots":3.55,"target":"left","response":"left","rt":289,"correct":true,"confidence":3},{"trial_n":43,"n_dots":3.45,"target":"right","response":"right","rt":473,"correct":true,"confidence":4},{"trial_n":44,"n_dots":3.45,"target":"left","response":"right","rt":9811.3999999762,"correct":false,"confidence":3},{"trial_n":45,"n_dots":3.55,"target":"left","response":"left","rt":254.70000004768,"correct":true,"confidence":5},{"trial_n":46,"n_dots":3.55,"target":"right","response":"left","rt":308.80000007153,"correct":false,"confidence":3},{"trial_n":47,"n_dots":3.65,"target":"right","response":"right","rt":323.70000004768,"correct":true,"confidence":2},{"trial_n":48,"n_dots":3.65,"target":"right","response":"right","rt":895.29999995232,"correct":true,"confidence":3},{"trial_n":49,"n_dots":3.55,"target":"left","response":"left","rt":261.10000002384,"correct":true,"confidence":6},{"trial_n":50,"n_dots":3.55,"target":"right","response":"right","rt":954.80000007153,"correct":true,"confidence":4},{"trial_n":51,"n_dots":3.45,"target":"left","response":"left","rt":1681.6999999285,"correct":true,"confidence":5},{"trial_n":52,"n_dots":3.45,"target":"right","response":"left","rt":252.5,"correct":false,"confidence":4},{"trial_n":53,"n_dots":3.55,"target":"right","response":"right","rt":2503.1000000238,"correct":true,"confidence":4},{"trial_n":54,"n_dots":3.55,"target":"left","response":"left","rt":240.39999997616,"correct":true,"confidence":5},{"trial_n":55,"n_dots":3.45,"target":"right","response":"left","rt":609.40000009537,"correct":false,"confidence":5},{"trial_n":56,"n_dots":3.55,"target":"left","response":"left","rt":338.30000007153,"correct":true,"confidence":4},{"trial_n":57,"n_dots":3.55,"target":"left","response":"right","rt":10955.699999928,"correct":false,"confidence":2},{"trial_n":58,"n_dots":3.65,"target":"left","response":"left","rt":471,"correct":true,"confidence":5},{"trial_n":59,"n_dots":3.65,"target":"left","response":"left","rt":463.5,"correct":true,"confidence":3},{"trial_n":60,"n_dots":3.55,"target":"left","response":"left","rt":254,"correct":true,"confidence":6},{"trial_n":61,"n_dots":3.55,"target":"left","response":"right","rt":8467.3000000715,"correct":false,"confidence":3},{"trial_n":62,"n_dots":3.65,"target":"right","response":"left","rt":1533.3000000715,"correct":false,"confidence":5},{"trial_n":63,"n_dots":3.75,"target":"left","response":"left","rt":880.70000004768,"correct":true,"confidence":2},{"trial_n":64,"n_dots":3.75,"target":"right","response":"left","rt":188.69999992847,"correct":false,"confidence":6},{"trial_n":65,"n_dots":3.85,"target":"right","response":"right","rt":825.5,"correct":true,"confidence":5},{"trial_n":66,"n_dots":3.85,"target":"right","response":"right","rt":743.39999997616,"correct":true,"confidence":3},{"trial_n":67,"n_dots":3.75,"target":"right","response":"right","rt":3601.6000000238,"correct":true,"confidence":3},{"trial_n":68,"n_dots":3.75,"target":"left","response":"left","rt":586.20000004768,"correct":true,"confidence":3},{"trial_n":69,"n_dots":3.65,"target":"right","response":"right","rt":1134.2000000477,"correct":true,"confidence":3},{"trial_n":70,"n_dots":3.65,"target":"left","response":"left","rt":17766.300000072,"correct":true,"confidence":3},{"trial_n":71,"n_dots":3.55,"target":"right","response":"left","rt":8275.8000000715,"correct":false,"confidence":6},{"trial_n":72,"n_dots":3.65,"target":"right","response":"right","rt":3082.2000000477,"correct":true,"confidence":3},{"trial_n":73,"n_dots":3.65,"target":"left","response":"left","rt":725,"correct":true,"confidence":4},{"trial_n":74,"n_dots":3.55,"target":"right","response":"right","rt":1174.1999999285,"correct":true,"confidence":4},{"trial_n":75,"n_dots":3.55,"target":"left","response":"right","rt":4424.8999999762,"correct":false,"confidence":3},{"trial_n":76,"n_dots":3.65,"target":"right","response":"left","rt":844.10000002384,"correct":false,"confidence":2},{"trial_n":77,"n_dots":3.75,"target":"left","response":"left","rt":9525.2000000477,"correct":true,"confidence":3},{"trial_n":78,"n_dots":3.75,"target":"right","response":"left","rt":582.5,"correct":false,"confidence":3},{"trial_n":79,"n_dots":3.85,"target":"left","response":"left","rt":508.19999992847,"correct":true,"confidence":2},{"trial_n":80,"n_dots":3.85,"target":"left","response":"left","rt":1812.1000000238,"correct":true,"confidence":2},{"trial_n":81,"n_dots":3.75,"target":"right","response":"right","rt":769.69999992847,"correct":true,"confidence":3},{"trial_n":82,"n_dots":3.75,"target":"right","response":"left","rt":645.79999995232,"correct":false,"confidence":3},{"trial_n":83,"n_dots":3.85,"target":"left","response":"left","rt":363.5,"correct":true,"confidence":3},{"trial_n":84,"n_dots":3.85,"target":"left","response":"left","rt":99,"correct":true,"confidence":3},{"trial_n":85,"n_dots":3.75,"target":"left","response":"left","rt":1119.1999999285,"correct":true,"confidence":4},{"trial_n":86,"n_dots":3.75,"target":"right","response":"left","rt":910.69999992847,"correct":false,"confidence":3},{"trial_n":87,"n_dots":3.85,"target":"left","response":"left","rt":287.10000002384,"correct":true,"confidence":3},{"trial_n":88,"n_dots":3.85,"target":"left","response":"left","rt":412.70000004768,"correct":true,"confidence":3},{"trial_n":89,"n_dots":3.75,"target":"left","response":"left","rt":1247.9000000954,"correct":true,"confidence":3},{"trial_n":90,"n_dots":3.75,"target":"left","response":"left","rt":422.89999997616,"correct":true,"confidence":3},{"trial_n":91,"n_dots":3.65,"target":"right","response":"left","rt":3198.1000000238,"correct":false,"confidence":3},{"trial_n":92,"n_dots":3.75,"target":"left","response":"left","rt":610.39999997616,"correct":true,"confidence":3},{"trial_n":93,"n_dots":3.75,"target":"right","response":"right","rt":541.89999997616,"correct":true,"confidence":3},{"trial_n":94,"n_dots":3.65,"target":"left","response":"left","rt":654.69999992847,"correct":true,"confidence":3},{"trial_n":95,"n_dots":3.65,"target":"left","response":"left","rt":577.40000009537,"correct":true,"confidence":3},{"trial_n":96,"n_dots":3.55,"target":"right","response":"left","rt":4249.7999999523,"correct":false,"confidence":4},{"trial_n":97,"n_dots":3.65,"target":"right","response":"left","rt":285.10000002384,"correct":false,"confidence":3},{"trial_n":98,"n_dots":3.75,"target":"right","response":"right","rt":1157.2000000477,"correct":true,"confidence":3},{"trial_n":99,"n_dots":3.75,"target":"left","response":"left","rt":632.29999995232,"correct":true,"confidence":4},{"trial_n":100,"n_dots":3.65,"target":"right","response":"right","rt":870,"correct":true,"confidence":3},{"trial_n":101,"n_dots":3.65,"target":"left","response":"left","rt":476.89999997616,"correct":true,"confidence":4},{"trial_n":102,"n_dots":3.55,"target":"left","response":"left","rt":485.70000004768,"correct":true,"confidence":4},{"trial_n":103,"n_dots":3.55,"target":"left","response":"left","rt":321,"correct":true,"confidence":5},{"trial_n":104,"n_dots":3.45,"target":"right","response":"right","rt":751.39999997616,"correct":true,"confidence":3},{"trial_n":105,"n_dots":3.45,"target":"left","response":"left","rt":312.60000002384,"correct":true,"confidence":3},{"trial_n":106,"n_dots":3.35,"target":"left","response":"left","rt":2644.7000000477,"correct":true,"confidence":3},{"trial_n":107,"n_dots":3.35,"target":"right","response":"right","rt":643.60000002384,"correct":true,"confidence":3},{"trial_n":108,"n_dots":3.25,"target":"right","response":"right","rt":1131.3999999762,"correct":true,"confidence":4},{"trial_n":109,"n_dots":3.25,"target":"right","response":"right","rt":658.39999997616,"correct":true,"confidence":4},{"trial_n":110,"n_dots":3.15,"target":"left","response":"left","rt":580.70000004768,"correct":true,"confidence":4},{"trial_n":111,"n_dots":3.15,"target":"left","response":"right","rt":706.60000002384,"correct":false,"confidence":4},{"trial_n":112,"n_dots":3.25,"target":"right","response":"left","rt":661.39999997616,"correct":false,"confidence":4},{"trial_n":113,"n_dots":3.35,"target":"right","response":"right","rt":544.70000004768,"correct":true,"confidence":4},{"trial_n":114,"n_dots":3.35,"target":"right","response":"right","rt":636.30000007153,"correct":true,"confidence":4},{"trial_n":115,"n_dots":3.25,"target":"left","response":"right","rt":641.10000002384,"correct":false,"confidence":4},{"trial_n":116,"n_dots":3.35,"target":"left","response":"left","rt":382.79999995232,"correct":true,"confidence":4},{"trial_n":117,"n_dots":3.35,"target":"right","response":"right","rt":428.10000002384,"correct":true,"confidence":4},{"trial_n":118,"n_dots":3.25,"target":"right","response":"right","rt":1141,"correct":true,"confidence":4},{"trial_n":119,"n_dots":3.25,"target":"left","response":"left","rt":464.60000002384,"correct":true,"confidence":4},{"trial_n":120,"n_dots":3.15,"target":"right","response":"right","rt":613.89999997616,"correct":true,"confidence":4},{"trial_n":121,"n_dots":3.15,"target":"right","response":"right","rt":1337.3999999762,"correct":true,"confidence":4},{"trial_n":122,"n_dots":3.05,"target":"right","response":"right","rt":439,"correct":true,"confidence":4},{"trial_n":123,"n_dots":3.05,"target":"left","response":"right","rt":651.79999995232,"correct":false,"confidence":4},{"trial_n":124,"n_dots":3.15,"target":"right","response":"right","rt":561.09999990463,"correct":true,"confidence":4},{"trial_n":125,"n_dots":3.15,"target":"left","response":"left","rt":1756.7000000477,"correct":true,"confidence":4},{"trial_n":126,"n_dots":3.05,"target":"left","response":"right","rt":1053.7000000477,"correct":false,"confidence":6},{"trial_n":127,"n_dots":3.15,"target":"left","response":"left","rt":583.10000002384,"correct":true,"confidence":3},{"trial_n":128,"n_dots":3.15,"target":"left","response":"right","rt":3017.7999999523,"correct":false,"confidence":4},{"trial_n":129,"n_dots":3.25,"target":"left","response":"left","rt":1992,"correct":true,"confidence":3},{"trial_n":130,"n_dots":3.25,"target":"left","response":"right","rt":648,"correct":false,"confidence":6},{"trial_n":131,"n_dots":3.35,"target":"right","response":"right","rt":1052.8000000715,"correct":true,"confidence":5},{"trial_n":132,"n_dots":3.35,"target":"right","response":"right","rt":756.20000004768,"correct":true,"confidence":6},{"trial_n":133,"n_dots":3.25,"target":"right","response":"right","rt":1256.6000000238,"correct":true,"confidence":6},{"trial_n":134,"n_dots":3.25,"target":"right","response":"right","rt":892.79999995232,"correct":true,"confidence":5},{"trial_n":135,"n_dots":3.15,"target":"right","response":"right","rt":952.10000002384,"correct":true,"confidence":6},{"trial_n":136,"n_dots":3.15,"target":"right","response":"right","rt":773,"correct":true,"confidence":6},{"trial_n":137,"n_dots":3.05,"target":"right","response":"right","rt":677.70000004768,"correct":true,"confidence":6},{"trial_n":138,"n_dots":3.05,"target":"right","response":"right","rt":891.5,"correct":true,"confidence":6},{"trial_n":139,"n_dots":2.95,"target":"left","response":"left","rt":705.20000004768,"correct":true,"confidence":4},{"trial_n":140,"n_dots":2.95,"target":"right","response":"right","rt":549.80000007153,"correct":true,"confidence":6},{"trial_n":141,"n_dots":2.85,"target":"left","response":"left","rt":670.79999995232,"correct":true,"confidence":6},{"trial_n":142,"n_dots":2.85,"target":"right","response":"right","rt":433.30000007153,"correct":true,"confidence":6},{"trial_n":143,"n_dots":2.75,"target":"right","response":"right","rt":1017.3999999762,"correct":true,"confidence":4},{"trial_n":144,"n_dots":2.75,"target":"right","response":"right","rt":1156.3999999762,"correct":true,"confidence":5},{"trial_n":145,"n_dots":2.65,"target":"right","response":"left","rt":509.29999995232,"correct":false,"confidence":5},{"trial_n":146,"n_dots":2.75,"target":"left","response":"right","rt":347.70000004768,"correct":false,"confidence":5},{"trial_n":147,"n_dots":2.85,"target":"left","response":"left","rt":732.79999995232,"correct":true,"confidence":5},{"trial_n":148,"n_dots":2.85,"target":"right","response":"right","rt":775.39999997616,"correct":true,"confidence":6},{"trial_n":149,"n_dots":2.75,"target":"left","response":"right","rt":533.40000009537,"correct":false,"confidence":4},{"trial_n":150,"n_dots":2.85,"target":"right","response":"right","rt":500.10000002384,"correct":true,"confidence":3},{"trial_n":151,"n_dots":2.85,"target":"left","response":"right","rt":418.39999997616,"correct":false,"confidence":6},{"trial_n":152,"n_dots":2.95,"target":"left","response":"left","rt":265.70000004768,"correct":true,"confidence":6},{"trial_n":153,"n_dots":2.95,"target":"right","response":"right","rt":507.59999990463,"correct":true,"confidence":6},{"trial_n":154,"n_dots":2.85,"target":"right","response":"right","rt":852.30000007153,"correct":true,"confidence":6},{"trial_n":155,"n_dots":2.85,"target":"left","response":"right","rt":840.39999997616,"correct":false,"confidence":4},{"trial_n":156,"n_dots":2.95,"target":"right","response":"right","rt":307.60000002384,"correct":true,"confidence":4},{"trial_n":157,"n_dots":2.95,"target":"right","response":"right","rt":341.60000002384,"correct":true,"confidence":6},{"trial_n":158,"n_dots":2.85,"target":"right","response":"right","rt":635.79999995232,"correct":true,"confidence":4},{"trial_n":159,"n_dots":2.85,"target":"right","response":"right","rt":612.70000004768,"correct":true,"confidence":5},{"trial_n":160,"n_dots":2.75,"target":"left","response":"right","rt":984.39999997616,"correct":false,"confidence":3},{"trial_n":161,"n_dots":2.85,"target":"right","response":"right","rt":372.60000002384,"correct":true,"confidence":5},{"trial_n":162,"n_dots":2.85,"target":"right","response":"right","rt":847.89999997616,"correct":true,"confidence":2},{"trial_n":163,"n_dots":2.75,"target":"right","response":"left","rt":787.39999997616,"correct":false,"confidence":1},{"trial_n":164,"n_dots":2.85,"target":"left","response":"left","rt":797.10000002384,"correct":true,"confidence":1},{"trial_n":165,"n_dots":2.85,"target":"left","response":"right","rt":605.30000007153,"correct":false,"confidence":4},{"trial_n":166,"n_dots":2.95,"target":"left","response":"left","rt":448.19999992847,"correct":true,"confidence":3},{"trial_n":167,"n_dots":2.95,"target":"right","response":"right","rt":338.69999992847,"correct":true,"confidence":5},{"trial_n":168,"n_dots":2.85,"target":"right","response":"right","rt":855,"correct":true,"confidence":5},{"trial_n":169,"n_dots":2.85,"target":"right","response":"right","rt":565,"correct":true,"confidence":6},{"trial_n":170,"n_dots":2.75,"target":"left","response":"right","rt":1133.6000000238,"correct":false,"confidence":6},{"trial_n":171,"n_dots":2.85,"target":"left","response":"left","rt":293.39999997616,"correct":true,"confidence":4},{"trial_n":172,"n_dots":2.85,"target":"left","response":"left","rt":508.60000002384,"correct":true,"confidence":5},{"trial_n":173,"n_dots":2.75,"target":"right","response":"right","rt":1483.5,"correct":true,"confidence":5},{"trial_n":174,"n_dots":2.75,"target":"left","response":"left","rt":954.70000004768,"correct":true,"confidence":4},{"trial_n":175,"n_dots":2.65,"target":"left","response":"left","rt":565.70000004768,"correct":true,"confidence":5},{"trial_n":176,"n_dots":2.65,"target":"left","response":"left","rt":591.89999997616,"correct":true,"confidence":5},{"trial_n":177,"n_dots":2.55,"target":"left","response":"left","rt":560.69999992847,"correct":true,"confidence":5},{"trial_n":178,"n_dots":2.55,"target":"left","response":"left","rt":428.89999997616,"correct":true,"confidence":5},{"trial_n":179,"n_dots":2.45,"target":"right","response":"right","rt":911.39999997616,"correct":true,"confidence":4},{"trial_n":180,"n_dots":2.45,"target":"left","response":"left","rt":613.30000007153,"correct":true,"confidence":6},{"trial_n":181,"n_dots":2.35,"target":"right","response":"right","rt":624.5,"correct":true,"confidence":4},{"trial_n":182,"n_dots":2.35,"target":"left","response":"left","rt":558.29999995232,"correct":true,"confidence":3},{"trial_n":183,"n_dots":2.25,"target":"right","response":"right","rt":1047.8999999762,"correct":true,"confidence":3},{"trial_n":184,"n_dots":2.25,"target":"left","response":"right","rt":649.19999992847,"correct":false,"confidence":6},{"trial_n":185,"n_dots":2.35,"target":"right","response":"right","rt":1141,"correct":true,"confidence":5},{"trial_n":186,"n_dots":2.35,"target":"right","response":"right","rt":1033.5999999046,"correct":true,"confidence":3},{"trial_n":187,"n_dots":2.25,"target":"right","response":"left","rt":458.69999992847,"correct":false,"confidence":3},{"trial_n":188,"n_dots":2.35,"target":"right","response":"left","rt":682.5,"correct":false,"confidence":6},{"trial_n":189,"n_dots":2.45,"target":"right","response":"right","rt":931,"correct":true,"confidence":4},{"trial_n":190,"n_dots":2.45,"target":"left","response":"right","rt":1279,"correct":false,"confidence":5},{"trial_n":191,"n_dots":2.55,"target":"right","response":"left","rt":861.39999997616,"correct":false,"confidence":4},{"trial_n":192,"n_dots":2.65,"target":"right","response":"right","rt":615.60000002384,"correct":true,"confidence":6},{"trial_n":193,"n_dots":2.65,"target":"left","response":"right","rt":1023.5,"correct":false,"confidence":4},{"trial_n":194,"n_dots":2.75,"target":"left","response":"left","rt":431.30000007153,"correct":true,"confidence":4}]