[{"trial_n":1,"n_dots":4.25,"target":"left","response":"left","rt":4427.8999999762,"correct":true,"confidence":-1},{"trial_n":2,"n_dots":4.25,"target":"right","response":"right","rt":1121.7999999523,"correct":true,"confidence":-1},{"trial_n":3,"n_dots":3.85,"target":"left","response":"left","rt":743,"correct":true,"confidence":-1},{"trial_n":4,"n_dots":3.85,"target":"left","response":"left","rt":554,"correct":true,"confidence":-1},{"trial_n":5,"n_dots":3.45,"target":"left","response":"right","rt":1377.8999999762,"correct":false,"confidence":-1},{"trial_n":6,"n_dots":3.85,"target":"left","response":"right","rt":630.79999995232,"correct":false,"confidence":-1},{"trial_n":7,"n_dots":4.25,"target":"left","response":"right","rt":935.09999990463,"correct":false,"confidence":-1},{"trial_n":8,"n_dots":4.45,"target":"left","response":"left","rt":555.80000007153,"correct":true,"confidence":-1},{"trial_n":9,"n_dots":4.45,"target":"left","response":"left","rt":688.60000002384,"correct":true,"confidence":-1},{"trial_n":10,"n_dots":4.25,"target":"left","response":"left","rt":1065.0999999046,"correct":true,"confidence":-1},{"trial_n":11,"n_dots":4.25,"target":"left","response":"right","rt":484.29999995232,"correct":false,"confidence":-1},{"trial_n":12,"n_dots":4.45,"target":"right","response":"right","rt":400.89999997616,"correct":true,"confidence":-1},{"trial_n":13,"n_dots":4.45,"target":"right","response":"right","rt":482.80000007153,"correct":true,"confidence":-1},{"trial_n":14,"n_dots":4.35,"target":"right","response":"right","rt":677,"correct":true,"confidence":-1},{"trial_n":15,"n_dots":4.35,"target":"right","response":"right","rt":527.39999997616,"correct":true,"confidence":-1},{"trial_n":16,"n_dots":4.25,"target":"right","response":"right","rt":590.90000009537,"correct":true,"confidence":-1},{"trial_n":17,"n_dots":4.25,"target":"right","response":"right","rt":514.69999992847,"correct":true,"confidence":-1},{"trial_n":18,"n_dots":4.15,"target":"left","response":"left","rt":560,"correct":true,"confidence":-1},{"trial_n":19,"n_dots":4.15,"target":"right","response":"right","rt":695.19999992847,"correct":true,"confidence":-1},{"trial_n":20,"n_dots":4.05,"target":"left","response":"left","rt":508.60000002384,"correct":true,"confidence":-1},{"trial_n":21,"n_dots":4.05,"target":"left","response":"left","rt":479,"correct":true,"confidence":-1},{"trial_n":22,"n_dots":3.95,"target":"right","response":"right","rt":1351.2000000477,"correct":true,"confidence":-1},{"trial_n":23,"n_dots":3.95,"target":"right","response":"right","rt":434,"correct":true,"confidence":-1},{"trial_n":24,"n_dots":3.85,"target":"left","response":"left","rt":516.20000004768,"correct":true,"confidence":-1},{"trial_n":25,"n_dots":3.85,"target":"right","response":"right","rt":392.20000004768,"correct":true,"confidence":-1},{"trial_n":26,"n_dots":3.75,"target":"left","response":"left","rt":406.19999992847,"correct":true,"confidence":-1},{"trial_n":27,"n_dots":3.75,"target":"right","response":"right","rt":690,"correct":true,"confidence":6},{"trial_n":28,"n_dots":3.65,"target":"left","response":"left","rt":716.79999995232,"correct":true,"confidence":6},{"trial_n":29,"n_dots":3.65,"target":"left","response":"right","rt":626,"correct":false,"confidence":2},{"trial_n":30,"n_dots":3.75,"target":"left","response":"left","rt":574.89999997616,"correct":true,"confidence":6},{"trial_n":31,"n_dots":3.75,"target":"right","response":"right","rt":421.39999997616,"correct":true,"confidence":6},{"trial_n":32,"n_dots":3.65,"target":"right","response":"right","rt":649.5,"correct":true,"confidence":5},{"trial_n":33,"n_dots":3.65,"target":"left","response":"left","rt":487.10000002384,"correct":true,"confidence":5},{"trial_n":34,"n_dots":3.55,"target":"left","response":"left","rt":522.40000009537,"correct":true,"confidence":6},{"trial_n":35,"n_dots":3.55,"target":"left","response":"left","rt":601,"correct":true,"confidence":6},{"trial_n":36,"n_dots":3.45,"target":"right","response":"right","rt":454.60000002384,"correct":true,"confidence":6},{"trial_n":37,"n_dots":3.45,"target":"left","response":"left","rt":924.19999992847,"correct":true,"confidence":6},{"trial_n":38,"n_dots":3.35,"target":"left","response":"left","rt":699,"correct":true,"confidence":6},{"trial_n":39,"n_dots":3.35,"target":"left","response":"left","rt":704,"correct":true,"confidence":6},{"trial_n":40,"n_dots":3.25,"target":"right","response":"right","rt":628.60000002384,"correct":true,"confidence":6},{"trial_n":41,"n_dots":3.25,"target":"left","response":"left","rt":636.89999997616,"correct":true,"confidence":6},{"trial_n":42,"n_dots":3.15,"target":"right","response":"right","rt":527.19999992847,"correct":true,"confidence":6},{"trial_n":43,"n_dots":3.15,"target":"right","response":"left","rt":667.5,"correct":false,"confidence":6},{"trial_n":44,"n_dots":3.25,"target":"left","response":"right","rt":641.70000004768,"correct":false,"confidence":6},{"trial_n":45,"n_dots":3.35,"target":"left","response":"left","rt":682,"correct":true,"confidence":6},{"trial_n":46,"n_dots":3.35,"target":"right","response":"right","rt":401.30000007153,"correct":true,"confidence":6},{"trial_n":47,"n_dots":3.25,"target":"right","response":"left","rt":1196.3999999762,"correct":false,"confidence":6},{"trial_n":48,"n_dots":3.35,"target":"left","response":"left","rt":443.20000004768,"correct":true,"confidence":6},{"trial_n":49,"n_dots":3.35,"target":"right","response":"right","rt":289.30000007153,"correct":true,"confidence":6},{"trial_n":50,"n_dots":3.25,"target":"left","response":"left","rt":578.5,"correct":true,"confidence":6},{"trial_n":51,"n_dots":3.25,"target":"right","response":"right","rt":485.5,"correct":true,"confidence":6},{"trial_n":52,"n_dots":3.15,"target":"left","response":"left","rt":582.90000009537,"correct":true,"confidence":6},{"trial_n":53,"n_dots":3.15,"target":"left","response":"left","rt":609.69999992847,"correct":true,"confidence":6},{"trial_n":54,"n_dots":3.05,"target":"left","response":"left","rt":656.59999990463,"correct":true,"confidence":6},{"trial_n":55,"n_dots":3.05,"target":"left","response":"left","rt":1134.8000000715,"correct":true,"confidence":5},{"trial_n":56,"n_dots":2.95,"target":"right","response":"right","rt":663.30000007153,"correct":true,"confidence":6},{"trial_n":57,"n_dots":2.95,"target":"right","response":"right","rt":529.80000007153,"correct":true,"confidence":6},{"trial_n":58,"n_dots":2.85,"target":"right","response":"right","rt":1763.5,"correct":true,"confidence":4},{"trial_n":59,"n_dots":2.85,"target":"left","response":"right","rt":775.30000007153,"correct":false,"confidence":6},{"trial_n":60,"n_dots":2.95,"target":"right","response":"left","rt":527.79999995232,"correct":false,"confidence":6},{"trial_n":61,"n_dots":3.05,"target":"left","response":"left","rt":787.10000002384,"correct":true,"confidence":6},{"trial_n":62,"n_dots":3.05,"target":"left","response":"right","rt":738.29999995232,"correct":false,"confidence":6},{"trial_n":63,"n_dots":3.15,"target":"left","response":"left","rt":659.29999995232,"correct":true,"confidence":6},{"trial_n":64,"n_dots":3.15,"target":"right","response":"right","rt":440.69999992847,"correct":true,"confidence":6},{"trial_n":65,"n_dots":3.05,"target":"right","response":"right","rt":790.39999997616,"correct":true,"confidence":6},{"trial_n":66,"n_dots":3.05,"target":"right","response":"right","rt":409.89999997616,"correct":true,"confidence":6},{"trial_n":67,"n_dots":2.95,"target":"left","response":"left","rt":515.39999997616,"correct":true,"confidence":6},{"trial_n":68,"n_dots":2.95,"target":"right","response":"right","rt":598.5,"correct":true,"confidence":6},{"trial_n":69,"n_dots":2.85,"target":"right","response":"right","rt":843.70000004768,"correct":true,"confidence":6},{"trial_n":70,"n_dots":2.85,"target":"right","response":"left","rt":1048.6000000238,"correct":false,"confidence":5},{"trial_n":71,"n_dots":2.95,"target":"left","response":"right","rt":2683.8000000715,"correct":false,"confidence":5},{"trial_n":72,"n_dots":3.05,"target":"right","response":"left","rt":606.60000002384,"correct":false,"confidence":6},{"trial_n":73,"n_dots":3.15,"target":"left","response":"right","rt":1626.3999999762,"correct":false,"confidence":6},{"trial_n":74,"n_dots":3.25,"target":"right","response":"right","rt":451.39999997616,"correct":true,"confidence":6},{"trial_n":75,"n_dots":3.25,"target":"right","response":"right","rt":485.5,"correct":true,"confidence":1},{"trial_n":76,"n_dots":3.15,"target":"right","response":"right","rt":1023.5,"correct":true,"confidence":6},{"trial_n":77,"n_dots":3.15,"target":"left","response":"left","rt":804.89999997616,"correct":true,"confidence":6},{"trial_n":78,"n_dots":3.05,"target":"left","response":"left","rt":870.69999992847,"correct":true,"confidence":6},{"trial_n":79,"n_dots":3.05,"target":"left","response":"left","rt":728.89999997616,"correct":true,"confidence":6},{"trial_n":80,"n_dots":2.95,"target":"left","response":"right","rt":503,"correct":false,"confidence":6},{"trial_n":81,"n_dots":3.05,"target":"left","response":"left","rt":647.60000002384,"correct":true,"confidence":6},{"trial_n":82,"n_dots":3.05,"target":"left","response":"left","rt":637.89999997616,"correct":true,"confidence":6},{"trial_n":83,"n_dots":2.95,"target":"right","response":"right","rt":565,"correct":true,"confidence":6},{"trial_n":84,"n_dots":2.95,"target":"right","response":"right","rt":590.39999997616,"correct":true,"confidence":6},{"trial_n":85,"n_dots":2.85,"target":"left","response":"left","rt":723.70000004768,"correct":true,"confidence":6},{"trial_n":86,"n_dots":2.85,"target":"left","response":"left","rt":585.09999990463,"correct":true,"confidence":6},{"trial_n":87,"n_dots":2.75,"target":"right","response":"right","rt":706.80000007153,"correct":true,"confidence":6},{"trial_n":88,"n_dots":2.75,"target":"left","response":"right","rt":1103.1000000238,"correct":false,"confidence":6},{"trial_n":89,"n_dots":2.85,"target":"right","response":"right","rt":731.10000002384,"correct":true,"confidence":6},{"trial_n":90,"n_dots":2.85,"target":"right","response":"right","rt":953.5,"correct":true,"confidence":6},{"trial_n":91,"n_dots":2.75,"target":"right","response":"right","rt":604.70000004768,"correct":true,"confidence":6},{"trial_n":92,"n_dots":2.75,"target":"right","response":"left","rt":602,"correct":false,"confidence":6},{"trial_n":93,"n_dots":2.85,"target":"left","response":"right","rt":644.5,"correct":false,"confidence":6},{"trial_n":94,"n_dots":2.95,"target":"right","response":"right","rt":552.40000009537,"correct":true,"confidence":6},{"trial_n":95,"n_dots":2.95,"target":"left","response":"right","rt":419.19999992847,"correct":false,"confidence":6},{"trial_n":96,"n_dots":3.05,"target":"right","response":"right","rt":526.70000004768,"correct":true,"confidence":6},{"trial_n":97,"n_dots":3.05,"target":"right","response":"right","rt":564,"correct":true,"confidence":6},{"trial_n":98,"n_dots":2.95,"target":"left","response":"right","rt":661.90000009537,"correct":false,"confidence":6},{"trial_n":99,"n_dots":3.05,"target":"right","response":"right","rt":686.5,"correct":true,"confidence":6},{"trial_n":100,"n_dots":3.05,"target":"right","response":"right","rt":861.69999992847,"correct":true,"confidence":6},{"trial_n":101,"n_dots":2.95,"target":"right","response":"left","rt":1352.6999999285,"correct":false,"confidence":6},{"trial_n":102,"n_dots":3.05,"target":"left","response":"left","rt":587.70000004768,"correct":true,"confidence":6},{"trial_n":103,"n_dots":3.05,"target":"right","response":"right","rt":503.40000009537,"correct":true,"confidence":6},{"trial_n":104,"n_dots":2.95,"target":"right","response":"right","rt":369.29999995232,"correct":true,"confidence":6},{"trial_n":105,"n_dots":2.95,"target":"left","response":"left","rt":620,"correct":true,"confidence":6},{"trial_n":106,"n_dots":2.85,"target":"right","response":"right","rt":440,"correct":true,"confidence":6},{"trial_n":107,"n_dots":2.85,"target":"right","response":"right","rt":580.89999997616,"correct":true,"confidence":6},{"trial_n":108,"n_dots":2.75,"target":"left","response":"left","rt":451.69999992847,"correct":true,"confidence":6},{"trial_n":109,"n_dots":2.75,"target":"left","response":"left","rt":445.10000002384,"correct":true,"confidence":6},{"trial_n":110,"n_dots":2.65,"target":"left","response":"right","rt":1155.3999999762,"correct":false,"confidence":6},{"trial_n":111,"n_dots":2.75,"target":"right","response":"right","rt":431.09999990463,"correct":true,"confidence":6},{"trial_n":112,"n_dots":2.75,"target":"right","response":"left","rt":593.90000009537,"correct":false,"confidence":6},{"trial_n":113,"n_dots":2.85,"target":"left","response":"left","rt":434.70000004768,"correct":true,"confidence":6},{"trial_n":114,"n_dots":2.85,"target":"right","response":"right","rt":518.10000002384,"correct":true,"confidence":6},{"trial_n":115,"n_dots":2.75,"target":"left","response":"left","rt":697.59999990463,"correct":true,"confidence":6},{"trial_n":116,"n_dots":2.75,"target":"left","response":"left","rt":860,"correct":true,"confidence":6},{"trial_n":117,"n_dots":2.65,"target":"left","response":"right","rt":725.80000007153,"correct":false,"confidence":6},{"trial_n":118,"n_dots":2.75,"target":"left","response":"right","rt":1029.8000000715,"correct":false,"confidence":6},{"trial_n":119,"n_dots":2.85,"target":"left","response":"left","rt":620.5,"correct":true,"confidence":6},{"trial_n":120,"n_dots":2.85,"target":"right","response":"right","rt":439.59999990463,"correct":true,"confidence":6},{"trial_n":121,"n_dots":2.75,"target":"left","response":"left","rt":524.20000004768,"correct":true,"confidence":6},{"trial_n":122,"n_dots":2.75,"target":"right","response":"right","rt":439.39999997616,"correct":true,"confidence":6},{"trial_n":123,"n_dots":2.65,"target":"left","response":"left","rt":1274.3999999762,"correct":true,"confidence":6},{"trial_n":124,"n_dots":2.65,"target":"left","response":"right","rt":580.40000009537,"correct":false,"confidence":6},{"trial_n":125,"n_dots":2.75,"target":"right","response":"right","rt":720.10000002384,"correct":true,"confidence":6},{"trial_n":126,"n_dots":2.75,"target":"left","response":"right","rt":722.19999992847,"correct":false,"confidence":6},{"trial_n":127,"n_dots":2.85,"target":"left","response":"left","rt":597.90000009537,"correct":true,"confidence":6},{"trial_n":128,"n_dots":2.85,"target":"left","response":"left","rt":1530.1000000238,"correct":true,"confidence":6},{"trial_n":129,"n_dots":2.75,"target":"right","response":"right","rt":316.59999990463,"correct":true,"confidence":6},{"trial_n":130,"n_dots":2.75,"target":"right","response":"left","rt":634.5,"correct":false,"confidence":6},{"trial_n":131,"n_dots":2.85,"target":"right","response":"left","rt":839.5,"correct":false,"confidence":6},{"trial_n":132,"n_dots":2.95,"target":"right","response":"right","rt":1375.6999999285,"correct":true,"confidence":6},{"trial_n":133,"n_dots":2.95,"target":"left","response":"left","rt":567.29999995232,"correct":true,"confidence":6},{"trial_n":134,"n_dots":2.85,"target":"right","response":"right","rt":1131.3999999762,"correct":true,"confidence":6},{"trial_n":135,"n_dots":2.85,"target":"left","response":"right","rt":861.29999995232,"correct":false,"confidence":6},{"trial_n":136,"n_dots":2.95,"target":"right","response":"left","rt":730.70000004768,"correct":false,"confidence":6},{"trial_n":137,"n_dots":3.05,"target":"left","response":"left","rt":781.69999992847,"correct":true,"confidence":6},{"trial_n":138,"n_dots":3.05,"target":"right","response":"right","rt":708.29999995232,"correct":true,"confidence":6},{"trial_n":139,"n_dots":2.95,"target":"right","response":"right","rt":769.79999995232,"correct":true,"confidence":6},{"trial_n":140,"n_dots":2.95,"target":"left","response":"left","rt":470.5,"correct":true,"confidence":6},{"trial_n":141,"n_dots":2.85,"target":"left","response":"left","rt":547.69999992847,"correct":true,"confidence":6},{"trial_n":142,"n_dots":2.85,"target":"right","response":"right","rt":793.79999995232,"correct":true,"confidence":6},{"trial_n":143,"n_dots":2.75,"target":"left","response":"left","rt":414.10000002384,"correct":true,"confidence":6},{"trial_n":144,"n_dots":2.75,"target":"left","response":"right","rt":1262.1999999285,"correct":false,"confidence":6},{"trial_n":145,"n_dots":2.85,"target":"right","response":"right","rt":485.69999992847,"correct":true,"confidence":6},{"trial_n":146,"n_dots":2.85,"target":"right","response":"left","rt":693.79999995232,"correct":false,"confidence":6},{"trial_n":147,"n_dots":2.95,"target":"left","response":"right","rt":1175.1000000238,"correct":false,"confidence":6},{"trial_n":148,"n_dots":3.05,"target":"right","response":"left","rt":747.30000007153,"correct":false,"confidence":6},{"trial_n":149,"n_dots":3.15,"target":"right","response":"left","rt":673.20000004768,"correct":false,"confidence":6},{"trial_n":150,"n_dots":3.25,"target":"right","response":"left","rt":333.70000004768,"correct":false,"confidence":6},{"trial_n":151,"n_dots":3.35,"target":"left","response":"left","rt":527.09999990463,"correct":true,"confidence":6},{"trial_n":152,"n_dots":3.35,"target":"left","response":"left","rt":647.69999992847,"correct":true,"confidence":6},{"trial_n":153,"n_dots":3.25,"target":"right","response":"right","rt":639.40000009537,"correct":true,"confidence":6},{"trial_n":154,"n_dots":3.25,"target":"right","response":"right","rt":1086.5,"correct":true,"confidence":6},{"trial_n":155,"n_dots":3.15,"target":"left","response":"left","rt":599.10000002384,"correct":true,"confidence":6},{"trial_n":156,"n_dots":3.15,"target":"right","response":"right","rt":328.89999997616,"correct":true,"confidence":6},{"trial_n":157,"n_dots":3.05,"target":"right","response":"right","rt":380,"correct":true,"confidence":6},{"trial_n":158,"n_dots":3.05,"target":"right","response":"right","rt":486.29999995232,"correct":true,"confidence":6},{"trial_n":159,"n_dots":2.95,"target":"left","response":"left","rt":394.70000004768,"correct":true,"confidence":6},{"trial_n":160,"n_dots":2.95,"target":"left","response":"left","rt":472.69999992847,"correct":true,"confidence":6},{"trial_n":161,"n_dots":2.85,"target":"right","response":"left","rt":918.10000002384,"correct":false,"confidence":6},{"trial_n":162,"n_dots":2.95,"target":"right","response":"left","rt":1066.3000000715,"correct":false,"confidence":6},{"trial_n":163,"n_dots":3.05,"target":"right","response":"left","rt":736.79999995232,"correct":false,"confidence":6},{"trial_n":164,"n_dots":3.15,"target":"right","response":"left","rt":706.89999997616,"correct":false,"confidence":6},{"trial_n":165,"n_dots":3.25,"target":"right","response":"right","rt":366.19999992847,"correct":true,"confidence":6},{"trial_n":166,"n_dots":3.25,"target":"right","response":"left","rt":551.89999997616,"correct":false,"confidence":6},{"trial_n":167,"n_dots":3.35,"target":"right","response":"right","rt":1030.2999999523,"correct":true,"confidence":6},{"trial_n":168,"n_dots":3.35,"target":"left","response":"left","rt":276.39999997616,"correct":true,"confidence":6},{"trial_n":169,"n_dots":3.25,"target":"right","response":"left","rt":950.40000009537,"correct":false,"confidence":6},{"trial_n":170,"n_dots":3.35,"target":"right","response":"right","rt":483.20000004768,"correct":true,"confidence":6},{"trial_n":171,"n_dots":3.35,"target":"right","response":"right","rt":592.60000002384,"correct":true,"confidence":6},{"trial_n":172,"n_dots":3.25,"target":"left","response":"left","rt":477,"correct":true,"confidence":6},{"trial_n":173,"n_dots":3.25,"target":"right","response":"right","rt":1372.1000000238,"correct":true,"confidence":6},{"trial_n":174,"n_dots":3.15,"target":"right","response":"left","rt":908.70000004768,"correct":false,"confidence":6},{"trial_n":175,"n_dots":3.25,"target":"right","response":"right","rt":565.59999990463,"correct":true,"confidence":6},{"trial_n":176,"n_dots":3.25,"target":"left","response":"left","rt":377.30000007153,"correct":true,"confidence":6},{"trial_n":177,"n_dots":3.15,"target":"left","response":"left","rt":453.80000007153,"correct":true,"confidence":6},{"trial_n":178,"n_dots":3.15,"target":"left","response":"right","rt":762.80000007153,"correct":false,"confidence":6},{"trial_n":179,"n_dots":3.25,"target":"left","response":"left","rt":533.79999995232,"correct":true,"confidence":6},{"trial_n":180,"n_dots":3.25,"target":"left","response":"left","rt":434.10000002384,"correct":true,"confidence":6},{"trial_n":181,"n_dots":3.15,"target":"right","response":"right","rt":336.89999997616,"correct":true,"confidence":6},{"trial_n":182,"n_dots":3.15,"target":"left","response":"left","rt":445,"correct":true,"confidence":6},{"trial_n":183,"n_dots":3.05,"target":"right","response":"right","rt":360.70000004768,"correct":true,"confidence":6},{"trial_n":184,"n_dots":3.05,"target":"right","response":"right","rt":747.79999995232,"correct":true,"confidence":6},{"trial_n":185,"n_dots":2.95,"target":"right","response":"right","rt":326.5,"correct":true,"confidence":6},{"trial_n":186,"n_dots":2.95,"target":"right","response":"left","rt":610.60000002384,"correct":false,"confidence":6},{"trial_n":187,"n_dots":3.05,"target":"left","response":"left","rt":590.70000004768,"correct":true,"confidence":6},{"trial_n":188,"n_dots":3.05,"target":"left","response":"left","rt":661.79999995232,"correct":true,"confidence":6},{"trial_n":189,"n_dots":2.95,"target":"right","response":"right","rt":284.5,"correct":true,"confidence":6},{"trial_n":190,"n_dots":2.95,"target":"left","response":"left","rt":326.89999997616,"correct":true,"confidence":6},{"trial_n":191,"n_dots":2.85,"target":"left","response":"left","rt":674.89999997616,"correct":true,"confidence":6},{"trial_n":192,"n_dots":2.85,"target":"left","response":"left","rt":996.30000007153,"correct":true,"confidence":6},{"trial_n":193,"n_dots":2.75,"target":"left","response":"left","rt":482.89999997616,"correct":true,"confidence":6},{"trial_n":194,"n_dots":2.75,"target":"left","response":"left","rt":398.80000007153,"correct":true,"confidence":6}]