[{"trial_n":1,"n_dots":4.25,"target":"left","response":"right","rt":6439,"correct":false,"confidence":-1},{"trial_n":2,"n_dots":4.25,"target":"left","response":"left","rt":756,"correct":true,"confidence":-1},{"trial_n":3,"n_dots":4.25,"target":"right","response":"right","rt":1994,"correct":true,"confidence":-1},{"trial_n":4,"n_dots":3.85,"target":"left","response":"right","rt":683,"correct":false,"confidence":-1},{"trial_n":5,"n_dots":4.25,"target":"left","response":"right","rt":1535,"correct":false,"confidence":-1},{"trial_n":6,"n_dots":4.65,"target":"left","response":"right","rt":855,"correct":false,"confidence":-1},{"trial_n":7,"n_dots":5.05,"target":"left","response":"left","rt":661,"correct":true,"confidence":-1},{"trial_n":8,"n_dots":5.05,"target":"left","response":"left","rt":617,"correct":true,"confidence":-1},{"trial_n":9,"n_dots":4.85,"target":"left","response":"left","rt":628,"correct":true,"confidence":-1},{"trial_n":10,"n_dots":4.85,"target":"right","response":"right","rt":700,"correct":true,"confidence":-1},{"trial_n":11,"n_dots":4.65,"target":"left","response":"left","rt":822.00000000006,"correct":true,"confidence":-1},{"trial_n":12,"n_dots":4.65,"target":"left","response":"left","rt":830,"correct":true,"confidence":-1},{"trial_n":13,"n_dots":4.55,"target":"right","response":"right","rt":661,"correct":true,"confidence":-1},{"trial_n":14,"n_dots":4.55,"target":"right","response":"right","rt":527,"correct":true,"confidence":-1},{"trial_n":15,"n_dots":4.45,"target":"right","response":"right","rt":750,"correct":true,"confidence":-1},{"trial_n":16,"n_dots":4.45,"target":"left","response":"left","rt":973,"correct":true,"confidence":-1},{"trial_n":17,"n_dots":4.35,"target":"left","response":"left","rt":801,"correct":true,"confidence":-1},{"trial_n":18,"n_dots":4.35,"target":"left","response":"left","rt":765.00000000006,"correct":true,"confidence":-1},{"trial_n":19,"n_dots":4.25,"target":"left","response":"left","rt":680,"correct":true,"confidence":-1},{"trial_n":20,"n_dots":4.25,"target":"left","response":"left","rt":792,"correct":true,"confidence":-1},{"trial_n":21,"n_dots":4.15,"target":"right","response":"right","rt":743,"correct":true,"confidence":-1},{"trial_n":22,"n_dots":4.15,"target":"right","response":"right","rt":624,"correct":true,"confidence":-1},{"trial_n":23,"n_dots":4.05,"target":"right","response":"right","rt":735,"correct":true,"confidence":-1},{"trial_n":24,"n_dots":4.05,"target":"left","response":"right","rt":830,"correct":false,"confidence":-1},{"trial_n":25,"n_dots":4.15,"target":"left","response":"left","rt":1014,"correct":true,"confidence":-1},{"trial_n":26,"n_dots":4.15,"target":"right","response":"right","rt":751,"correct":true,"confidence":-1},{"trial_n":27,"n_dots":4.05,"target":"right","response":"right","rt":642,"correct":true,"confidence":2},{"trial_n":28,"n_dots":4.05,"target":"right","response":"right","rt":635,"correct":true,"confidence":4},{"trial_n":29,"n_dots":3.95,"target":"right","response":"right","rt":559.00000000006,"correct":true,"confidence":4},{"trial_n":30,"n_dots":3.95,"target":"right","response":"right","rt":880,"correct":true,"confidence":3},{"trial_n":31,"n_dots":3.85,"target":"left","response":"left","rt":1138,"correct":true,"confidence":1},{"trial_n":32,"n_dots":3.85,"target":"left","response":"right","rt":686,"correct":false,"confidence":3},{"trial_n":33,"n_dots":3.95,"target":"left","response":"left","rt":908,"correct":true,"confidence":2},{"trial_n":34,"n_dots":3.95,"target":"right","response":"right","rt":677,"correct":true,"confidence":2},{"trial_n":35,"n_dots":3.85,"target":"right","response":"right","rt":668.00000000006,"correct":true,"confidence":3},{"trial_n":36,"n_dots":3.85,"target":"left","response":"left","rt":553.00000000006,"correct":true,"confidence":6},{"trial_n":37,"n_dots":3.75,"target":"left","response":"left","rt":561.00000000006,"correct":true,"confidence":6},{"trial_n":38,"n_dots":3.75,"target":"left","response":"left","rt":2190,"correct":true,"confidence":1},{"trial_n":39,"n_dots":3.65,"target":"right","response":"right","rt":790,"correct":true,"confidence":4},{"trial_n":40,"n_dots":3.65,"target":"left","response":"left","rt":577.99999999994,"correct":true,"confidence":6},{"trial_n":41,"n_dots":3.55,"target":"right","response":"right","rt":622,"correct":true,"confidence":3},{"trial_n":42,"n_dots":3.55,"target":"left","response":"left","rt":709,"correct":true,"confidence":5},{"trial_n":43,"n_dots":3.45,"target":"left","response":"left","rt":685,"correct":true,"confidence":5},{"trial_n":44,"n_dots":3.45,"target":"right","response":"right","rt":627.00000000006,"correct":true,"confidence":4},{"trial_n":45,"n_dots":3.35,"target":"right","response":"right","rt":734.00000000006,"correct":true,"confidence":4},{"trial_n":46,"n_dots":3.35,"target":"left","response":"left","rt":738,"correct":true,"confidence":4},{"trial_n":47,"n_dots":3.25,"target":"right","response":"right","rt":599,"correct":true,"confidence":3},{"trial_n":48,"n_dots":3.25,"target":"right","response":"left","rt":918,"correct":false,"confidence":2},{"trial_n":49,"n_dots":3.35,"target":"right","response":"right","rt":831.99999999994,"correct":true,"confidence":2},{"trial_n":50,"n_dots":3.35,"target":"left","response":"left","rt":1358,"correct":true,"confidence":2},{"trial_n":51,"n_dots":3.25,"target":"left","response":"right","rt":967.00000000012,"correct":false,"confidence":2},{"trial_n":52,"n_dots":3.35,"target":"right","response":"right","rt":1074.9999999999,"correct":true,"confidence":3},{"trial_n":53,"n_dots":3.35,"target":"right","response":"right","rt":3683,"correct":true,"confidence":2},{"trial_n":54,"n_dots":3.25,"target":"left","response":"left","rt":503,"correct":true,"confidence":4},{"trial_n":55,"n_dots":3.25,"target":"left","response":"right","rt":1319.9999999999,"correct":false,"confidence":1},{"trial_n":56,"n_dots":3.35,"target":"left","response":"left","rt":1708,"correct":true,"confidence":1},{"trial_n":57,"n_dots":3.35,"target":"right","response":"right","rt":1216,"correct":true,"confidence":2},{"trial_n":58,"n_dots":3.25,"target":"left","response":"right","rt":1272,"correct":false,"confidence":2},{"trial_n":59,"n_dots":3.35,"target":"left","response":"left","rt":642,"correct":true,"confidence":2},{"trial_n":60,"n_dots":3.35,"target":"left","response":"left","rt":723,"correct":true,"confidence":1},{"trial_n":61,"n_dots":3.25,"target":"left","response":"right","rt":715,"correct":false,"confidence":3},{"trial_n":62,"n_dots":3.35,"target":"right","response":"right","rt":765,"correct":true,"confidence":3},{"trial_n":63,"n_dots":3.35,"target":"right","response":"right","rt":585,"correct":true,"confidence":3},{"trial_n":64,"n_dots":3.25,"target":"right","response":"right","rt":718,"correct":true,"confidence":3},{"trial_n":65,"n_dots":3.25,"target":"left","response":"right","rt":1131.9999999999,"correct":false,"confidence":2},{"trial_n":66,"n_dots":3.35,"target":"right","response":"right","rt":1381,"correct":true,"confidence":2},{"trial_n":67,"n_dots":3.35,"target":"right","response":"right","rt":1383,"correct":true,"confidence":4},{"trial_n":68,"n_dots":3.25,"target":"left","response":"left","rt":515,"correct":true,"confidence":5},{"trial_n":69,"n_dots":3.25,"target":"left","response":"right","rt":1349,"correct":false,"confidence":2},{"trial_n":70,"n_dots":3.35,"target":"left","response":"left","rt":551.99999999988,"correct":true,"confidence":5},{"trial_n":71,"n_dots":3.35,"target":"right","response":"right","rt":508,"correct":true,"confidence":5},{"trial_n":72,"n_dots":3.25,"target":"right","response":"right","rt":806,"correct":true,"confidence":5},{"trial_n":73,"n_dots":3.25,"target":"right","response":"left","rt":535,"correct":false,"confidence":5},{"trial_n":74,"n_dots":3.35,"target":"left","response":"left","rt":524,"correct":true,"confidence":5},{"trial_n":75,"n_dots":3.35,"target":"left","response":"right","rt":1358.9999999999,"correct":false,"confidence":1},{"trial_n":76,"n_dots":3.45,"target":"left","response":"left","rt":494,"correct":true,"confidence":5},{"trial_n":77,"n_dots":3.45,"target":"right","response":"right","rt":478,"correct":true,"confidence":4},{"trial_n":78,"n_dots":3.35,"target":"left","response":"left","rt":260,"correct":true,"confidence":6},{"trial_n":79,"n_dots":3.35,"target":"right","response":"right","rt":581,"correct":true,"confidence":3},{"trial_n":80,"n_dots":3.25,"target":"left","response":"left","rt":759,"correct":true,"confidence":3},{"trial_n":81,"n_dots":3.25,"target":"right","response":"right","rt":608.00000000012,"correct":true,"confidence":2},{"trial_n":82,"n_dots":3.15,"target":"right","response":"right","rt":677,"correct":true,"confidence":2},{"trial_n":83,"n_dots":3.15,"target":"right","response":"left","rt":948,"correct":false,"confidence":3},{"trial_n":84,"n_dots":3.25,"target":"left","response":"right","rt":1916,"correct":false,"confidence":1},{"trial_n":85,"n_dots":3.35,"target":"left","response":"left","rt":1345,"correct":true,"confidence":1},{"trial_n":86,"n_dots":3.35,"target":"right","response":"right","rt":562,"correct":true,"confidence":3},{"trial_n":87,"n_dots":3.25,"target":"left","response":"left","rt":923.99999999988,"correct":true,"confidence":2},{"trial_n":88,"n_dots":3.25,"target":"left","response":"right","rt":1136,"correct":false,"confidence":1},{"trial_n":89,"n_dots":3.35,"target":"right","response":"right","rt":511,"correct":true,"confidence":4},{"trial_n":90,"n_dots":3.35,"target":"right","response":"right","rt":1038,"correct":true,"confidence":2},{"trial_n":91,"n_dots":3.25,"target":"right","response":"right","rt":575.00000000012,"correct":true,"confidence":3},{"trial_n":92,"n_dots":3.25,"target":"right","response":"right","rt":1311,"correct":true,"confidence":3},{"trial_n":93,"n_dots":3.15,"target":"left","response":"right","rt":593.99999999988,"correct":false,"confidence":3},{"trial_n":94,"n_dots":3.25,"target":"left","response":"left","rt":543,"correct":true,"confidence":5},{"trial_n":95,"n_dots":3.25,"target":"right","response":"right","rt":544,"correct":true,"confidence":5},{"trial_n":96,"n_dots":3.15,"target":"left","response":"left","rt":633,"correct":true,"confidence":4},{"trial_n":97,"n_dots":3.15,"target":"left","response":"left","rt":544,"correct":true,"confidence":4},{"trial_n":98,"n_dots":3.05,"target":"right","response":"left","rt":1130,"correct":false,"confidence":4},{"trial_n":99,"n_dots":3.15,"target":"right","response":"right","rt":544,"correct":true,"confidence":4},{"trial_n":100,"n_dots":3.15,"target":"left","response":"left","rt":513,"correct":true,"confidence":5},{"trial_n":101,"n_dots":3.05,"target":"right","response":"left","rt":779,"correct":false,"confidence":3},{"trial_n":102,"n_dots":3.15,"target":"left","response":"left","rt":690.00000000012,"correct":true,"confidence":4},{"trial_n":103,"n_dots":3.15,"target":"right","response":"right","rt":587,"correct":true,"confidence":3},{"trial_n":104,"n_dots":3.05,"target":"left","response":"left","rt":733,"correct":true,"confidence":4},{"trial_n":105,"n_dots":3.05,"target":"right","response":"left","rt":725,"correct":false,"confidence":3},{"trial_n":106,"n_dots":3.15,"target":"right","response":"right","rt":1347.9999999999,"correct":true,"confidence":3},{"trial_n":107,"n_dots":3.15,"target":"left","response":"left","rt":675,"correct":true,"confidence":4},{"trial_n":108,"n_dots":3.05,"target":"left","response":"left","rt":496,"correct":true,"confidence":5},{"trial_n":109,"n_dots":3.05,"target":"right","response":"right","rt":492.99999999988,"correct":true,"confidence":5},{"trial_n":110,"n_dots":2.95,"target":"left","response":"left","rt":920,"correct":true,"confidence":2},{"trial_n":111,"n_dots":2.95,"target":"right","response":"right","rt":775,"correct":true,"confidence":3},{"trial_n":112,"n_dots":2.85,"target":"left","response":"left","rt":691,"correct":true,"confidence":2},{"trial_n":113,"n_dots":2.85,"target":"left","response":"left","rt":1786,"correct":true,"confidence":1},{"trial_n":114,"n_dots":2.75,"target":"left","response":"right","rt":774,"correct":false,"confidence":1},{"trial_n":115,"n_dots":2.85,"target":"right","response":"right","rt":924,"correct":true,"confidence":4},{"trial_n":116,"n_dots":2.85,"target":"left","response":"left","rt":562,"correct":true,"confidence":6},{"trial_n":117,"n_dots":2.75,"target":"right","response":"right","rt":625,"correct":true,"confidence":5},{"trial_n":118,"n_dots":2.75,"target":"right","response":"left","rt":824,"correct":false,"confidence":4},{"trial_n":119,"n_dots":2.85,"target":"left","response":"left","rt":612,"correct":true,"confidence":4},{"trial_n":120,"n_dots":2.85,"target":"left","response":"left","rt":570.00000000012,"correct":true,"confidence":5},{"trial_n":121,"n_dots":2.75,"target":"left","response":"left","rt":518,"correct":true,"confidence":5},{"trial_n":122,"n_dots":2.75,"target":"right","response":"right","rt":741,"correct":true,"confidence":5},{"trial_n":123,"n_dots":2.65,"target":"right","response":"right","rt":858,"correct":true,"confidence":5},{"trial_n":124,"n_dots":2.65,"target":"right","response":"left","rt":929.00000000012,"correct":false,"confidence":2},{"trial_n":125,"n_dots":2.75,"target":"right","response":"left","rt":823,"correct":false,"confidence":3},{"trial_n":126,"n_dots":2.85,"target":"right","response":"right","rt":505,"correct":true,"confidence":5},{"trial_n":127,"n_dots":2.85,"target":"left","response":"left","rt":532.00000000012,"correct":true,"confidence":5},{"trial_n":128,"n_dots":2.75,"target":"right","response":"right","rt":1043.0000000001,"correct":true,"confidence":5},{"trial_n":129,"n_dots":2.75,"target":"left","response":"left","rt":1064.9999999999,"correct":true,"confidence":2},{"trial_n":130,"n_dots":2.65,"target":"left","response":"left","rt":555,"correct":true,"confidence":4},{"trial_n":131,"n_dots":2.65,"target":"right","response":"right","rt":429,"correct":true,"confidence":3},{"trial_n":132,"n_dots":2.55,"target":"left","response":"left","rt":469,"correct":true,"confidence":5},{"trial_n":133,"n_dots":2.55,"target":"right","response":"right","rt":1246.9999999999,"correct":true,"confidence":2},{"trial_n":134,"n_dots":2.45,"target":"left","response":"left","rt":478,"correct":true,"confidence":5},{"trial_n":135,"n_dots":2.45,"target":"left","response":"right","rt":1219,"correct":false,"confidence":1},{"trial_n":136,"n_dots":2.55,"target":"right","response":"right","rt":656,"correct":true,"confidence":4},{"trial_n":137,"n_dots":2.55,"target":"left","response":"left","rt":470,"correct":true,"confidence":5},{"trial_n":138,"n_dots":2.45,"target":"left","response":"left","rt":511,"correct":true,"confidence":5},{"trial_n":139,"n_dots":2.45,"target":"left","response":"right","rt":577.99999999988,"correct":false,"confidence":1},{"trial_n":140,"n_dots":2.55,"target":"left","response":"left","rt":970,"correct":true,"confidence":4},{"trial_n":141,"n_dots":2.55,"target":"right","response":"right","rt":728,"correct":true,"confidence":3},{"trial_n":142,"n_dots":2.45,"target":"left","response":"right","rt":720.00000000012,"correct":false,"confidence":2},{"trial_n":143,"n_dots":2.55,"target":"right","response":"left","rt":782.00000000012,"correct":false,"confidence":3},{"trial_n":144,"n_dots":2.65,"target":"right","response":"right","rt":682,"correct":true,"confidence":4},{"trial_n":145,"n_dots":2.65,"target":"left","response":"left","rt":735.00000000012,"correct":true,"confidence":4},{"trial_n":146,"n_dots":2.55,"target":"left","response":"right","rt":1023.0000000001,"correct":false,"confidence":2},{"trial_n":147,"n_dots":2.65,"target":"right","response":"right","rt":751,"correct":true,"confidence":2},{"trial_n":148,"n_dots":2.65,"target":"left","response":"right","rt":1191,"correct":false,"confidence":2},{"trial_n":149,"n_dots":2.75,"target":"right","response":"right","rt":869,"correct":true,"confidence":2},{"trial_n":150,"n_dots":2.75,"target":"right","response":"right","rt":981,"correct":true,"confidence":2},{"trial_n":151,"n_dots":2.65,"target":"left","response":"left","rt":843,"correct":true,"confidence":3},{"trial_n":152,"n_dots":2.65,"target":"left","response":"left","rt":805,"correct":true,"confidence":3},{"trial_n":153,"n_dots":2.55,"target":"right","response":"left","rt":696,"correct":false,"confidence":3},{"trial_n":154,"n_dots":2.65,"target":"left","response":"right","rt":1482,"correct":false,"confidence":1},{"trial_n":155,"n_dots":2.75,"target":"right","response":"right","rt":1066,"correct":true,"confidence":3},{"trial_n":156,"n_dots":2.75,"target":"right","response":"left","rt":815,"correct":false,"confidence":1},{"trial_n":157,"n_dots":2.85,"target":"right","response":"right","rt":279,"correct":true,"confidence":5},{"trial_n":158,"n_dots":2.85,"target":"right","response":"left","rt":486,"correct":false,"confidence":5},{"trial_n":159,"n_dots":2.95,"target":"left","response":"left","rt":450,"correct":true,"confidence":5},{"trial_n":160,"n_dots":2.95,"target":"left","response":"right","rt":990,"correct":false,"confidence":4},{"trial_n":161,"n_dots":3.05,"target":"left","response":"left","rt":409,"correct":true,"confidence":5},{"trial_n":162,"n_dots":3.05,"target":"right","response":"right","rt":681,"correct":true,"confidence":5},{"trial_n":163,"n_dots":2.95,"target":"right","response":"right","rt":660,"correct":true,"confidence":5},{"trial_n":164,"n_dots":2.95,"target":"right","response":"right","rt":1119,"correct":true,"confidence":3},{"trial_n":165,"n_dots":2.85,"target":"right","response":"right","rt":758.00000000023,"correct":true,"confidence":3},{"trial_n":166,"n_dots":2.85,"target":"right","response":"right","rt":1655,"correct":true,"confidence":4},{"trial_n":167,"n_dots":2.75,"target":"right","response":"right","rt":923,"correct":true,"confidence":3},{"trial_n":168,"n_dots":2.75,"target":"left","response":"left","rt":826,"correct":true,"confidence":4},{"trial_n":169,"n_dots":2.65,"target":"right","response":"right","rt":587,"correct":true,"confidence":4},{"trial_n":170,"n_dots":2.65,"target":"right","response":"right","rt":610,"correct":true,"confidence":3},{"trial_n":171,"n_dots":2.55,"target":"left","response":"left","rt":702,"correct":true,"confidence":5},{"trial_n":172,"n_dots":2.55,"target":"left","response":"right","rt":962,"correct":false,"confidence":4},{"trial_n":173,"n_dots":2.65,"target":"left","response":"right","rt":755.99999999977,"correct":false,"confidence":3},{"trial_n":174,"n_dots":2.75,"target":"right","response":"right","rt":530,"correct":true,"confidence":3},{"trial_n":175,"n_dots":2.75,"target":"right","response":"right","rt":532,"correct":true,"confidence":3},{"trial_n":176,"n_dots":2.65,"target":"right","response":"left","rt":1198,"correct":false,"confidence":4},{"trial_n":177,"n_dots":2.75,"target":"left","response":"left","rt":572.99999999977,"correct":true,"confidence":4},{"trial_n":178,"n_dots":2.75,"target":"left","response":"left","rt":582,"correct":true,"confidence":4},{"trial_n":179,"n_dots":2.65,"target":"right","response":"right","rt":454,"correct":true,"confidence":1},{"trial_n":180,"n_dots":2.65,"target":"right","response":"right","rt":674.99999999977,"correct":true,"confidence":1},{"trial_n":181,"n_dots":2.55,"target":"left","response":"left","rt":517,"correct":true,"confidence":3},{"trial_n":182,"n_dots":2.55,"target":"right","response":"right","rt":539,"correct":true,"confidence":5},{"trial_n":183,"n_dots":2.45,"target":"right","response":"left","rt":873,"correct":false,"confidence":5},{"trial_n":184,"n_dots":2.55,"target":"left","response":"left","rt":659.00000000023,"correct":true,"confidence":4},{"trial_n":185,"n_dots":2.55,"target":"right","response":"right","rt":419,"correct":true,"confidence":6},{"trial_n":186,"n_dots":2.45,"target":"right","response":"left","rt":966,"correct":false,"confidence":1},{"trial_n":187,"n_dots":2.55,"target":"right","response":"right","rt":446,"correct":true,"confidence":5},{"trial_n":188,"n_dots":2.55,"target":"left","response":"left","rt":600,"correct":true,"confidence":3},{"trial_n":189,"n_dots":2.45,"target":"right","response":"left","rt":848,"correct":false,"confidence":2},{"trial_n":190,"n_dots":2.55,"target":"right","response":"right","rt":995,"correct":true,"confidence":4},{"trial_n":191,"n_dots":2.55,"target":"left","response":"left","rt":453,"correct":true,"confidence":5},{"trial_n":192,"n_dots":2.45,"target":"right","response":"right","rt":795,"correct":true,"confidence":1},{"trial_n":193,"n_dots":2.45,"target":"right","response":"left","rt":1205,"correct":false,"confidence":3},{"trial_n":194,"n_dots":2.55,"target":"left","response":"right","rt":524,"correct":false,"confidence":4}]