[{"trial_n":1,"n_dots":4.25,"target":"left","response":"left","rt":4283,"correct":true,"confidence":-1},{"trial_n":2,"n_dots":4.25,"target":"right","response":"right","rt":3085,"correct":true,"confidence":-1},{"trial_n":3,"n_dots":3.85,"target":"left","response":"left","rt":2839.8000000119,"correct":true,"confidence":-1},{"trial_n":4,"n_dots":3.85,"target":"left","response":"left","rt":969,"correct":true,"confidence":-1},{"trial_n":5,"n_dots":3.45,"target":"left","response":"left","rt":950.60000000894,"correct":true,"confidence":-1},{"trial_n":6,"n_dots":3.45,"target":"left","response":"left","rt":869.30000001192,"correct":true,"confidence":-1},{"trial_n":7,"n_dots":3.05,"target":"right","response":"right","rt":540.90000000596,"correct":true,"confidence":-1},{"trial_n":8,"n_dots":3.05,"target":"right","response":"left","rt":768.20000000298,"correct":false,"confidence":-1},{"trial_n":9,"n_dots":3.25,"target":"left","response":"left","rt":526,"correct":true,"confidence":-1},{"trial_n":10,"n_dots":3.25,"target":"left","response":"left","rt":670.09999999404,"correct":true,"confidence":-1},{"trial_n":11,"n_dots":3.05,"target":"left","response":"right","rt":640.30000001192,"correct":false,"confidence":-1},{"trial_n":12,"n_dots":3.25,"target":"right","response":"right","rt":405.20000000298,"correct":true,"confidence":-1},{"trial_n":13,"n_dots":3.25,"target":"right","response":"left","rt":1124.900000006,"correct":false,"confidence":-1},{"trial_n":14,"n_dots":3.35,"target":"right","response":"right","rt":1501.799999997,"correct":true,"confidence":-1},{"trial_n":15,"n_dots":3.35,"target":"right","response":"right","rt":1146,"correct":true,"confidence":-1},{"trial_n":16,"n_dots":3.25,"target":"right","response":"left","rt":447.60000000894,"correct":false,"confidence":-1},{"trial_n":17,"n_dots":3.35,"target":"left","response":"left","rt":434.5,"correct":true,"confidence":-1},{"trial_n":18,"n_dots":3.35,"target":"right","response":"right","rt":716.10000000894,"correct":true,"confidence":-1},{"trial_n":19,"n_dots":3.25,"target":"right","response":"right","rt":737.60000000894,"correct":true,"confidence":-1},{"trial_n":20,"n_dots":3.25,"target":"left","response":"left","rt":417.79999999702,"correct":true,"confidence":-1},{"trial_n":21,"n_dots":3.15,"target":"right","response":"right","rt":447.60000000894,"correct":true,"confidence":-1},{"trial_n":22,"n_dots":3.15,"target":"right","response":"right","rt":166,"correct":true,"confidence":-1},{"trial_n":23,"n_dots":3.05,"target":"right","response":"left","rt":194.5,"correct":false,"confidence":-1},{"trial_n":24,"n_dots":3.15,"target":"right","response":"left","rt":537.60000000894,"correct":false,"confidence":-1},{"trial_n":25,"n_dots":3.25,"target":"left","response":"right","rt":467.80000001192,"correct":false,"confidence":-1},{"trial_n":26,"n_dots":3.35,"target":"right","response":"right","rt":301,"correct":true,"confidence":-1},{"trial_n":27,"n_dots":3.35,"target":"left","response":"right","rt":400.09999999404,"correct":false,"confidence":3},{"trial_n":28,"n_dots":3.45,"target":"right","response":"right","rt":451.20000000298,"correct":true,"confidence":5},{"trial_n":29,"n_dots":3.45,"target":"left","response":"right","rt":1686,"correct":false,"confidence":3},{"trial_n":30,"n_dots":3.55,"target":"left","response":"left","rt":537,"correct":true,"confidence":5},{"trial_n":31,"n_dots":3.55,"target":"right","response":"right","rt":349,"correct":true,"confidence":4},{"trial_n":32,"n_dots":3.45,"target":"right","response":"right","rt":489.70000000298,"correct":true,"confidence":5},{"trial_n":33,"n_dots":3.45,"target":"right","response":"left","rt":310,"correct":false,"confidence":3},{"trial_n":34,"n_dots":3.55,"target":"left","response":"right","rt":235.5,"correct":false,"confidence":4},{"trial_n":35,"n_dots":3.65,"target":"right","response":"right","rt":326.39999999106,"correct":true,"confidence":5},{"trial_n":36,"n_dots":3.65,"target":"left","response":"left","rt":462.5,"correct":true,"confidence":4},{"trial_n":37,"n_dots":3.55,"target":"left","response":"left","rt":699.40000000596,"correct":true,"confidence":4},{"trial_n":38,"n_dots":3.55,"target":"left","response":"left","rt":313.29999999702,"correct":true,"confidence":5},{"trial_n":39,"n_dots":3.45,"target":"right","response":"right","rt":473.59999999404,"correct":true,"confidence":4},{"trial_n":40,"n_dots":3.45,"target":"left","response":"left","rt":828,"correct":true,"confidence":1},{"trial_n":41,"n_dots":3.35,"target":"right","response":"right","rt":402.5,"correct":true,"confidence":4},{"trial_n":42,"n_dots":3.35,"target":"left","response":"left","rt":509.80000001192,"correct":true,"confidence":4},{"trial_n":43,"n_dots":3.25,"target":"right","response":"right","rt":934.80000001192,"correct":true,"confidence":3},{"trial_n":44,"n_dots":3.25,"target":"right","response":"right","rt":610.89999999106,"correct":true,"confidence":4},{"trial_n":45,"n_dots":3.15,"target":"right","response":"right","rt":364.59999999404,"correct":true,"confidence":4},{"trial_n":46,"n_dots":3.15,"target":"left","response":"left","rt":509,"correct":true,"confidence":4},{"trial_n":47,"n_dots":3.05,"target":"right","response":"right","rt":256.89999999106,"correct":true,"confidence":1},{"trial_n":48,"n_dots":3.05,"target":"left","response":"left","rt":393.40000000596,"correct":true,"confidence":4},{"trial_n":49,"n_dots":2.95,"target":"right","response":"right","rt":185.39999999106,"correct":true,"confidence":4},{"trial_n":50,"n_dots":2.95,"target":"left","response":"left","rt":343.40000000596,"correct":true,"confidence":5},{"trial_n":51,"n_dots":2.85,"target":"right","response":"right","rt":945.90000000596,"correct":true,"confidence":4},{"trial_n":52,"n_dots":2.85,"target":"right","response":"right","rt":366.5,"correct":true,"confidence":3},{"trial_n":53,"n_dots":2.75,"target":"left","response":"left","rt":658.90000000596,"correct":true,"confidence":4},{"trial_n":54,"n_dots":2.75,"target":"right","response":"right","rt":253.29999999702,"correct":true,"confidence":4},{"trial_n":55,"n_dots":2.65,"target":"left","response":"left","rt":217.09999999404,"correct":true,"confidence":4},{"trial_n":56,"n_dots":2.65,"target":"left","response":"left","rt":857.09999999404,"correct":true,"confidence":4},{"trial_n":57,"n_dots":2.55,"target":"right","response":"right","rt":935.5,"correct":true,"confidence":4},{"trial_n":58,"n_dots":2.55,"target":"left","response":"left","rt":439.69999998808,"correct":true,"confidence":4},{"trial_n":59,"n_dots":2.45,"target":"right","response":"left","rt":687.90000000596,"correct":false,"confidence":4},{"trial_n":60,"n_dots":2.55,"target":"left","response":"left","rt":1416.299999997,"correct":true,"confidence":3},{"trial_n":61,"n_dots":2.55,"target":"right","response":"left","rt":631.70000000298,"correct":false,"confidence":4},{"trial_n":62,"n_dots":2.65,"target":"right","response":"right","rt":450.09999999404,"correct":true,"confidence":4},{"trial_n":63,"n_dots":2.65,"target":"left","response":"right","rt":664,"correct":false,"confidence":3},{"trial_n":64,"n_dots":2.75,"target":"left","response":"left","rt":345.69999998808,"correct":true,"confidence":4},{"trial_n":65,"n_dots":2.75,"target":"left","response":"right","rt":473.09999999404,"correct":false,"confidence":4},{"trial_n":66,"n_dots":2.85,"target":"right","response":"left","rt":800.70000000298,"correct":false,"confidence":4},{"trial_n":67,"n_dots":2.95,"target":"left","response":"left","rt":549.40000000596,"correct":true,"confidence":4},{"trial_n":68,"n_dots":2.95,"target":"left","response":"left","rt":552.60000000894,"correct":true,"confidence":5},{"trial_n":69,"n_dots":2.85,"target":"right","response":"right","rt":910.70000000298,"correct":true,"confidence":3},{"trial_n":70,"n_dots":2.85,"target":"left","response":"left","rt":292.59999999404,"correct":true,"confidence":6},{"trial_n":71,"n_dots":2.75,"target":"right","response":"left","rt":393.5,"correct":false,"confidence":6},{"trial_n":72,"n_dots":2.85,"target":"right","response":"right","rt":372,"correct":true,"confidence":5},{"trial_n":73,"n_dots":2.85,"target":"left","response":"left","rt":379.70000000298,"correct":true,"confidence":6},{"trial_n":74,"n_dots":2.75,"target":"left","response":"left","rt":944.79999999702,"correct":true,"confidence":5},{"trial_n":75,"n_dots":2.75,"target":"left","response":"left","rt":306,"correct":true,"confidence":5},{"trial_n":76,"n_dots":2.65,"target":"left","response":"left","rt":744.70000000298,"correct":true,"confidence":5},{"trial_n":77,"n_dots":2.65,"target":"right","response":"right","rt":349.79999999702,"correct":true,"confidence":4},{"trial_n":78,"n_dots":2.55,"target":"right","response":"right","rt":1059.200000003,"correct":true,"confidence":4},{"trial_n":79,"n_dots":2.55,"target":"right","response":"right","rt":785.40000000596,"correct":true,"confidence":4},{"trial_n":80,"n_dots":2.45,"target":"right","response":"left","rt":47.09999999404,"correct":false,"confidence":4},{"trial_n":81,"n_dots":2.55,"target":"left","response":"left","rt":520,"correct":true,"confidence":5},{"trial_n":82,"n_dots":2.55,"target":"left","response":"left","rt":252.79999999702,"correct":true,"confidence":4},{"trial_n":83,"n_dots":2.45,"target":"right","response":"left","rt":175,"correct":false,"confidence":2},{"trial_n":84,"n_dots":2.55,"target":"left","response":"left","rt":679.29999999702,"correct":true,"confidence":3},{"trial_n":85,"n_dots":2.55,"target":"left","response":"left","rt":801.60000000894,"correct":true,"confidence":4},{"trial_n":86,"n_dots":2.45,"target":"left","response":"right","rt":223.70000000298,"correct":false,"confidence":4},{"trial_n":87,"n_dots":2.55,"target":"left","response":"right","rt":465.40000000596,"correct":false,"confidence":3},{"trial_n":88,"n_dots":2.65,"target":"left","response":"left","rt":251.89999999106,"correct":true,"confidence":5},{"trial_n":89,"n_dots":2.65,"target":"right","response":"right","rt":669,"correct":true,"confidence":5},{"trial_n":90,"n_dots":2.55,"target":"left","response":"left","rt":177.70000000298,"correct":true,"confidence":4},{"trial_n":91,"n_dots":2.55,"target":"right","response":"right","rt":819.60000000894,"correct":true,"confidence":4},{"trial_n":92,"n_dots":2.45,"target":"left","response":"left","rt":144.59999999404,"correct":true,"confidence":4},{"trial_n":93,"n_dots":2.45,"target":"right","response":"right","rt":1253,"correct":true,"confidence":4},{"trial_n":94,"n_dots":2.35,"target":"left","response":"right","rt":222.89999999106,"correct":false,"confidence":5},{"trial_n":95,"n_dots":2.45,"target":"right","response":"right","rt":324.70000000298,"correct":true,"confidence":4},{"trial_n":96,"n_dots":2.45,"target":"right","response":"right","rt":144.5,"correct":true,"confidence":5},{"trial_n":97,"n_dots":2.35,"target":"left","response":"right","rt":272.70000000298,"correct":false,"confidence":4},{"trial_n":98,"n_dots":2.45,"target":"left","response":"left","rt":193.10000000894,"correct":true,"confidence":4},{"trial_n":99,"n_dots":2.45,"target":"left","response":"left","rt":611.10000000894,"correct":true,"confidence":5},{"trial_n":100,"n_dots":2.35,"target":"left","response":"left","rt":425.10000000894,"correct":true,"confidence":4},{"trial_n":101,"n_dots":2.35,"target":"left","response":"right","rt":640.5,"correct":false,"confidence":4},{"trial_n":102,"n_dots":2.45,"target":"right","response":"left","rt":195.90000000596,"correct":false,"confidence":4},{"trial_n":103,"n_dots":2.55,"target":"left","response":"right","rt":117,"correct":false,"confidence":4},{"trial_n":104,"n_dots":2.65,"target":"left","response":"left","rt":174.40000000596,"correct":true,"confidence":5},{"trial_n":105,"n_dots":2.65,"target":"right","response":"left","rt":382.70000000298,"correct":false,"confidence":3},{"trial_n":106,"n_dots":2.75,"target":"left","response":"right","rt":176,"correct":false,"confidence":4},{"trial_n":107,"n_dots":2.85,"target":"right","response":"right","rt":123.79999999702,"correct":true,"confidence":5},{"trial_n":108,"n_dots":2.85,"target":"right","response":"left","rt":259.60000000894,"correct":false,"confidence":5},{"trial_n":109,"n_dots":2.95,"target":"right","response":"right","rt":244.60000000894,"correct":true,"confidence":4},{"trial_n":110,"n_dots":2.95,"target":"left","response":"left","rt":257.10000000894,"correct":true,"confidence":4},{"trial_n":111,"n_dots":2.85,"target":"left","response":"right","rt":194.79999999702,"correct":false,"confidence":2},{"trial_n":112,"n_dots":2.95,"target":"left","response":"left","rt":651.09999999404,"correct":true,"confidence":5},{"trial_n":113,"n_dots":2.95,"target":"left","response":"left","rt":343,"correct":true,"confidence":3},{"trial_n":114,"n_dots":2.85,"target":"left","response":"left","rt":356.79999999702,"correct":true,"confidence":4},{"trial_n":115,"n_dots":2.85,"target":"left","response":"right","rt":136,"correct":false,"confidence":5},{"trial_n":116,"n_dots":2.95,"target":"right","response":"left","rt":157.79999999702,"correct":false,"confidence":5},{"trial_n":117,"n_dots":3.05,"target":"right","response":"left","rt":726.79999999702,"correct":false,"confidence":3},{"trial_n":118,"n_dots":3.15,"target":"right","response":"right","rt":229.90000000596,"correct":true,"confidence":5},{"trial_n":119,"n_dots":3.15,"target":"right","response":"left","rt":321.69999998808,"correct":false,"confidence":3},{"trial_n":120,"n_dots":3.25,"target":"left","response":"left","rt":226.19999998808,"correct":true,"confidence":5},{"trial_n":121,"n_dots":3.25,"target":"right","response":"right","rt":403.10000000894,"correct":true,"confidence":5},{"trial_n":122,"n_dots":3.15,"target":"right","response":"left","rt":533.09999999404,"correct":false,"confidence":4},{"trial_n":123,"n_dots":3.25,"target":"left","response":"left","rt":479.29999999702,"correct":true,"confidence":5},{"trial_n":124,"n_dots":3.25,"target":"right","response":"right","rt":283.69999998808,"correct":true,"confidence":6},{"trial_n":125,"n_dots":3.15,"target":"right","response":"right","rt":36.5,"correct":true,"confidence":5},{"trial_n":126,"n_dots":3.15,"target":"right","response":"left","rt":117.70000000298,"correct":false,"confidence":5},{"trial_n":127,"n_dots":3.25,"target":"left","response":"left","rt":262.09999999404,"correct":true,"confidence":5},{"trial_n":128,"n_dots":3.25,"target":"right","response":"right","rt":161,"correct":true,"confidence":6},{"trial_n":129,"n_dots":3.15,"target":"left","response":"left","rt":143.40000000596,"correct":true,"confidence":6},{"trial_n":130,"n_dots":3.15,"target":"right","response":"right","rt":144.70000000298,"correct":true,"confidence":4},{"trial_n":131,"n_dots":3.05,"target":"right","response":"left","rt":316.39999999106,"correct":false,"confidence":6},{"trial_n":132,"n_dots":3.15,"target":"right","response":"right","rt":152.09999999404,"correct":true,"confidence":6},{"trial_n":133,"n_dots":3.15,"target":"right","response":"right","rt":58.20000000298,"correct":true,"confidence":4},{"trial_n":134,"n_dots":3.05,"target":"right","response":"left","rt":512.10000000894,"correct":false,"confidence":6},{"trial_n":135,"n_dots":3.15,"target":"left","response":"left","rt":330.40000000596,"correct":true,"confidence":4},{"trial_n":136,"n_dots":3.15,"target":"left","response":"left","rt":473.70000000298,"correct":true,"confidence":6},{"trial_n":137,"n_dots":3.05,"target":"left","response":"left","rt":235.09999999404,"correct":true,"confidence":6},{"trial_n":138,"n_dots":3.05,"target":"left","response":"left","rt":372.79999999702,"correct":true,"confidence":4},{"trial_n":139,"n_dots":2.95,"target":"right","response":"right","rt":92.09999999404,"correct":true,"confidence":6},{"trial_n":140,"n_dots":2.95,"target":"left","response":"left","rt":91,"correct":true,"confidence":6},{"trial_n":141,"n_dots":2.85,"target":"right","response":"right","rt":252.70000000298,"correct":true,"confidence":4},{"trial_n":142,"n_dots":2.85,"target":"right","response":"left","rt":203.29999999702,"correct":false,"confidence":6},{"trial_n":143,"n_dots":2.95,"target":"right","response":"right","rt":1155.5,"correct":true,"confidence":4},{"trial_n":144,"n_dots":2.95,"target":"right","response":"left","rt":692.5,"correct":false,"confidence":5},{"trial_n":145,"n_dots":3.05,"target":"right","response":"right","rt":1108.3999999911,"correct":true,"confidence":4},{"trial_n":146,"n_dots":3.05,"target":"right","response":"right","rt":106.90000000596,"correct":true,"confidence":5},{"trial_n":147,"n_dots":2.95,"target":"right","response":"right","rt":1086.1999999881,"correct":true,"confidence":5},{"trial_n":148,"n_dots":2.95,"target":"left","response":"left","rt":166.09999999404,"correct":true,"confidence":6},{"trial_n":149,"n_dots":2.85,"target":"left","response":"left","rt":267.29999999702,"correct":true,"confidence":6},{"trial_n":150,"n_dots":2.85,"target":"right","response":"right","rt":205.89999999106,"correct":true,"confidence":6},{"trial_n":151,"n_dots":2.75,"target":"left","response":"left","rt":155.5,"correct":true,"confidence":5},{"trial_n":152,"n_dots":2.75,"target":"left","response":"left","rt":372,"correct":true,"confidence":5},{"trial_n":153,"n_dots":2.65,"target":"left","response":"left","rt":339.29999999702,"correct":true,"confidence":6},{"trial_n":154,"n_dots":2.65,"target":"left","response":"left","rt":210.79999999702,"correct":true,"confidence":5},{"trial_n":155,"n_dots":2.55,"target":"left","response":"left","rt":195.20000000298,"correct":true,"confidence":5},{"trial_n":156,"n_dots":2.55,"target":"right","response":"right","rt":368.70000000298,"correct":true,"confidence":3},{"trial_n":157,"n_dots":2.45,"target":"left","response":"left","rt":116.70000000298,"correct":true,"confidence":6},{"trial_n":158,"n_dots":2.45,"target":"left","response":"left","rt":299.70000000298,"correct":true,"confidence":5},{"trial_n":159,"n_dots":2.35,"target":"right","response":"right","rt":256.89999999106,"correct":true,"confidence":5},{"trial_n":160,"n_dots":2.35,"target":"left","response":"left","rt":678.5,"correct":true,"confidence":5},{"trial_n":161,"n_dots":2.25,"target":"right","response":"right","rt":39.5,"correct":true,"confidence":6},{"trial_n":162,"n_dots":2.25,"target":"right","response":"left","rt":115.09999999404,"correct":false,"confidence":4},{"trial_n":163,"n_dots":2.35,"target":"left","response":"left","rt":781.09999999404,"correct":true,"confidence":5},{"trial_n":164,"n_dots":2.35,"target":"right","response":"right","rt":835.59999999404,"correct":true,"confidence":5},{"trial_n":165,"n_dots":2.25,"target":"right","response":"right","rt":95.59999999404,"correct":true,"confidence":5},{"trial_n":166,"n_dots":2.25,"target":"left","response":"left","rt":219.09999999404,"correct":true,"confidence":5},{"trial_n":167,"n_dots":2.15,"target":"right","response":"right","rt":38.199999988079,"correct":true,"confidence":3},{"trial_n":168,"n_dots":2.15,"target":"left","response":"left","rt":219.10000000894,"correct":true,"confidence":4},{"trial_n":169,"n_dots":2.05,"target":"left","response":"right","rt":134.59999999404,"correct":false,"confidence":6},{"trial_n":170,"n_dots":2.15,"target":"left","response":"left","rt":200.89999999106,"correct":true,"confidence":5},{"trial_n":171,"n_dots":2.15,"target":"left","response":"left","rt":657.40000000596,"correct":true,"confidence":5},{"trial_n":172,"n_dots":2.05,"target":"right","response":"left","rt":169.90000000596,"correct":false,"confidence":3},{"trial_n":173,"n_dots":2.15,"target":"left","response":"left","rt":761.5,"correct":true,"confidence":6},{"trial_n":174,"n_dots":2.15,"target":"right","response":"left","rt":202.70000000298,"correct":false,"confidence":5},{"trial_n":175,"n_dots":2.25,"target":"right","response":"right","rt":170.5,"correct":true,"confidence":5},{"trial_n":176,"n_dots":2.25,"target":"right","response":"left","rt":225.29999999702,"correct":false,"confidence":3},{"trial_n":177,"n_dots":2.35,"target":"right","response":"left","rt":227.59999999404,"correct":false,"confidence":6},{"trial_n":178,"n_dots":2.45,"target":"left","response":"left","rt":383.29999999702,"correct":true,"confidence":6},{"trial_n":179,"n_dots":2.45,"target":"left","response":"left","rt":62,"correct":true,"confidence":6},{"trial_n":180,"n_dots":2.35,"target":"right","response":"left","rt":140.09999999404,"correct":false,"confidence":4},{"trial_n":181,"n_dots":2.45,"target":"right","response":"left","rt":172,"correct":false,"confidence":5},{"trial_n":182,"n_dots":2.55,"target":"right","response":"right","rt":481.89999999106,"correct":true,"confidence":5},{"trial_n":183,"n_dots":2.55,"target":"left","response":"left","rt":113.5,"correct":true,"confidence":6},{"trial_n":184,"n_dots":2.45,"target":"right","response":"right","rt":433.5,"correct":true,"confidence":4},{"trial_n":185,"n_dots":2.45,"target":"left","response":"left","rt":282,"correct":true,"confidence":5},{"trial_n":186,"n_dots":2.35,"target":"left","response":"left","rt":311.5,"correct":true,"confidence":5},{"trial_n":187,"n_dots":2.35,"target":"right","response":"left","rt":88,"correct":false,"confidence":4},{"trial_n":188,"n_dots":2.45,"target":"left","response":"left","rt":233.90000000596,"correct":true,"confidence":5},{"trial_n":189,"n_dots":2.45,"target":"left","response":"left","rt":295.69999998808,"correct":true,"confidence":3},{"trial_n":190,"n_dots":2.35,"target":"right","response":"left","rt":231.90000000596,"correct":false,"confidence":5},{"trial_n":191,"n_dots":2.45,"target":"left","response":"left","rt":191.09999999404,"correct":true,"confidence":4},{"trial_n":192,"n_dots":2.45,"target":"left","response":"left","rt":231.29999999702,"correct":true,"confidence":6},{"trial_n":193,"n_dots":2.35,"target":"right","response":"right","rt":250.79999999702,"correct":true,"confidence":5},{"trial_n":194,"n_dots":2.35,"target":"right","response":"right","rt":583,"correct":true,"confidence":3}]