[{"trial_n":1,"n_dots":4.25,"target":"left","response":"left","rt":1645.6000000015,"correct":true,"confidence":-1},{"trial_n":2,"n_dots":4.25,"target":"left","response":"right","rt":1266.200000003,"correct":false,"confidence":-1},{"trial_n":3,"n_dots":4.65,"target":"left","response":"left","rt":757.80000000447,"correct":true,"confidence":-1},{"trial_n":4,"n_dots":4.65,"target":"left","response":"left","rt":686.79999999702,"correct":true,"confidence":-1},{"trial_n":5,"n_dots":4.25,"target":"right","response":"right","rt":737.09999999404,"correct":true,"confidence":-1},{"trial_n":6,"n_dots":4.25,"target":"left","response":"left","rt":594.39999999851,"correct":true,"confidence":-1},{"trial_n":7,"n_dots":3.85,"target":"left","response":"left","rt":871.70000000298,"correct":true,"confidence":-1},{"trial_n":8,"n_dots":3.85,"target":"right","response":"right","rt":645.70000000298,"correct":true,"confidence":-1},{"trial_n":9,"n_dots":3.65,"target":"left","response":"left","rt":685.79999999702,"correct":true,"confidence":-1},{"trial_n":10,"n_dots":3.65,"target":"left","response":"right","rt":929.10000000149,"correct":false,"confidence":-1},{"trial_n":11,"n_dots":3.85,"target":"right","response":"right","rt":637.80000000447,"correct":true,"confidence":-1},{"trial_n":12,"n_dots":3.85,"target":"right","response":"right","rt":795.89999999851,"correct":true,"confidence":-1},{"trial_n":13,"n_dots":3.75,"target":"right","response":"right","rt":723.40000000596,"correct":true,"confidence":-1},{"trial_n":14,"n_dots":3.75,"target":"right","response":"right","rt":861.20000000298,"correct":true,"confidence":-1},{"trial_n":15,"n_dots":3.65,"target":"right","response":"right","rt":788.69999999553,"correct":true,"confidence":-1},{"trial_n":16,"n_dots":3.65,"target":"right","response":"right","rt":1192.799999997,"correct":true,"confidence":-1},{"trial_n":17,"n_dots":3.55,"target":"left","response":"left","rt":1342.200000003,"correct":true,"confidence":-1},{"trial_n":18,"n_dots":3.55,"target":"right","response":"left","rt":2190.900000006,"correct":false,"confidence":-1},{"trial_n":19,"n_dots":3.65,"target":"left","response":"left","rt":688.5,"correct":true,"confidence":-1},{"trial_n":20,"n_dots":3.65,"target":"right","response":"left","rt":1904.1000000015,"correct":false,"confidence":-1},{"trial_n":21,"n_dots":3.75,"target":"left","response":"left","rt":757.39999999851,"correct":true,"confidence":-1},{"trial_n":22,"n_dots":3.75,"target":"left","response":"left","rt":693.20000000298,"correct":true,"confidence":-1},{"trial_n":23,"n_dots":3.65,"target":"left","response":"left","rt":639.19999999553,"correct":true,"confidence":-1},{"trial_n":24,"n_dots":3.65,"target":"right","response":"right","rt":865.89999999851,"correct":true,"confidence":-1},{"trial_n":25,"n_dots":3.55,"target":"right","response":"right","rt":1069.299999997,"correct":true,"confidence":-1},{"trial_n":26,"n_dots":3.55,"target":"left","response":"left","rt":784.60000000149,"correct":true,"confidence":-1},{"trial_n":27,"n_dots":3.45,"target":"left","response":"left","rt":712.39999999851,"correct":true,"confidence":5},{"trial_n":28,"n_dots":3.45,"target":"left","response":"left","rt":729.29999999702,"correct":true,"confidence":6},{"trial_n":29,"n_dots":3.35,"target":"right","response":"left","rt":812.5,"correct":false,"confidence":6},{"trial_n":30,"n_dots":3.45,"target":"right","response":"right","rt":971,"correct":true,"confidence":5},{"trial_n":31,"n_dots":3.45,"target":"left","response":"left","rt":849.10000000149,"correct":true,"confidence":6},{"trial_n":32,"n_dots":3.35,"target":"left","response":"left","rt":637.10000000149,"correct":true,"confidence":6},{"trial_n":33,"n_dots":3.35,"target":"right","response":"right","rt":741.29999999702,"correct":true,"confidence":6},{"trial_n":34,"n_dots":3.25,"target":"right","response":"right","rt":698.20000000298,"correct":true,"confidence":6},{"trial_n":35,"n_dots":3.25,"target":"left","response":"left","rt":627.79999999702,"correct":true,"confidence":6},{"trial_n":36,"n_dots":3.15,"target":"right","response":"left","rt":2025.099999994,"correct":false,"confidence":5},{"trial_n":37,"n_dots":3.25,"target":"left","response":"right","rt":1243.1000000015,"correct":false,"confidence":5},{"trial_n":38,"n_dots":3.35,"target":"left","response":"left","rt":621,"correct":true,"confidence":6},{"trial_n":39,"n_dots":3.35,"target":"left","response":"left","rt":594.09999999404,"correct":true,"confidence":6},{"trial_n":40,"n_dots":3.25,"target":"left","response":"right","rt":644.19999999553,"correct":false,"confidence":6},{"trial_n":41,"n_dots":3.35,"target":"left","response":"left","rt":726.90000000596,"correct":true,"confidence":6},{"trial_n":42,"n_dots":3.35,"target":"right","response":"right","rt":820.89999999851,"correct":true,"confidence":6},{"trial_n":43,"n_dots":3.25,"target":"right","response":"right","rt":708,"correct":true,"confidence":6},{"trial_n":44,"n_dots":3.25,"target":"right","response":"right","rt":721.19999999553,"correct":true,"confidence":6},{"trial_n":45,"n_dots":3.15,"target":"right","response":"right","rt":1061.8000000045,"correct":true,"confidence":6},{"trial_n":46,"n_dots":3.15,"target":"left","response":"left","rt":943.19999999553,"correct":true,"confidence":6},{"trial_n":47,"n_dots":3.05,"target":"left","response":"right","rt":990.39999999851,"correct":false,"confidence":6},{"trial_n":48,"n_dots":3.15,"target":"right","response":"right","rt":848.29999999702,"correct":true,"confidence":6},{"trial_n":49,"n_dots":3.15,"target":"left","response":"left","rt":778.70000000298,"correct":true,"confidence":6},{"trial_n":50,"n_dots":3.05,"target":"left","response":"left","rt":539.29999999702,"correct":true,"confidence":6},{"trial_n":51,"n_dots":3.05,"target":"left","response":"left","rt":2298.900000006,"correct":true,"confidence":6},{"trial_n":52,"n_dots":2.95,"target":"left","response":"right","rt":1103.6999999955,"correct":false,"confidence":6},{"trial_n":53,"n_dots":3.05,"target":"right","response":"right","rt":732.39999999851,"correct":true,"confidence":6},{"trial_n":54,"n_dots":3.05,"target":"left","response":"left","rt":437.70000000298,"correct":true,"confidence":6},{"trial_n":55,"n_dots":2.95,"target":"left","response":"left","rt":541.29999999702,"correct":true,"confidence":6},{"trial_n":56,"n_dots":2.95,"target":"left","response":"left","rt":755.70000000298,"correct":true,"confidence":5},{"trial_n":57,"n_dots":2.85,"target":"right","response":"left","rt":680.80000000447,"correct":false,"confidence":5},{"trial_n":58,"n_dots":2.95,"target":"right","response":"left","rt":1187.6000000015,"correct":false,"confidence":5},{"trial_n":59,"n_dots":3.05,"target":"right","response":"right","rt":534.60000000149,"correct":true,"confidence":6},{"trial_n":60,"n_dots":3.05,"target":"left","response":"left","rt":702.5,"correct":true,"confidence":6},{"trial_n":61,"n_dots":2.95,"target":"right","response":"left","rt":439.70000000298,"correct":false,"confidence":6},{"trial_n":62,"n_dots":3.05,"target":"right","response":"left","rt":883.60000000149,"correct":false,"confidence":6},{"trial_n":63,"n_dots":3.15,"target":"right","response":"right","rt":363.79999999702,"correct":true,"confidence":6},{"trial_n":64,"n_dots":3.15,"target":"left","response":"right","rt":1044.3999999985,"correct":false,"confidence":6},{"trial_n":65,"n_dots":3.25,"target":"left","response":"left","rt":655.19999999553,"correct":true,"confidence":6},{"trial_n":66,"n_dots":3.25,"target":"left","response":"left","rt":339.69999999553,"correct":true,"confidence":6},{"trial_n":67,"n_dots":3.15,"target":"right","response":"right","rt":884.29999999702,"correct":true,"confidence":6},{"trial_n":68,"n_dots":3.15,"target":"right","response":"left","rt":883.20000000298,"correct":false,"confidence":6},{"trial_n":69,"n_dots":3.25,"target":"right","response":"left","rt":217.10000000149,"correct":false,"confidence":6},{"trial_n":70,"n_dots":3.35,"target":"left","response":"left","rt":565.70000000298,"correct":true,"confidence":6},{"trial_n":71,"n_dots":3.35,"target":"right","response":"right","rt":705.69999999553,"correct":true,"confidence":6},{"trial_n":72,"n_dots":3.25,"target":"right","response":"left","rt":943.70000000298,"correct":false,"confidence":5},{"trial_n":73,"n_dots":3.35,"target":"left","response":"left","rt":747.5,"correct":true,"confidence":6},{"trial_n":74,"n_dots":3.35,"target":"left","response":"left","rt":234,"correct":true,"confidence":6},{"trial_n":75,"n_dots":3.25,"target":"right","response":"right","rt":585.60000000149,"correct":true,"confidence":5},{"trial_n":76,"n_dots":3.25,"target":"right","response":"right","rt":886,"correct":true,"confidence":5},{"trial_n":77,"n_dots":3.15,"target":"left","response":"left","rt":487.60000000149,"correct":true,"confidence":5},{"trial_n":78,"n_dots":3.15,"target":"right","response":"right","rt":829.29999999702,"correct":true,"confidence":5},{"trial_n":79,"n_dots":3.05,"target":"left","response":"left","rt":612.90000000596,"correct":true,"confidence":5},{"trial_n":80,"n_dots":3.05,"target":"left","response":"right","rt":797.29999999702,"correct":false,"confidence":6},{"trial_n":81,"n_dots":3.15,"target":"right","response":"left","rt":300.19999999553,"correct":false,"confidence":6},{"trial_n":82,"n_dots":3.25,"target":"right","response":"right","rt":815.10000000149,"correct":true,"confidence":6},{"trial_n":83,"n_dots":3.25,"target":"left","response":"left","rt":301.19999999553,"correct":true,"confidence":5},{"trial_n":84,"n_dots":3.15,"target":"left","response":"left","rt":678.79999999702,"correct":true,"confidence":5},{"trial_n":85,"n_dots":3.15,"target":"left","response":"left","rt":161.5,"correct":true,"confidence":5},{"trial_n":86,"n_dots":3.05,"target":"right","response":"right","rt":678.70000000298,"correct":true,"confidence":5},{"trial_n":87,"n_dots":3.05,"target":"left","response":"left","rt":679,"correct":true,"confidence":6},{"trial_n":88,"n_dots":2.95,"target":"right","response":"right","rt":580.69999999553,"correct":true,"confidence":6},{"trial_n":89,"n_dots":2.95,"target":"left","response":"left","rt":366.40000000596,"correct":true,"confidence":6},{"trial_n":90,"n_dots":2.85,"target":"right","response":"left","rt":286,"correct":false,"confidence":5},{"trial_n":91,"n_dots":2.95,"target":"left","response":"left","rt":595.90000000596,"correct":true,"confidence":5},{"trial_n":92,"n_dots":2.95,"target":"left","response":"left","rt":254.30000000447,"correct":true,"confidence":5},{"trial_n":93,"n_dots":2.85,"target":"left","response":"left","rt":404.39999999851,"correct":true,"confidence":5},{"trial_n":94,"n_dots":2.85,"target":"left","response":"left","rt":99.89999999851,"correct":true,"confidence":5},{"trial_n":95,"n_dots":2.75,"target":"right","response":"left","rt":565.90000000596,"correct":false,"confidence":5},{"trial_n":96,"n_dots":2.85,"target":"left","response":"left","rt":544.89999999851,"correct":true,"confidence":5},{"trial_n":97,"n_dots":2.85,"target":"left","response":"right","rt":922,"correct":false,"confidence":5},{"trial_n":98,"n_dots":2.95,"target":"right","response":"right","rt":547.60000000149,"correct":true,"confidence":6},{"trial_n":99,"n_dots":2.95,"target":"right","response":"right","rt":569.10000000149,"correct":true,"confidence":5},{"trial_n":100,"n_dots":2.85,"target":"right","response":"left","rt":685.89999999851,"correct":false,"confidence":5},{"trial_n":101,"n_dots":2.95,"target":"left","response":"left","rt":419.10000000149,"correct":true,"confidence":5},{"trial_n":102,"n_dots":2.95,"target":"left","response":"left","rt":787.70000000298,"correct":true,"confidence":6},{"trial_n":103,"n_dots":2.85,"target":"right","response":"right","rt":682.40000000596,"correct":true,"confidence":5},{"trial_n":104,"n_dots":2.85,"target":"left","response":"left","rt":622,"correct":true,"confidence":6},{"trial_n":105,"n_dots":2.75,"target":"right","response":"left","rt":700.60000000149,"correct":false,"confidence":5},{"trial_n":106,"n_dots":2.85,"target":"left","response":"left","rt":850,"correct":true,"confidence":6},{"trial_n":107,"n_dots":2.85,"target":"left","response":"left","rt":459.90000000596,"correct":true,"confidence":5},{"trial_n":108,"n_dots":2.75,"target":"right","response":"right","rt":545.19999999553,"correct":true,"confidence":6},{"trial_n":109,"n_dots":2.75,"target":"left","response":"right","rt":1263.799999997,"correct":false,"confidence":6},{"trial_n":110,"n_dots":2.85,"target":"left","response":"left","rt":304.39999999851,"correct":true,"confidence":6},{"trial_n":111,"n_dots":2.85,"target":"left","response":"left","rt":204.20000000298,"correct":true,"confidence":6},{"trial_n":112,"n_dots":2.75,"target":"left","response":"left","rt":428.10000000149,"correct":true,"confidence":6},{"trial_n":113,"n_dots":2.75,"target":"right","response":"right","rt":755.59999999404,"correct":true,"confidence":6},{"trial_n":114,"n_dots":2.65,"target":"left","response":"right","rt":1144.6000000015,"correct":false,"confidence":6},{"trial_n":115,"n_dots":2.75,"target":"left","response":"left","rt":241.09999999404,"correct":true,"confidence":5},{"trial_n":116,"n_dots":2.75,"target":"right","response":"left","rt":663.5,"correct":false,"confidence":6},{"trial_n":117,"n_dots":2.85,"target":"right","response":"left","rt":911.60000000149,"correct":false,"confidence":6},{"trial_n":118,"n_dots":2.95,"target":"left","response":"left","rt":267.20000000298,"correct":true,"confidence":6},{"trial_n":119,"n_dots":2.95,"target":"left","response":"right","rt":500,"correct":false,"confidence":5},{"trial_n":120,"n_dots":3.05,"target":"right","response":"left","rt":1503.8000000045,"correct":false,"confidence":6},{"trial_n":121,"n_dots":3.15,"target":"right","response":"right","rt":538,"correct":true,"confidence":5},{"trial_n":122,"n_dots":3.15,"target":"right","response":"left","rt":1045,"correct":false,"confidence":4},{"trial_n":123,"n_dots":3.25,"target":"left","response":"left","rt":479.10000000149,"correct":true,"confidence":5},{"trial_n":124,"n_dots":3.25,"target":"left","response":"right","rt":945.69999999553,"correct":false,"confidence":6},{"trial_n":125,"n_dots":3.35,"target":"left","response":"left","rt":470.20000000298,"correct":true,"confidence":5},{"trial_n":126,"n_dots":3.35,"target":"right","response":"left","rt":633.40000000596,"correct":false,"confidence":5},{"trial_n":127,"n_dots":3.45,"target":"right","response":"right","rt":1258.200000003,"correct":true,"confidence":6},{"trial_n":128,"n_dots":3.45,"target":"right","response":"right","rt":673.30000000447,"correct":true,"confidence":5},{"trial_n":129,"n_dots":3.35,"target":"right","response":"left","rt":76.60000000149,"correct":false,"confidence":6},{"trial_n":130,"n_dots":3.45,"target":"right","response":"right","rt":571.80000000447,"correct":true,"confidence":6},{"trial_n":131,"n_dots":3.45,"target":"right","response":"right","rt":1486.299999997,"correct":true,"confidence":6},{"trial_n":132,"n_dots":3.35,"target":"right","response":"left","rt":2458.3000000045,"correct":false,"confidence":6},{"trial_n":133,"n_dots":3.45,"target":"right","response":"right","rt":3043.799999997,"correct":true,"confidence":1},{"trial_n":134,"n_dots":3.45,"target":"right","response":"left","rt":579.30000000447,"correct":false,"confidence":6},{"trial_n":135,"n_dots":3.55,"target":"right","response":"left","rt":487.70000000298,"correct":false,"confidence":5},{"trial_n":136,"n_dots":3.65,"target":"left","response":"left","rt":470.79999999702,"correct":true,"confidence":6},{"trial_n":137,"n_dots":3.65,"target":"left","response":"left","rt":572.5,"correct":true,"confidence":6},{"trial_n":138,"n_dots":3.55,"target":"left","response":"left","rt":373.39999999851,"correct":true,"confidence":6},{"trial_n":139,"n_dots":3.55,"target":"left","response":"left","rt":570.19999999553,"correct":true,"confidence":5},{"trial_n":140,"n_dots":3.45,"target":"right","response":"right","rt":453.70000000298,"correct":true,"confidence":6},{"trial_n":141,"n_dots":3.45,"target":"right","response":"left","rt":496,"correct":false,"confidence":5},{"trial_n":142,"n_dots":3.55,"target":"left","response":"left","rt":234,"correct":true,"confidence":5},{"trial_n":143,"n_dots":3.55,"target":"left","response":"left","rt":416.79999999702,"correct":true,"confidence":5},{"trial_n":144,"n_dots":3.45,"target":"right","response":"left","rt":213.60000000149,"correct":false,"confidence":5},{"trial_n":145,"n_dots":3.55,"target":"right","response":"left","rt":715.60000000149,"correct":false,"confidence":5},{"trial_n":146,"n_dots":3.65,"target":"left","response":"left","rt":433.10000000149,"correct":true,"confidence":5},{"trial_n":147,"n_dots":3.65,"target":"right","response":"left","rt":535.80000000447,"correct":false,"confidence":5},{"trial_n":148,"n_dots":3.75,"target":"left","response":"left","rt":169.5,"correct":true,"confidence":5},{"trial_n":149,"n_dots":3.75,"target":"right","response":"left","rt":139.59999999404,"correct":false,"confidence":6},{"trial_n":150,"n_dots":3.85,"target":"left","response":"left","rt":758.59999999404,"correct":true,"confidence":6},{"trial_n":151,"n_dots":3.85,"target":"right","response":"right","rt":708.79999999702,"correct":true,"confidence":5},{"trial_n":152,"n_dots":3.75,"target":"left","response":"left","rt":375.20000000298,"correct":true,"confidence":6},{"trial_n":153,"n_dots":3.75,"target":"left","response":"left","rt":10.60000000149,"correct":true,"confidence":5},{"trial_n":154,"n_dots":3.65,"target":"right","response":"right","rt":233.70000000298,"correct":true,"confidence":4},{"trial_n":155,"n_dots":3.65,"target":"right","response":"right","rt":724.5,"correct":true,"confidence":5},{"trial_n":156,"n_dots":3.55,"target":"left","response":"left","rt":114.70000000298,"correct":true,"confidence":5},{"trial_n":157,"n_dots":3.55,"target":"right","response":"right","rt":381.89999999851,"correct":true,"confidence":6},{"trial_n":158,"n_dots":3.45,"target":"right","response":"right","rt":1059.099999994,"correct":true,"confidence":6},{"trial_n":159,"n_dots":3.45,"target":"left","response":"left","rt":444.09999999404,"correct":true,"confidence":6},{"trial_n":160,"n_dots":3.35,"target":"left","response":"left","rt":2718.5,"correct":true,"confidence":6},{"trial_n":161,"n_dots":3.35,"target":"left","response":"right","rt":497,"correct":false,"confidence":5},{"trial_n":162,"n_dots":3.45,"target":"left","response":"left","rt":553.69999999553,"correct":true,"confidence":4},{"trial_n":163,"n_dots":3.45,"target":"right","response":"right","rt":1970.1999999955,"correct":true,"confidence":5},{"trial_n":164,"n_dots":3.35,"target":"right","response":"left","rt":1280.900000006,"correct":false,"confidence":4},{"trial_n":165,"n_dots":3.45,"target":"right","response":"right","rt":551.89999999851,"correct":true,"confidence":5},{"trial_n":166,"n_dots":3.45,"target":"right","response":"left","rt":1002.400000006,"correct":false,"confidence":4},{"trial_n":167,"n_dots":3.55,"target":"right","response":"right","rt":977.10000000149,"correct":true,"confidence":5},{"trial_n":168,"n_dots":3.55,"target":"right","response":"left","rt":161.10000000149,"correct":false,"confidence":1},{"trial_n":169,"n_dots":3.65,"target":"left","response":"left","rt":333.5,"correct":true,"confidence":4},{"trial_n":170,"n_dots":3.65,"target":"right","response":"right","rt":803.60000000149,"correct":true,"confidence":1},{"trial_n":171,"n_dots":3.55,"target":"left","response":"left","rt":267.69999999553,"correct":true,"confidence":1},{"trial_n":172,"n_dots":3.55,"target":"left","response":"left","rt":400.30000000447,"correct":true,"confidence":5},{"trial_n":173,"n_dots":3.45,"target":"left","response":"left","rt":689.80000000447,"correct":true,"confidence":5},{"trial_n":174,"n_dots":3.45,"target":"right","response":"right","rt":483.70000000298,"correct":true,"confidence":5},{"trial_n":175,"n_dots":3.35,"target":"right","response":"left","rt":953,"correct":false,"confidence":6},{"trial_n":176,"n_dots":3.45,"target":"right","response":"right","rt":500.10000000149,"correct":true,"confidence":5},{"trial_n":177,"n_dots":3.45,"target":"right","response":"right","rt":760.69999999553,"correct":true,"confidence":4},{"trial_n":178,"n_dots":3.35,"target":"right","response":"left","rt":587.10000000149,"correct":false,"confidence":6},{"trial_n":179,"n_dots":3.45,"target":"right","response":"right","rt":594.89999999851,"correct":true,"confidence":4},{"trial_n":180,"n_dots":3.45,"target":"left","response":"left","rt":232.5,"correct":true,"confidence":5},{"trial_n":181,"n_dots":3.35,"target":"left","response":"left","rt":797,"correct":true,"confidence":6},{"trial_n":182,"n_dots":3.35,"target":"left","response":"left","rt":1228.8999999985,"correct":true,"confidence":5},{"trial_n":183,"n_dots":3.25,"target":"right","response":"right","rt":387,"correct":true,"confidence":5},{"trial_n":184,"n_dots":3.25,"target":"right","response":"left","rt":616.40000000596,"correct":false,"confidence":1},{"trial_n":185,"n_dots":3.35,"target":"left","response":"left","rt":484.80000000447,"correct":true,"confidence":4},{"trial_n":186,"n_dots":3.35,"target":"left","response":"left","rt":159,"correct":true,"confidence":4},{"trial_n":187,"n_dots":3.25,"target":"right","response":"left","rt":733.5,"correct":false,"confidence":4},{"trial_n":188,"n_dots":3.35,"target":"right","response":"left","rt":1267.1000000015,"correct":false,"confidence":4},{"trial_n":189,"n_dots":3.45,"target":"right","response":"left","rt":700.10000000149,"correct":false,"confidence":5},{"trial_n":190,"n_dots":3.55,"target":"right","response":"right","rt":637.80000000447,"correct":true,"confidence":4},{"trial_n":191,"n_dots":3.55,"target":"right","response":"right","rt":1089.200000003,"correct":true,"confidence":4},{"trial_n":192,"n_dots":3.45,"target":"right","response":"left","rt":518.30000000447,"correct":false,"confidence":5},{"trial_n":193,"n_dots":3.55,"target":"left","response":"left","rt":434.80000000447,"correct":true,"confidence":4},{"trial_n":194,"n_dots":3.55,"target":"left","response":"left","rt":162.69999999553,"correct":true,"confidence":4}]