[{"trial_n":1,"n_dots":4.25,"target":"left","response":"left","rt":727.90000000596,"correct":true,"confidence":-1},{"trial_n":2,"n_dots":4.25,"target":"left","response":"left","rt":2,"correct":true,"confidence":-1},{"trial_n":3,"n_dots":3.85,"target":"right","response":"right","rt":42.300000011921,"correct":true,"confidence":-1},{"trial_n":4,"n_dots":3.85,"target":"right","response":"right","rt":281,"correct":true,"confidence":-1},{"trial_n":5,"n_dots":3.45,"target":"right","response":"right","rt":615.20000001788,"correct":true,"confidence":-1},{"trial_n":6,"n_dots":3.45,"target":"right","response":"right","rt":244.09999999404,"correct":true,"confidence":-1},{"trial_n":7,"n_dots":3.05,"target":"left","response":"right","rt":349.20000001788,"correct":false,"confidence":-1},{"trial_n":8,"n_dots":3.25,"target":"left","response":"left","rt":321,"correct":true,"confidence":-1},{"trial_n":9,"n_dots":3.25,"target":"left","response":"left","rt":224.89999997616,"correct":true,"confidence":-1},{"trial_n":10,"n_dots":3.05,"target":"left","response":"left","rt":162.19999998808,"correct":true,"confidence":-1},{"trial_n":11,"n_dots":3.05,"target":"right","response":"left","rt":227.09999999404,"correct":false,"confidence":-1},{"trial_n":12,"n_dots":3.25,"target":"left","response":"right","rt":432.90000000596,"correct":false,"confidence":-1},{"trial_n":13,"n_dots":3.35,"target":"right","response":"right","rt":421.39999997616,"correct":true,"confidence":-1},{"trial_n":14,"n_dots":3.35,"target":"right","response":"left","rt":354.5,"correct":false,"confidence":-1},{"trial_n":15,"n_dots":3.45,"target":"right","response":"right","rt":247.90000000596,"correct":true,"confidence":-1},{"trial_n":16,"n_dots":3.45,"target":"right","response":"right","rt":221.59999999404,"correct":true,"confidence":-1},{"trial_n":17,"n_dots":3.35,"target":"right","response":"right","rt":184.79999998212,"correct":true,"confidence":-1},{"trial_n":18,"n_dots":3.35,"target":"right","response":"right","rt":21.699999988079,"correct":true,"confidence":-1},{"trial_n":19,"n_dots":3.25,"target":"right","response":"right","rt":143.59999999404,"correct":true,"confidence":-1},{"trial_n":20,"n_dots":3.25,"target":"right","response":"left","rt":220.30000001192,"correct":false,"confidence":-1},{"trial_n":21,"n_dots":3.35,"target":"right","response":"right","rt":381.60000002384,"correct":true,"confidence":-1},{"trial_n":22,"n_dots":3.35,"target":"left","response":"left","rt":463.5,"correct":true,"confidence":-1},{"trial_n":23,"n_dots":3.25,"target":"right","response":"right","rt":295.5,"correct":true,"confidence":-1},{"trial_n":24,"n_dots":3.25,"target":"left","response":"left","rt":58.40000000596,"correct":true,"confidence":-1},{"trial_n":25,"n_dots":3.15,"target":"left","response":"left","rt":134,"correct":true,"confidence":-1},{"trial_n":26,"n_dots":3.15,"target":"right","response":"right","rt":249.5,"correct":true,"confidence":-1},{"trial_n":27,"n_dots":3.05,"target":"left","response":"right","rt":322,"correct":false,"confidence":5},{"trial_n":28,"n_dots":3.15,"target":"right","response":"right","rt":380.69999998808,"correct":true,"confidence":4},{"trial_n":29,"n_dots":3.15,"target":"right","response":"left","rt":320.59999999404,"correct":false,"confidence":5},{"trial_n":30,"n_dots":3.25,"target":"left","response":"left","rt":197.89999997616,"correct":true,"confidence":6},{"trial_n":31,"n_dots":3.25,"target":"right","response":"right","rt":305,"correct":true,"confidence":5},{"trial_n":32,"n_dots":3.15,"target":"right","response":"left","rt":315.59999999404,"correct":false,"confidence":5},{"trial_n":33,"n_dots":3.25,"target":"right","response":"right","rt":434.30000001192,"correct":true,"confidence":6},{"trial_n":34,"n_dots":3.25,"target":"right","response":"right","rt":381.70000001788,"correct":true,"confidence":5},{"trial_n":35,"n_dots":3.15,"target":"left","response":"left","rt":125.09999999404,"correct":true,"confidence":4},{"trial_n":36,"n_dots":3.15,"target":"left","response":"left","rt":352.5,"correct":true,"confidence":5},{"trial_n":37,"n_dots":3.05,"target":"right","response":"right","rt":448.80000001192,"correct":true,"confidence":6},{"trial_n":38,"n_dots":3.05,"target":"right","response":"left","rt":249.29999998212,"correct":false,"confidence":6},{"trial_n":39,"n_dots":3.15,"target":"left","response":"left","rt":1219.099999994,"correct":true,"confidence":4},{"trial_n":40,"n_dots":3.15,"target":"left","response":"left","rt":91.199999988079,"correct":true,"confidence":5},{"trial_n":41,"n_dots":3.05,"target":"left","response":"left","rt":159.40000000596,"correct":true,"confidence":6},{"trial_n":42,"n_dots":3.05,"target":"right","response":"right","rt":308.69999998808,"correct":true,"confidence":6},{"trial_n":43,"n_dots":2.95,"target":"right","response":"right","rt":503.90000000596,"correct":true,"confidence":3},{"trial_n":44,"n_dots":2.95,"target":"left","response":"left","rt":363.89999997616,"correct":true,"confidence":5},{"trial_n":45,"n_dots":2.85,"target":"left","response":"left","rt":409.40000000596,"correct":true,"confidence":4},{"trial_n":46,"n_dots":2.85,"target":"right","response":"left","rt":197.80000001192,"correct":false,"confidence":1},{"trial_n":47,"n_dots":2.95,"target":"left","response":"left","rt":323.30000001192,"correct":true,"confidence":5},{"trial_n":48,"n_dots":2.95,"target":"left","response":"left","rt":252.40000000596,"correct":true,"confidence":6},{"trial_n":49,"n_dots":2.85,"target":"left","response":"right","rt":149.90000000596,"correct":false,"confidence":3},{"trial_n":50,"n_dots":2.95,"target":"right","response":"right","rt":306.5,"correct":true,"confidence":5},{"trial_n":51,"n_dots":2.95,"target":"right","response":"right","rt":135.29999998212,"correct":true,"confidence":6},{"trial_n":52,"n_dots":2.85,"target":"left","response":"left","rt":442.09999999404,"correct":true,"confidence":4},{"trial_n":53,"n_dots":2.85,"target":"right","response":"right","rt":96.59999999404,"correct":true,"confidence":3},{"trial_n":54,"n_dots":2.75,"target":"right","response":"right","rt":100.09999999404,"correct":true,"confidence":5},{"trial_n":55,"n_dots":2.75,"target":"right","response":"right","rt":327.69999998808,"correct":true,"confidence":5},{"trial_n":56,"n_dots":2.65,"target":"left","response":"left","rt":314,"correct":true,"confidence":5},{"trial_n":57,"n_dots":2.65,"target":"right","response":"left","rt":344.80000001192,"correct":false,"confidence":6},{"trial_n":58,"n_dots":2.75,"target":"left","response":"left","rt":417.5,"correct":true,"confidence":4},{"trial_n":59,"n_dots":2.75,"target":"left","response":"right","rt":204.29999998212,"correct":false,"confidence":3},{"trial_n":60,"n_dots":2.85,"target":"left","response":"right","rt":370.59999999404,"correct":false,"confidence":6},{"trial_n":61,"n_dots":2.95,"target":"right","response":"right","rt":340.90000000596,"correct":true,"confidence":5},{"trial_n":62,"n_dots":2.95,"target":"left","response":"left","rt":467.90000000596,"correct":true,"confidence":5},{"trial_n":63,"n_dots":2.85,"target":"right","response":"left","rt":439.5,"correct":false,"confidence":4},{"trial_n":64,"n_dots":2.95,"target":"right","response":"right","rt":8.8999999761581,"correct":true,"confidence":5},{"trial_n":65,"n_dots":2.95,"target":"right","response":"right","rt":364.19999998808,"correct":true,"confidence":5},{"trial_n":66,"n_dots":2.85,"target":"left","response":"right","rt":279.69999998808,"correct":false,"confidence":3},{"trial_n":67,"n_dots":2.95,"target":"right","response":"right","rt":326,"correct":true,"confidence":5},{"trial_n":68,"n_dots":2.95,"target":"left","response":"left","rt":5.7000000178814,"correct":true,"confidence":5},{"trial_n":69,"n_dots":2.85,"target":"left","response":"right","rt":855.5,"correct":false,"confidence":5},{"trial_n":70,"n_dots":2.95,"target":"left","response":"left","rt":81.799999982119,"correct":true,"confidence":5},{"trial_n":71,"n_dots":2.95,"target":"left","response":"right","rt":314.19999998808,"correct":false,"confidence":4},{"trial_n":72,"n_dots":3.05,"target":"right","response":"left","rt":343.70000001788,"correct":false,"confidence":5},{"trial_n":73,"n_dots":3.15,"target":"left","response":"left","rt":46.700000017881,"correct":true,"confidence":6},{"trial_n":74,"n_dots":3.15,"target":"right","response":"left","rt":394.69999998808,"correct":false,"confidence":5},{"trial_n":75,"n_dots":3.25,"target":"left","response":"left","rt":2.7999999821186,"correct":true,"confidence":6},{"trial_n":76,"n_dots":3.25,"target":"right","response":"left","rt":369.40000000596,"correct":false,"confidence":4},{"trial_n":77,"n_dots":3.35,"target":"right","response":"right","rt":383.20000001788,"correct":true,"confidence":5},{"trial_n":78,"n_dots":3.35,"target":"left","response":"left","rt":8.3000000119209,"correct":true,"confidence":6},{"trial_n":79,"n_dots":3.25,"target":"right","response":"left","rt":266,"correct":false,"confidence":3},{"trial_n":80,"n_dots":3.35,"target":"left","response":"left","rt":173,"correct":true,"confidence":5},{"trial_n":81,"n_dots":3.35,"target":"left","response":"left","rt":24.300000011921,"correct":true,"confidence":6},{"trial_n":82,"n_dots":3.25,"target":"left","response":"left","rt":421.09999999404,"correct":true,"confidence":5},{"trial_n":83,"n_dots":3.25,"target":"right","response":"right","rt":258,"correct":true,"confidence":4},{"trial_n":84,"n_dots":3.15,"target":"right","response":"left","rt":42.40000000596,"correct":false,"confidence":5},{"trial_n":85,"n_dots":3.25,"target":"right","response":"right","rt":412,"correct":true,"confidence":6},{"trial_n":86,"n_dots":3.25,"target":"left","response":"left","rt":96.700000017881,"correct":true,"confidence":5},{"trial_n":87,"n_dots":3.15,"target":"left","response":"left","rt":99.300000011921,"correct":true,"confidence":5},{"trial_n":88,"n_dots":3.15,"target":"right","response":"left","rt":237.5,"correct":false,"confidence":5},{"trial_n":89,"n_dots":3.25,"target":"left","response":"right","rt":249.89999997616,"correct":false,"confidence":6},{"trial_n":90,"n_dots":3.35,"target":"right","response":"right","rt":191.5,"correct":true,"confidence":5},{"trial_n":91,"n_dots":3.35,"target":"right","response":"right","rt":92.299999982119,"correct":true,"confidence":5},{"trial_n":92,"n_dots":3.25,"target":"right","response":"right","rt":203.39999997616,"correct":true,"confidence":5},{"trial_n":93,"n_dots":3.25,"target":"right","response":"right","rt":291.90000000596,"correct":true,"confidence":6},{"trial_n":94,"n_dots":3.15,"target":"left","response":"left","rt":281.19999998808,"correct":true,"confidence":4},{"trial_n":95,"n_dots":3.15,"target":"left","response":"right","rt":523.5,"correct":false,"confidence":5},{"trial_n":96,"n_dots":3.25,"target":"right","response":"right","rt":251.40000000596,"correct":true,"confidence":5},{"trial_n":97,"n_dots":3.25,"target":"left","response":"left","rt":485.79999998212,"correct":true,"confidence":5},{"trial_n":98,"n_dots":3.15,"target":"left","response":"left","rt":83.90000000596,"correct":true,"confidence":5},{"trial_n":99,"n_dots":3.15,"target":"left","response":"left","rt":7.7999999821186,"correct":true,"confidence":5},{"trial_n":100,"n_dots":3.05,"target":"left","response":"left","rt":314.30000001192,"correct":true,"confidence":4},{"trial_n":101,"n_dots":3.05,"target":"right","response":"left","rt":386.30000001192,"correct":false,"confidence":5},{"trial_n":102,"n_dots":3.15,"target":"left","response":"left","rt":4.8999999761581,"correct":true,"confidence":4},{"trial_n":103,"n_dots":3.15,"target":"left","response":"left","rt":203.40000000596,"correct":true,"confidence":5},{"trial_n":104,"n_dots":3.05,"target":"right","response":"right","rt":154.40000000596,"correct":true,"confidence":5},{"trial_n":105,"n_dots":3.05,"target":"right","response":"right","rt":229.90000000596,"correct":true,"confidence":5},{"trial_n":106,"n_dots":2.95,"target":"left","response":"left","rt":248.69999998808,"correct":true,"confidence":4},{"trial_n":107,"n_dots":2.95,"target":"right","response":"left","rt":436.19999998808,"correct":false,"confidence":4},{"trial_n":108,"n_dots":3.05,"target":"left","response":"left","rt":195.09999999404,"correct":true,"confidence":6},{"trial_n":109,"n_dots":3.05,"target":"left","response":"left","rt":242,"correct":true,"confidence":5},{"trial_n":110,"n_dots":2.95,"target":"right","response":"left","rt":0.099999994039536,"correct":false,"confidence":4},{"trial_n":111,"n_dots":3.05,"target":"right","response":"left","rt":467.09999999404,"correct":false,"confidence":5},{"trial_n":112,"n_dots":3.15,"target":"right","response":"left","rt":107.80000001192,"correct":false,"confidence":4},{"trial_n":113,"n_dots":3.25,"target":"right","response":"right","rt":141.59999999404,"correct":true,"confidence":5},{"trial_n":114,"n_dots":3.25,"target":"left","response":"left","rt":202.60000002384,"correct":true,"confidence":4},{"trial_n":115,"n_dots":3.15,"target":"right","response":"right","rt":3.3000000119209,"correct":true,"confidence":5},{"trial_n":116,"n_dots":3.15,"target":"right","response":"right","rt":253.40000000596,"correct":true,"confidence":5},{"trial_n":117,"n_dots":3.05,"target":"left","response":"left","rt":618.79999998212,"correct":true,"confidence":5},{"trial_n":118,"n_dots":3.05,"target":"left","response":"right","rt":417.40000000596,"correct":false,"confidence":5},{"trial_n":119,"n_dots":3.15,"target":"left","response":"left","rt":324,"correct":true,"confidence":5},{"trial_n":120,"n_dots":3.15,"target":"right","response":"left","rt":392.19999998808,"correct":false,"confidence":5},{"trial_n":121,"n_dots":3.25,"target":"left","response":"left","rt":2.5999999940395,"correct":true,"confidence":5},{"trial_n":122,"n_dots":3.25,"target":"left","response":"left","rt":363.30000001192,"correct":true,"confidence":5},{"trial_n":123,"n_dots":3.15,"target":"left","response":"left","rt":360.30000001192,"correct":true,"confidence":6},{"trial_n":124,"n_dots":3.15,"target":"left","response":"left","rt":288,"correct":true,"confidence":5},{"trial_n":125,"n_dots":3.05,"target":"left","response":"left","rt":356.59999999404,"correct":true,"confidence":5},{"trial_n":126,"n_dots":3.05,"target":"left","response":"left","rt":221.20000001788,"correct":true,"confidence":5},{"trial_n":127,"n_dots":2.95,"target":"right","response":"left","rt":149.20000001788,"correct":false,"confidence":4},{"trial_n":128,"n_dots":3.05,"target":"left","response":"left","rt":414.20000001788,"correct":true,"confidence":5},{"trial_n":129,"n_dots":3.05,"target":"left","response":"right","rt":305.70000001788,"correct":false,"confidence":5},{"trial_n":130,"n_dots":3.15,"target":"left","response":"left","rt":66607.599999994,"correct":true,"confidence":4},{"trial_n":131,"n_dots":3.15,"target":"right","response":"right","rt":177,"correct":true,"confidence":5},{"trial_n":132,"n_dots":3.05,"target":"left","response":"left","rt":69.200000017881,"correct":true,"confidence":5},{"trial_n":133,"n_dots":3.05,"target":"left","response":"right","rt":693.90000000596,"correct":false,"confidence":5},{"trial_n":134,"n_dots":3.15,"target":"right","response":"left","rt":39.40000000596,"correct":false,"confidence":6},{"trial_n":135,"n_dots":3.25,"target":"right","response":"left","rt":17597.900000006,"correct":false,"confidence":5},{"trial_n":136,"n_dots":3.35,"target":"left","response":"left","rt":8635.6999999881,"correct":true,"confidence":5},{"trial_n":137,"n_dots":3.35,"target":"right","response":"right","rt":174.90000000596,"correct":true,"confidence":5},{"trial_n":138,"n_dots":3.25,"target":"left","response":"left","rt":449.60000002384,"correct":true,"confidence":5},{"trial_n":139,"n_dots":3.25,"target":"right","response":"right","rt":58.200000017881,"correct":true,"confidence":5},{"trial_n":140,"n_dots":3.15,"target":"right","response":"right","rt":177,"correct":true,"confidence":5},{"trial_n":141,"n_dots":3.15,"target":"left","response":"left","rt":69.300000011921,"correct":true,"confidence":5},{"trial_n":142,"n_dots":3.05,"target":"right","response":"right","rt":154.79999998212,"correct":true,"confidence":5},{"trial_n":143,"n_dots":3.05,"target":"right","response":"right","rt":214.29999998212,"correct":true,"confidence":5},{"trial_n":144,"n_dots":2.95,"target":"right","response":"right","rt":126.40000000596,"correct":true,"confidence":5},{"trial_n":145,"n_dots":2.95,"target":"right","response":"left","rt":329.19999998808,"correct":false,"confidence":4},{"trial_n":146,"n_dots":3.05,"target":"left","response":"left","rt":290.70000001788,"correct":true,"confidence":5},{"trial_n":147,"n_dots":3.05,"target":"right","response":"right","rt":97.800000011921,"correct":true,"confidence":5},{"trial_n":148,"n_dots":2.95,"target":"right","response":"right","rt":77.5,"correct":true,"confidence":5},{"trial_n":149,"n_dots":2.95,"target":"right","response":"right","rt":368,"correct":true,"confidence":6},{"trial_n":150,"n_dots":2.85,"target":"left","response":"left","rt":239.19999998808,"correct":true,"confidence":5},{"trial_n":151,"n_dots":2.85,"target":"left","response":"left","rt":304.80000001192,"correct":true,"confidence":5},{"trial_n":152,"n_dots":2.75,"target":"left","response":"left","rt":5.3000000119209,"correct":true,"confidence":5},{"trial_n":153,"n_dots":2.75,"target":"right","response":"right","rt":287.09999999404,"correct":true,"confidence":5},{"trial_n":154,"n_dots":2.65,"target":"right","response":"left","rt":184.09999999404,"correct":false,"confidence":4},{"trial_n":155,"n_dots":2.75,"target":"right","response":"left","rt":90.700000017881,"correct":false,"confidence":5},{"trial_n":156,"n_dots":2.85,"target":"right","response":"right","rt":424.40000000596,"correct":true,"confidence":5},{"trial_n":157,"n_dots":2.85,"target":"left","response":"left","rt":46.5,"correct":true,"confidence":5},{"trial_n":158,"n_dots":2.75,"target":"left","response":"left","rt":488.69999998808,"correct":true,"confidence":5},{"trial_n":159,"n_dots":2.75,"target":"right","response":"left","rt":294.60000002384,"correct":false,"confidence":3},{"trial_n":160,"n_dots":2.85,"target":"left","response":"left","rt":297.69999998808,"correct":true,"confidence":5},{"trial_n":161,"n_dots":2.85,"target":"right","response":"right","rt":433,"correct":true,"confidence":5},{"trial_n":162,"n_dots":2.75,"target":"right","response":"right","rt":281.40000000596,"correct":true,"confidence":5},{"trial_n":163,"n_dots":2.75,"target":"right","response":"right","rt":139.90000000596,"correct":true,"confidence":5},{"trial_n":164,"n_dots":2.65,"target":"left","response":"left","rt":377.79999998212,"correct":true,"confidence":5},{"trial_n":165,"n_dots":2.65,"target":"left","response":"right","rt":314.09999999404,"correct":false,"confidence":3},{"trial_n":166,"n_dots":2.75,"target":"left","response":"left","rt":166.40000000596,"correct":true,"confidence":5},{"trial_n":167,"n_dots":2.75,"target":"left","response":"left","rt":165.69999998808,"correct":true,"confidence":5},{"trial_n":168,"n_dots":2.65,"target":"right","response":"right","rt":13.299999982119,"correct":true,"confidence":5},{"trial_n":169,"n_dots":2.65,"target":"right","response":"right","rt":362,"correct":true,"confidence":6},{"trial_n":170,"n_dots":2.55,"target":"left","response":"left","rt":270.70000001788,"correct":true,"confidence":5},{"trial_n":171,"n_dots":2.55,"target":"left","response":"right","rt":141.79999998212,"correct":false,"confidence":5},{"trial_n":172,"n_dots":2.65,"target":"right","response":"right","rt":136.29999998212,"correct":true,"confidence":5},{"trial_n":173,"n_dots":2.65,"target":"right","response":"right","rt":337.30000001192,"correct":true,"confidence":5},{"trial_n":174,"n_dots":2.55,"target":"left","response":"left","rt":343.30000001192,"correct":true,"confidence":5},{"trial_n":175,"n_dots":2.55,"target":"left","response":"left","rt":293.30000001192,"correct":true,"confidence":5},{"trial_n":176,"n_dots":2.45,"target":"right","response":"left","rt":144.19999998808,"correct":false,"confidence":5},{"trial_n":177,"n_dots":2.55,"target":"left","response":"left","rt":43.300000011921,"correct":true,"confidence":5},{"trial_n":178,"n_dots":2.55,"target":"right","response":"left","rt":369.5,"correct":false,"confidence":5},{"trial_n":179,"n_dots":2.65,"target":"right","response":"right","rt":376.5,"correct":true,"confidence":5},{"trial_n":180,"n_dots":2.65,"target":"right","response":"left","rt":120.40000000596,"correct":false,"confidence":4},{"trial_n":181,"n_dots":2.75,"target":"left","response":"right","rt":255.90000000596,"correct":false,"confidence":5},{"trial_n":182,"n_dots":2.85,"target":"left","response":"left","rt":476.09999999404,"correct":true,"confidence":5},{"trial_n":183,"n_dots":2.85,"target":"right","response":"right","rt":267.5,"correct":true,"confidence":5},{"trial_n":184,"n_dots":2.75,"target":"right","response":"left","rt":488.5,"correct":false,"confidence":5},{"trial_n":185,"n_dots":2.85,"target":"right","response":"right","rt":340.80000001192,"correct":true,"confidence":4},{"trial_n":186,"n_dots":2.85,"target":"left","response":"left","rt":112.5,"correct":true,"confidence":5},{"trial_n":187,"n_dots":2.75,"target":"left","response":"left","rt":273.19999998808,"correct":true,"confidence":5},{"trial_n":188,"n_dots":2.75,"target":"left","response":"left","rt":6.1999999880791,"correct":true,"confidence":6},{"trial_n":189,"n_dots":2.65,"target":"left","response":"left","rt":13.699999988079,"correct":true,"confidence":5},{"trial_n":190,"n_dots":2.65,"target":"right","response":"left","rt":215.5,"correct":false,"confidence":5},{"trial_n":191,"n_dots":2.75,"target":"left","response":"right","rt":1396.099999994,"correct":false,"confidence":5},{"trial_n":192,"n_dots":2.85,"target":"left","response":"left","rt":245.39999997616,"correct":true,"confidence":4},{"trial_n":193,"n_dots":2.85,"target":"left","response":"left","rt":391.80000001192,"correct":true,"confidence":4},{"trial_n":194,"n_dots":2.75,"target":"left","response":"left","rt":571.90000000596,"correct":true,"confidence":5}]