[{"trial_n":1,"n_dots":4.25,"target":"right","response":"left","rt":1183,"correct":false,"confidence":-1},{"trial_n":2,"n_dots":4.25,"target":"right","response":"left","rt":483,"correct":false,"confidence":-1},{"trial_n":3,"n_dots":4.65,"target":"right","response":"right","rt":418,"correct":true,"confidence":-1},{"trial_n":4,"n_dots":4.65,"target":"left","response":"left","rt":248,"correct":true,"confidence":-1},{"trial_n":5,"n_dots":4.25,"target":"right","response":"right","rt":279,"correct":true,"confidence":-1},{"trial_n":6,"n_dots":4.25,"target":"left","response":"left","rt":240,"correct":true,"confidence":-1},{"trial_n":7,"n_dots":3.85,"target":"right","response":"right","rt":308,"correct":true,"confidence":-1},{"trial_n":8,"n_dots":3.85,"target":"left","response":"left","rt":240,"correct":true,"confidence":-1},{"trial_n":9,"n_dots":3.65,"target":"left","response":"left","rt":117,"correct":true,"confidence":-1},{"trial_n":10,"n_dots":3.65,"target":"right","response":"left","rt":155,"correct":false,"confidence":-1},{"trial_n":11,"n_dots":3.85,"target":"right","response":"right","rt":76,"correct":true,"confidence":-1},{"trial_n":12,"n_dots":3.85,"target":"left","response":"left","rt":293,"correct":true,"confidence":-1},{"trial_n":13,"n_dots":3.75,"target":"left","response":"left","rt":278,"correct":true,"confidence":-1},{"trial_n":14,"n_dots":3.75,"target":"left","response":"left","rt":249,"correct":true,"confidence":-1},{"trial_n":15,"n_dots":3.65,"target":"left","response":"left","rt":140,"correct":true,"confidence":-1},{"trial_n":16,"n_dots":3.65,"target":"left","response":"left","rt":184,"correct":true,"confidence":-1},{"trial_n":17,"n_dots":3.55,"target":"left","response":"left","rt":121,"correct":true,"confidence":-1},{"trial_n":18,"n_dots":3.55,"target":"left","response":"left","rt":341,"correct":true,"confidence":-1},{"trial_n":19,"n_dots":3.45,"target":"right","response":"left","rt":78,"correct":false,"confidence":-1},{"trial_n":20,"n_dots":3.55,"target":"right","response":"right","rt":196,"correct":true,"confidence":-1},{"trial_n":21,"n_dots":3.55,"target":"left","response":"left","rt":246,"correct":true,"confidence":-1},{"trial_n":22,"n_dots":3.45,"target":"right","response":"left","rt":298,"correct":false,"confidence":-1},{"trial_n":23,"n_dots":3.55,"target":"right","response":"right","rt":160,"correct":true,"confidence":-1},{"trial_n":24,"n_dots":3.55,"target":"right","response":"right","rt":91,"correct":true,"confidence":-1},{"trial_n":25,"n_dots":3.45,"target":"left","response":"right","rt":75,"correct":false,"confidence":-1},{"trial_n":26,"n_dots":3.55,"target":"left","response":"right","rt":58,"correct":false,"confidence":-1},{"trial_n":27,"n_dots":3.65,"target":"right","response":"left","rt":176,"correct":false,"confidence":3},{"trial_n":28,"n_dots":3.75,"target":"right","response":"left","rt":289,"correct":false,"confidence":4},{"trial_n":29,"n_dots":3.85,"target":"right","response":"left","rt":274,"correct":false,"confidence":5},{"trial_n":30,"n_dots":3.95,"target":"left","response":"left","rt":755,"correct":true,"confidence":6},{"trial_n":31,"n_dots":3.95,"target":"left","response":"left","rt":115,"correct":true,"confidence":5},{"trial_n":32,"n_dots":3.85,"target":"left","response":"left","rt":116,"correct":true,"confidence":5},{"trial_n":33,"n_dots":3.85,"target":"left","response":"left","rt":177,"correct":true,"confidence":5},{"trial_n":34,"n_dots":3.75,"target":"left","response":"left","rt":325,"correct":true,"confidence":4},{"trial_n":35,"n_dots":3.75,"target":"left","response":"left","rt":374,"correct":true,"confidence":4},{"trial_n":36,"n_dots":3.65,"target":"left","response":"left","rt":250,"correct":true,"confidence":4},{"trial_n":37,"n_dots":3.65,"target":"left","response":"left","rt":105,"correct":true,"confidence":4},{"trial_n":38,"n_dots":3.55,"target":"right","response":"right","rt":451,"correct":true,"confidence":4},{"trial_n":39,"n_dots":3.55,"target":"left","response":"left","rt":246,"correct":true,"confidence":4},{"trial_n":40,"n_dots":3.45,"target":"left","response":"left","rt":278,"correct":true,"confidence":4},{"trial_n":41,"n_dots":3.45,"target":"right","response":"left","rt":333,"correct":false,"confidence":4},{"trial_n":42,"n_dots":3.55,"target":"left","response":"left","rt":265,"correct":true,"confidence":4},{"trial_n":43,"n_dots":3.55,"target":"left","response":"left","rt":450,"correct":true,"confidence":4},{"trial_n":44,"n_dots":3.45,"target":"left","response":"left","rt":256,"correct":true,"confidence":4},{"trial_n":45,"n_dots":3.45,"target":"left","response":"left","rt":143,"correct":true,"confidence":4},{"trial_n":46,"n_dots":3.35,"target":"right","response":"right","rt":61,"correct":true,"confidence":4},{"trial_n":47,"n_dots":3.35,"target":"left","response":"left","rt":331,"correct":true,"confidence":4},{"trial_n":48,"n_dots":3.25,"target":"right","response":"right","rt":212,"correct":true,"confidence":4},{"trial_n":49,"n_dots":3.25,"target":"left","response":"left","rt":480,"correct":true,"confidence":4},{"trial_n":50,"n_dots":3.15,"target":"right","response":"right","rt":330,"correct":true,"confidence":4},{"trial_n":51,"n_dots":3.15,"target":"left","response":"left","rt":289,"correct":true,"confidence":4},{"trial_n":52,"n_dots":3.05,"target":"right","response":"right","rt":185,"correct":true,"confidence":4},{"trial_n":53,"n_dots":3.05,"target":"right","response":"right","rt":328,"correct":true,"confidence":4},{"trial_n":54,"n_dots":2.95,"target":"right","response":"left","rt":1528,"correct":false,"confidence":4},{"trial_n":55,"n_dots":3.05,"target":"right","response":"right","rt":434,"correct":true,"confidence":4},{"trial_n":56,"n_dots":3.05,"target":"right","response":"right","rt":372,"correct":true,"confidence":4},{"trial_n":57,"n_dots":2.95,"target":"right","response":"right","rt":834,"correct":true,"confidence":3},{"trial_n":58,"n_dots":2.95,"target":"left","response":"left","rt":303,"correct":true,"confidence":3},{"trial_n":59,"n_dots":2.85,"target":"right","response":"left","rt":684,"correct":false,"confidence":4},{"trial_n":60,"n_dots":2.95,"target":"right","response":"left","rt":638,"correct":false,"confidence":4},{"trial_n":61,"n_dots":3.05,"target":"right","response":"left","rt":325,"correct":false,"confidence":4},{"trial_n":62,"n_dots":3.15,"target":"left","response":"right","rt":450,"correct":false,"confidence":1},{"trial_n":63,"n_dots":3.25,"target":"left","response":"left","rt":512,"correct":true,"confidence":1},{"trial_n":64,"n_dots":3.25,"target":"right","response":"left","rt":592,"correct":false,"confidence":1},{"trial_n":65,"n_dots":3.35,"target":"left","response":"left","rt":223,"correct":true,"confidence":4},{"trial_n":66,"n_dots":3.35,"target":"right","response":"right","rt":357,"correct":true,"confidence":4},{"trial_n":67,"n_dots":3.25,"target":"left","response":"left","rt":163,"correct":true,"confidence":4},{"trial_n":68,"n_dots":3.25,"target":"right","response":"left","rt":521,"correct":false,"confidence":4},{"trial_n":69,"n_dots":3.35,"target":"right","response":"right","rt":208,"correct":true,"confidence":4},{"trial_n":70,"n_dots":3.35,"target":"right","response":"left","rt":458,"correct":false,"confidence":4},{"trial_n":71,"n_dots":3.45,"target":"left","response":"left","rt":532,"correct":true,"confidence":4},{"trial_n":72,"n_dots":3.45,"target":"right","response":"right","rt":39,"correct":true,"confidence":4},{"trial_n":73,"n_dots":3.35,"target":"right","response":"left","rt":434,"correct":false,"confidence":4},{"trial_n":74,"n_dots":3.45,"target":"right","response":"right","rt":459,"correct":true,"confidence":4},{"trial_n":75,"n_dots":3.45,"target":"right","response":"right","rt":277,"correct":true,"confidence":4},{"trial_n":76,"n_dots":3.35,"target":"right","response":"right","rt":335,"correct":true,"confidence":4},{"trial_n":77,"n_dots":3.35,"target":"left","response":"left","rt":206,"correct":true,"confidence":4},{"trial_n":78,"n_dots":3.25,"target":"right","response":"left","rt":598,"correct":false,"confidence":4},{"trial_n":79,"n_dots":3.35,"target":"right","response":"right","rt":450,"correct":true,"confidence":4},{"trial_n":80,"n_dots":3.35,"target":"left","response":"left","rt":121,"correct":true,"confidence":4},{"trial_n":81,"n_dots":3.25,"target":"right","response":"left","rt":627,"correct":false,"confidence":4},{"trial_n":82,"n_dots":3.35,"target":"left","response":"left","rt":292,"correct":true,"confidence":4},{"trial_n":83,"n_dots":3.35,"target":"right","response":"right","rt":200,"correct":true,"confidence":4},{"trial_n":84,"n_dots":3.25,"target":"left","response":"left","rt":170,"correct":true,"confidence":4},{"trial_n":85,"n_dots":3.25,"target":"right","response":"right","rt":186,"correct":true,"confidence":4},{"trial_n":86,"n_dots":3.15,"target":"right","response":"left","rt":174,"correct":false,"confidence":4},{"trial_n":87,"n_dots":3.25,"target":"right","response":"left","rt":605,"correct":false,"confidence":1},{"trial_n":88,"n_dots":3.35,"target":"left","response":"right","rt":262,"correct":false,"confidence":1},{"trial_n":89,"n_dots":3.45,"target":"right","response":"right","rt":270,"correct":true,"confidence":4},{"trial_n":90,"n_dots":3.45,"target":"right","response":"left","rt":112,"correct":false,"confidence":4},{"trial_n":91,"n_dots":3.55,"target":"left","response":"left","rt":368,"correct":true,"confidence":4},{"trial_n":92,"n_dots":3.55,"target":"left","response":"left","rt":85,"correct":true,"confidence":4},{"trial_n":93,"n_dots":3.45,"target":"right","response":"right","rt":134,"correct":true,"confidence":4},{"trial_n":94,"n_dots":3.45,"target":"right","response":"left","rt":96,"correct":false,"confidence":4},{"trial_n":95,"n_dots":3.55,"target":"right","response":"right","rt":6,"correct":true,"confidence":4},{"trial_n":96,"n_dots":3.55,"target":"right","response":"left","rt":316,"correct":false,"confidence":4},{"trial_n":97,"n_dots":3.65,"target":"right","response":"right","rt":305,"correct":true,"confidence":4},{"trial_n":98,"n_dots":3.65,"target":"left","response":"left","rt":104,"correct":true,"confidence":4},{"trial_n":99,"n_dots":3.55,"target":"right","response":"right","rt":223,"correct":true,"confidence":4},{"trial_n":100,"n_dots":3.55,"target":"left","response":"left","rt":286,"correct":true,"confidence":4},{"trial_n":101,"n_dots":3.45,"target":"left","response":"left","rt":9,"correct":true,"confidence":4},{"trial_n":102,"n_dots":3.45,"target":"left","response":"left","rt":603,"correct":true,"confidence":4},{"trial_n":103,"n_dots":3.35,"target":"right","response":"right","rt":278,"correct":true,"confidence":4},{"trial_n":104,"n_dots":3.35,"target":"right","response":"right","rt":359,"correct":true,"confidence":1},{"trial_n":105,"n_dots":3.25,"target":"left","response":"left","rt":346,"correct":true,"confidence":4},{"trial_n":106,"n_dots":3.25,"target":"right","response":"right","rt":341,"correct":true,"confidence":4},{"trial_n":107,"n_dots":3.15,"target":"right","response":"right","rt":406,"correct":true,"confidence":4},{"trial_n":108,"n_dots":3.15,"target":"left","response":"left","rt":294,"correct":true,"confidence":4},{"trial_n":109,"n_dots":3.05,"target":"right","response":"left","rt":354,"correct":false,"confidence":4},{"trial_n":110,"n_dots":3.15,"target":"right","response":"right","rt":357,"correct":true,"confidence":4},{"trial_n":111,"n_dots":3.15,"target":"left","response":"left","rt":314,"correct":true,"confidence":4},{"trial_n":112,"n_dots":3.05,"target":"left","response":"left","rt":371,"correct":true,"confidence":4},{"trial_n":113,"n_dots":3.05,"target":"right","response":"left","rt":206,"correct":false,"confidence":4},{"trial_n":114,"n_dots":3.15,"target":"right","response":"right","rt":416,"correct":true,"confidence":4},{"trial_n":115,"n_dots":3.15,"target":"right","response":"right","rt":358,"correct":true,"confidence":4},{"trial_n":116,"n_dots":3.05,"target":"left","response":"right","rt":434,"correct":false,"confidence":4},{"trial_n":117,"n_dots":3.15,"target":"left","response":"left","rt":283,"correct":true,"confidence":4},{"trial_n":118,"n_dots":3.15,"target":"left","response":"left","rt":482,"correct":true,"confidence":4},{"trial_n":119,"n_dots":3.05,"target":"left","response":"right","rt":381,"correct":false,"confidence":1},{"trial_n":120,"n_dots":3.15,"target":"right","response":"right","rt":382,"correct":true,"confidence":1},{"trial_n":121,"n_dots":3.15,"target":"right","response":"right","rt":418,"correct":true,"confidence":1},{"trial_n":122,"n_dots":3.05,"target":"left","response":"right","rt":339,"correct":false,"confidence":4},{"trial_n":123,"n_dots":3.15,"target":"left","response":"left","rt":360,"correct":true,"confidence":1},{"trial_n":124,"n_dots":3.15,"target":"right","response":"right","rt":208,"correct":true,"confidence":4},{"trial_n":125,"n_dots":3.05,"target":"right","response":"right","rt":293,"correct":true,"confidence":4},{"trial_n":126,"n_dots":3.05,"target":"left","response":"left","rt":101,"correct":true,"confidence":4},{"trial_n":127,"n_dots":2.95,"target":"left","response":"left","rt":249,"correct":true,"confidence":4},{"trial_n":128,"n_dots":2.95,"target":"left","response":"left","rt":333,"correct":true,"confidence":4},{"trial_n":129,"n_dots":2.85,"target":"right","response":"left","rt":287,"correct":false,"confidence":4},{"trial_n":130,"n_dots":2.95,"target":"left","response":"left","rt":211,"correct":true,"confidence":4},{"trial_n":131,"n_dots":2.95,"target":"left","response":"left","rt":189,"correct":true,"confidence":4},{"trial_n":132,"n_dots":2.85,"target":"left","response":"left","rt":232,"correct":true,"confidence":4},{"trial_n":133,"n_dots":2.85,"target":"left","response":"left","rt":262,"correct":true,"confidence":4},{"trial_n":134,"n_dots":2.75,"target":"left","response":"left","rt":106,"correct":true,"confidence":4},{"trial_n":135,"n_dots":2.75,"target":"right","response":"left","rt":136,"correct":false,"confidence":4},{"trial_n":136,"n_dots":2.85,"target":"right","response":"right","rt":304,"correct":true,"confidence":1},{"trial_n":137,"n_dots":2.85,"target":"right","response":"left","rt":318,"correct":false,"confidence":4},{"trial_n":138,"n_dots":2.95,"target":"left","response":"left","rt":131,"correct":true,"confidence":4},{"trial_n":139,"n_dots":2.95,"target":"right","response":"left","rt":255,"correct":false,"confidence":1},{"trial_n":140,"n_dots":3.05,"target":"right","response":"left","rt":377,"correct":false,"confidence":4},{"trial_n":141,"n_dots":3.15,"target":"left","response":"left","rt":199,"correct":true,"confidence":4},{"trial_n":142,"n_dots":3.15,"target":"right","response":"left","rt":212,"correct":false,"confidence":4},{"trial_n":143,"n_dots":3.25,"target":"left","response":"left","rt":278,"correct":true,"confidence":4},{"trial_n":144,"n_dots":3.25,"target":"right","response":"left","rt":154,"correct":false,"confidence":4},{"trial_n":145,"n_dots":3.35,"target":"left","response":"left","rt":198,"correct":true,"confidence":4},{"trial_n":146,"n_dots":3.35,"target":"left","response":"left","rt":303,"correct":true,"confidence":1},{"trial_n":147,"n_dots":3.25,"target":"right","response":"left","rt":282,"correct":false,"confidence":4},{"trial_n":148,"n_dots":3.35,"target":"right","response":"left","rt":154,"correct":false,"confidence":4},{"trial_n":149,"n_dots":3.45,"target":"left","response":"left","rt":295,"correct":true,"confidence":4},{"trial_n":150,"n_dots":3.45,"target":"right","response":"right","rt":240,"correct":true,"confidence":4},{"trial_n":151,"n_dots":3.35,"target":"left","response":"left","rt":259,"correct":true,"confidence":4},{"trial_n":152,"n_dots":3.35,"target":"left","response":"left","rt":248,"correct":true,"confidence":4},{"trial_n":153,"n_dots":3.25,"target":"right","response":"left","rt":201,"correct":false,"confidence":4},{"trial_n":154,"n_dots":3.35,"target":"left","response":"right","rt":232,"correct":false,"confidence":1},{"trial_n":155,"n_dots":3.45,"target":"left","response":"left","rt":168,"correct":true,"confidence":4},{"trial_n":156,"n_dots":3.45,"target":"right","response":"left","rt":284,"correct":false,"confidence":4},{"trial_n":157,"n_dots":3.55,"target":"right","response":"right","rt":113,"correct":true,"confidence":4},{"trial_n":158,"n_dots":3.55,"target":"right","response":"right","rt":303,"correct":true,"confidence":4},{"trial_n":159,"n_dots":3.45,"target":"left","response":"left","rt":285,"correct":true,"confidence":4},{"trial_n":160,"n_dots":3.45,"target":"left","response":"right","rt":246,"correct":false,"confidence":1},{"trial_n":161,"n_dots":3.55,"target":"right","response":"left","rt":286,"correct":false,"confidence":4},{"trial_n":162,"n_dots":3.65,"target":"left","response":"left","rt":247,"correct":true,"confidence":4},{"trial_n":163,"n_dots":3.65,"target":"right","response":"right","rt":105,"correct":true,"confidence":4},{"trial_n":164,"n_dots":3.55,"target":"left","response":"left","rt":79,"correct":true,"confidence":5},{"trial_n":165,"n_dots":3.55,"target":"left","response":"left","rt":87,"correct":true,"confidence":4},{"trial_n":166,"n_dots":3.45,"target":"left","response":"left","rt":183,"correct":true,"confidence":4},{"trial_n":167,"n_dots":3.45,"target":"left","response":"left","rt":165,"correct":true,"confidence":4},{"trial_n":168,"n_dots":3.35,"target":"right","response":"right","rt":88,"correct":true,"confidence":4},{"trial_n":169,"n_dots":3.35,"target":"left","response":"left","rt":247,"correct":true,"confidence":4},{"trial_n":170,"n_dots":3.25,"target":"right","response":"left","rt":202,"correct":false,"confidence":4},{"trial_n":171,"n_dots":3.35,"target":"left","response":"left","rt":158,"correct":true,"confidence":4},{"trial_n":172,"n_dots":3.35,"target":"left","response":"left","rt":207,"correct":true,"confidence":4},{"trial_n":173,"n_dots":3.25,"target":"left","response":"left","rt":278,"correct":true,"confidence":1},{"trial_n":174,"n_dots":3.25,"target":"left","response":"left","rt":450,"correct":true,"confidence":4},{"trial_n":175,"n_dots":3.15,"target":"right","response":"right","rt":246,"correct":true,"confidence":4},{"trial_n":176,"n_dots":3.15,"target":"right","response":"right","rt":317,"correct":true,"confidence":4},{"trial_n":177,"n_dots":3.05,"target":"right","response":"right","rt":445,"correct":true,"confidence":1},{"trial_n":178,"n_dots":3.05,"target":"left","response":"left","rt":235,"correct":true,"confidence":4},{"trial_n":179,"n_dots":2.95,"target":"left","response":"left","rt":272,"correct":true,"confidence":4},{"trial_n":180,"n_dots":2.95,"target":"right","response":"left","rt":227,"correct":false,"confidence":4},{"trial_n":181,"n_dots":3.05,"target":"left","response":"left","rt":255,"correct":true,"confidence":1},{"trial_n":182,"n_dots":3.05,"target":"right","response":"right","rt":161,"correct":true,"confidence":4},{"trial_n":183,"n_dots":2.95,"target":"right","response":"left","rt":256,"correct":false,"confidence":1},{"trial_n":184,"n_dots":3.05,"target":"right","response":"left","rt":239,"correct":false,"confidence":1},{"trial_n":185,"n_dots":3.15,"target":"right","response":"right","rt":179,"correct":true,"confidence":4},{"trial_n":186,"n_dots":3.15,"target":"left","response":"left","rt":212,"correct":true,"confidence":1},{"trial_n":187,"n_dots":3.05,"target":"left","response":"left","rt":312,"correct":true,"confidence":1},{"trial_n":188,"n_dots":3.05,"target":"right","response":"right","rt":137,"correct":true,"confidence":1},{"trial_n":189,"n_dots":2.95,"target":"left","response":"left","rt":158,"correct":true,"confidence":1},{"trial_n":190,"n_dots":2.95,"target":"left","response":"left","rt":318,"correct":true,"confidence":1},{"trial_n":191,"n_dots":2.85,"target":"left","response":"right","rt":330,"correct":false,"confidence":1},{"trial_n":192,"n_dots":2.95,"target":"right","response":"right","rt":326,"correct":true,"confidence":1},{"trial_n":193,"n_dots":2.95,"target":"left","response":"left","rt":295,"correct":true,"confidence":1},{"trial_n":194,"n_dots":2.85,"target":"right","response":"left","rt":277,"correct":false,"confidence":1}]