[{"trial_n":1,"n_dots":4.25,"target":"right","response":"left","rt":10804.9,"correct":false,"confidence":-1},{"trial_n":2,"n_dots":4.25,"target":"right","response":"right","rt":1634.3999999994,"correct":true,"confidence":-1},{"trial_n":3,"n_dots":4.25,"target":"left","response":"left","rt":1035.5999999996,"correct":true,"confidence":-1},{"trial_n":4,"n_dots":3.85,"target":"left","response":"right","rt":931.09999999963,"correct":false,"confidence":-1},{"trial_n":5,"n_dots":4.25,"target":"right","response":"right","rt":741.5,"correct":true,"confidence":-1},{"trial_n":6,"n_dots":4.25,"target":"left","response":"left","rt":879.40000000037,"correct":true,"confidence":-1},{"trial_n":7,"n_dots":3.85,"target":"right","response":"right","rt":1013.5,"correct":true,"confidence":-1},{"trial_n":8,"n_dots":3.85,"target":"right","response":"right","rt":679.10000000056,"correct":true,"confidence":-1},{"trial_n":9,"n_dots":3.65,"target":"left","response":"left","rt":896.39999999944,"correct":true,"confidence":-1},{"trial_n":10,"n_dots":3.65,"target":"right","response":"right","rt":894.70000000019,"correct":true,"confidence":-1},{"trial_n":11,"n_dots":3.45,"target":"left","response":"right","rt":590.79999999981,"correct":false,"confidence":-1},{"trial_n":12,"n_dots":3.65,"target":"left","response":"left","rt":1010.7999999998,"correct":true,"confidence":-1},{"trial_n":13,"n_dots":3.65,"target":"left","response":"left","rt":1052.8999999994,"correct":true,"confidence":-1},{"trial_n":14,"n_dots":3.55,"target":"right","response":"right","rt":318.40000000037,"correct":true,"confidence":-1},{"trial_n":15,"n_dots":3.55,"target":"right","response":"right","rt":311.10000000056,"correct":true,"confidence":-1},{"trial_n":16,"n_dots":3.45,"target":"right","response":"right","rt":262.70000000019,"correct":true,"confidence":-1},{"trial_n":17,"n_dots":3.45,"target":"left","response":"left","rt":356.79999999981,"correct":true,"confidence":-1},{"trial_n":18,"n_dots":3.35,"target":"right","response":"right","rt":381.70000000019,"correct":true,"confidence":-1},{"trial_n":19,"n_dots":3.35,"target":"right","response":"right","rt":439.09999999963,"correct":true,"confidence":-1},{"trial_n":20,"n_dots":3.25,"target":"left","response":"left","rt":451.10000000056,"correct":true,"confidence":-1},{"trial_n":21,"n_dots":3.25,"target":"right","response":"right","rt":376.59999999963,"correct":true,"confidence":-1},{"trial_n":22,"n_dots":3.15,"target":"right","response":"left","rt":517.30000000075,"correct":false,"confidence":-1},{"trial_n":23,"n_dots":3.25,"target":"left","response":"right","rt":805.5,"correct":false,"confidence":-1},{"trial_n":24,"n_dots":3.35,"target":"left","response":"left","rt":547.5,"correct":true,"confidence":-1},{"trial_n":25,"n_dots":3.35,"target":"left","response":"right","rt":717.20000000019,"correct":false,"confidence":-1},{"trial_n":26,"n_dots":3.45,"target":"left","response":"left","rt":1321.2999999998,"correct":true,"confidence":-1},{"trial_n":27,"n_dots":3.45,"target":"right","response":"right","rt":335.70000000019,"correct":true,"confidence":5},{"trial_n":28,"n_dots":3.35,"target":"left","response":"left","rt":590.09999999963,"correct":true,"confidence":4},{"trial_n":29,"n_dots":3.35,"target":"right","response":"right","rt":376.5,"correct":true,"confidence":6},{"trial_n":30,"n_dots":3.25,"target":"right","response":"right","rt":513.59999999963,"correct":true,"confidence":6},{"trial_n":31,"n_dots":3.25,"target":"right","response":"right","rt":662.90000000037,"correct":true,"confidence":3},{"trial_n":32,"n_dots":3.15,"target":"right","response":"right","rt":469,"correct":true,"confidence":6},{"trial_n":33,"n_dots":3.15,"target":"left","response":"right","rt":483.70000000019,"correct":false,"confidence":5},{"trial_n":34,"n_dots":3.25,"target":"left","response":"right","rt":539.70000000019,"correct":false,"confidence":3},{"trial_n":35,"n_dots":3.35,"target":"left","response":"left","rt":1059.7000000002,"correct":true,"confidence":2},{"trial_n":36,"n_dots":3.35,"target":"left","response":"left","rt":772,"correct":true,"confidence":6},{"trial_n":37,"n_dots":3.25,"target":"left","response":"left","rt":665.70000000019,"correct":true,"confidence":4},{"trial_n":38,"n_dots":3.25,"target":"left","response":"right","rt":725.19999999925,"correct":false,"confidence":5},{"trial_n":39,"n_dots":3.35,"target":"left","response":"left","rt":1663.5999999996,"correct":true,"confidence":6},{"trial_n":40,"n_dots":3.35,"target":"right","response":"right","rt":1078.4000000004,"correct":true,"confidence":6},{"trial_n":41,"n_dots":3.25,"target":"left","response":"right","rt":682.89999999944,"correct":false,"confidence":4},{"trial_n":42,"n_dots":3.35,"target":"left","response":"left","rt":961.70000000019,"correct":true,"confidence":2},{"trial_n":43,"n_dots":3.35,"target":"left","response":"right","rt":615,"correct":false,"confidence":4},{"trial_n":44,"n_dots":3.45,"target":"right","response":"right","rt":666.79999999981,"correct":true,"confidence":4},{"trial_n":45,"n_dots":3.45,"target":"left","response":"left","rt":514.40000000037,"correct":true,"confidence":6},{"trial_n":46,"n_dots":3.35,"target":"right","response":"right","rt":719.39999999944,"correct":true,"confidence":4},{"trial_n":47,"n_dots":3.35,"target":"right","response":"left","rt":776.90000000037,"correct":false,"confidence":2},{"trial_n":48,"n_dots":3.45,"target":"right","response":"left","rt":699.39999999944,"correct":false,"confidence":3},{"trial_n":49,"n_dots":3.55,"target":"left","response":"left","rt":803,"correct":true,"confidence":6},{"trial_n":50,"n_dots":3.55,"target":"left","response":"left","rt":660.59999999963,"correct":true,"confidence":6},{"trial_n":51,"n_dots":3.45,"target":"left","response":"left","rt":609.79999999981,"correct":true,"confidence":4},{"trial_n":52,"n_dots":3.45,"target":"right","response":"left","rt":698,"correct":false,"confidence":2},{"trial_n":53,"n_dots":3.55,"target":"right","response":"right","rt":1731.0999999996,"correct":true,"confidence":4},{"trial_n":54,"n_dots":3.55,"target":"right","response":"left","rt":647.29999999981,"correct":false,"confidence":3},{"trial_n":55,"n_dots":3.65,"target":"left","response":"left","rt":708.59999999963,"correct":true,"confidence":6},{"trial_n":56,"n_dots":3.65,"target":"left","response":"left","rt":646.10000000056,"correct":true,"confidence":4},{"trial_n":57,"n_dots":3.55,"target":"left","response":"right","rt":725.89999999944,"correct":false,"confidence":3},{"trial_n":58,"n_dots":3.65,"target":"right","response":"right","rt":679.5,"correct":true,"confidence":6},{"trial_n":59,"n_dots":3.65,"target":"right","response":"right","rt":655.70000000019,"correct":true,"confidence":4},{"trial_n":60,"n_dots":3.55,"target":"right","response":"right","rt":866.60000000056,"correct":true,"confidence":3},{"trial_n":61,"n_dots":3.55,"target":"right","response":"right","rt":625.20000000019,"correct":true,"confidence":5},{"trial_n":62,"n_dots":3.45,"target":"right","response":"right","rt":570.89999999944,"correct":true,"confidence":4},{"trial_n":63,"n_dots":3.45,"target":"right","response":"right","rt":581.29999999981,"correct":true,"confidence":3},{"trial_n":64,"n_dots":3.35,"target":"right","response":"right","rt":641.59999999963,"correct":true,"confidence":6},{"trial_n":65,"n_dots":3.35,"target":"right","response":"right","rt":1174.2000000002,"correct":true,"confidence":1},{"trial_n":66,"n_dots":3.25,"target":"left","response":"left","rt":795.89999999944,"correct":true,"confidence":2},{"trial_n":67,"n_dots":3.25,"target":"left","response":"left","rt":868.29999999981,"correct":true,"confidence":3},{"trial_n":68,"n_dots":3.15,"target":"right","response":"left","rt":903,"correct":false,"confidence":3},{"trial_n":69,"n_dots":3.25,"target":"right","response":"right","rt":454.60000000056,"correct":true,"confidence":6},{"trial_n":70,"n_dots":3.25,"target":"left","response":"right","rt":797.90000000037,"correct":false,"confidence":4},{"trial_n":71,"n_dots":3.35,"target":"right","response":"right","rt":383.60000000056,"correct":true,"confidence":4},{"trial_n":72,"n_dots":3.35,"target":"left","response":"left","rt":336.30000000075,"correct":true,"confidence":6},{"trial_n":73,"n_dots":3.25,"target":"right","response":"right","rt":448.89999999944,"correct":true,"confidence":3},{"trial_n":74,"n_dots":3.25,"target":"left","response":"right","rt":494.10000000056,"correct":false,"confidence":2},{"trial_n":75,"n_dots":3.35,"target":"right","response":"right","rt":684.59999999963,"correct":true,"confidence":1},{"trial_n":76,"n_dots":3.35,"target":"left","response":"right","rt":1142.9000000004,"correct":false,"confidence":4},{"trial_n":77,"n_dots":3.45,"target":"right","response":"right","rt":722.70000000019,"correct":true,"confidence":3},{"trial_n":78,"n_dots":3.45,"target":"left","response":"left","rt":646.90000000037,"correct":true,"confidence":2},{"trial_n":79,"n_dots":3.35,"target":"right","response":"right","rt":341.90000000037,"correct":true,"confidence":6},{"trial_n":80,"n_dots":3.35,"target":"left","response":"left","rt":740.90000000037,"correct":true,"confidence":3},{"trial_n":81,"n_dots":3.25,"target":"left","response":"right","rt":696.70000000019,"correct":false,"confidence":5},{"trial_n":82,"n_dots":3.35,"target":"left","response":"left","rt":511.30000000075,"correct":true,"confidence":3},{"trial_n":83,"n_dots":3.35,"target":"right","response":"right","rt":402.39999999944,"correct":true,"confidence":4},{"trial_n":84,"n_dots":3.25,"target":"right","response":"right","rt":564.20000000019,"correct":true,"confidence":5},{"trial_n":85,"n_dots":3.25,"target":"left","response":"left","rt":484.40000000037,"correct":true,"confidence":2},{"trial_n":86,"n_dots":3.15,"target":"right","response":"right","rt":523.90000000037,"correct":true,"confidence":4},{"trial_n":87,"n_dots":3.15,"target":"left","response":"left","rt":658,"correct":true,"confidence":5},{"trial_n":88,"n_dots":3.05,"target":"left","response":"right","rt":550.20000000019,"correct":false,"confidence":2},{"trial_n":89,"n_dots":3.15,"target":"left","response":"left","rt":611.60000000056,"correct":true,"confidence":2},{"trial_n":90,"n_dots":3.15,"target":"right","response":"left","rt":903.20000000019,"correct":false,"confidence":1},{"trial_n":91,"n_dots":3.25,"target":"left","response":"right","rt":684.39999999944,"correct":false,"confidence":3},{"trial_n":92,"n_dots":3.35,"target":"left","response":"left","rt":639,"correct":true,"confidence":3},{"trial_n":93,"n_dots":3.35,"target":"left","response":"right","rt":1123.1000000006,"correct":false,"confidence":1},{"trial_n":94,"n_dots":3.45,"target":"right","response":"right","rt":599.90000000037,"correct":true,"confidence":6},{"trial_n":95,"n_dots":3.45,"target":"left","response":"right","rt":1058,"correct":false,"confidence":2},{"trial_n":96,"n_dots":3.55,"target":"left","response":"left","rt":590.29999999981,"correct":true,"confidence":6},{"trial_n":97,"n_dots":3.55,"target":"right","response":"right","rt":542,"correct":true,"confidence":6},{"trial_n":98,"n_dots":3.45,"target":"left","response":"left","rt":1504.5999999996,"correct":true,"confidence":3},{"trial_n":99,"n_dots":3.45,"target":"left","response":"left","rt":599.70000000019,"correct":true,"confidence":2},{"trial_n":100,"n_dots":3.35,"target":"right","response":"right","rt":437.59999999963,"correct":true,"confidence":2},{"trial_n":101,"n_dots":3.35,"target":"left","response":"left","rt":929,"correct":true,"confidence":3},{"trial_n":102,"n_dots":3.25,"target":"left","response":"left","rt":484.80000000075,"correct":true,"confidence":2},{"trial_n":103,"n_dots":3.25,"target":"left","response":"left","rt":521.70000000019,"correct":true,"confidence":1},{"trial_n":104,"n_dots":3.15,"target":"left","response":"right","rt":609.29999999981,"correct":false,"confidence":4},{"trial_n":105,"n_dots":3.25,"target":"left","response":"right","rt":605.10000000056,"correct":false,"confidence":5},{"trial_n":106,"n_dots":3.35,"target":"right","response":"right","rt":411.09999999963,"correct":true,"confidence":6},{"trial_n":107,"n_dots":3.35,"target":"right","response":"right","rt":507.90000000037,"correct":true,"confidence":6},{"trial_n":108,"n_dots":3.25,"target":"left","response":"left","rt":588.5,"correct":true,"confidence":6},{"trial_n":109,"n_dots":3.25,"target":"left","response":"right","rt":509.69999999925,"correct":false,"confidence":3},{"trial_n":110,"n_dots":3.35,"target":"left","response":"left","rt":383.20000000019,"correct":true,"confidence":4},{"trial_n":111,"n_dots":3.35,"target":"right","response":"left","rt":412.90000000037,"correct":false,"confidence":6},{"trial_n":112,"n_dots":3.45,"target":"left","response":"left","rt":396.59999999963,"correct":true,"confidence":3},{"trial_n":113,"n_dots":3.45,"target":"right","response":"left","rt":610,"correct":false,"confidence":3},{"trial_n":114,"n_dots":3.55,"target":"left","response":"left","rt":429.5,"correct":true,"confidence":6},{"trial_n":115,"n_dots":3.55,"target":"right","response":"right","rt":535.40000000037,"correct":true,"confidence":6},{"trial_n":116,"n_dots":3.45,"target":"right","response":"right","rt":415.89999999944,"correct":true,"confidence":4},{"trial_n":117,"n_dots":3.45,"target":"right","response":"right","rt":621,"correct":true,"confidence":2},{"trial_n":118,"n_dots":3.35,"target":"right","response":"right","rt":471.59999999963,"correct":true,"confidence":1},{"trial_n":119,"n_dots":3.35,"target":"left","response":"left","rt":535.59999999963,"correct":true,"confidence":2},{"trial_n":120,"n_dots":3.25,"target":"left","response":"left","rt":367.09999999963,"correct":true,"confidence":6},{"trial_n":121,"n_dots":3.25,"target":"left","response":"left","rt":719.89999999944,"correct":true,"confidence":4},{"trial_n":122,"n_dots":3.15,"target":"right","response":"right","rt":504.79999999981,"correct":true,"confidence":6},{"trial_n":123,"n_dots":3.15,"target":"right","response":"right","rt":616.40000000037,"correct":true,"confidence":6},{"trial_n":124,"n_dots":3.05,"target":"right","response":"left","rt":514.60000000056,"correct":false,"confidence":4},{"trial_n":125,"n_dots":3.15,"target":"left","response":"left","rt":641.70000000019,"correct":true,"confidence":1},{"trial_n":126,"n_dots":3.15,"target":"right","response":"right","rt":646,"correct":true,"confidence":5},{"trial_n":127,"n_dots":3.05,"target":"right","response":"left","rt":504.80000000075,"correct":false,"confidence":5},{"trial_n":128,"n_dots":3.15,"target":"right","response":"right","rt":518.79999999981,"correct":true,"confidence":6},{"trial_n":129,"n_dots":3.15,"target":"right","response":"right","rt":361.70000000019,"correct":true,"confidence":3},{"trial_n":130,"n_dots":3.05,"target":"left","response":"left","rt":420,"correct":true,"confidence":6},{"trial_n":131,"n_dots":3.05,"target":"right","response":"right","rt":335.59999999963,"correct":true,"confidence":6},{"trial_n":132,"n_dots":2.95,"target":"left","response":"left","rt":327,"correct":true,"confidence":5},{"trial_n":133,"n_dots":2.95,"target":"left","response":"right","rt":504,"correct":false,"confidence":2},{"trial_n":134,"n_dots":3.05,"target":"right","response":"right","rt":484.5,"correct":true,"confidence":5},{"trial_n":135,"n_dots":3.05,"target":"left","response":"left","rt":768.20000000019,"correct":true,"confidence":3},{"trial_n":136,"n_dots":2.95,"target":"right","response":"right","rt":729,"correct":true,"confidence":5},{"trial_n":137,"n_dots":2.95,"target":"right","response":"right","rt":425.20000000019,"correct":true,"confidence":6},{"trial_n":138,"n_dots":2.85,"target":"left","response":"left","rt":282.30000000075,"correct":true,"confidence":6},{"trial_n":139,"n_dots":2.85,"target":"right","response":"left","rt":676.5,"correct":false,"confidence":2},{"trial_n":140,"n_dots":2.95,"target":"left","response":"left","rt":786.79999999981,"correct":true,"confidence":3},{"trial_n":141,"n_dots":2.95,"target":"left","response":"left","rt":760.59999999963,"correct":true,"confidence":1},{"trial_n":142,"n_dots":2.85,"target":"left","response":"left","rt":1625.7000000002,"correct":true,"confidence":1},{"trial_n":143,"n_dots":2.85,"target":"right","response":"right","rt":350.30000000075,"correct":true,"confidence":6},{"trial_n":144,"n_dots":2.75,"target":"right","response":"right","rt":593.10000000056,"correct":true,"confidence":4},{"trial_n":145,"n_dots":2.75,"target":"right","response":"right","rt":704.30000000075,"correct":true,"confidence":3},{"trial_n":146,"n_dots":2.65,"target":"left","response":"left","rt":346.5,"correct":true,"confidence":6},{"trial_n":147,"n_dots":2.65,"target":"left","response":"left","rt":433.10000000056,"correct":true,"confidence":6},{"trial_n":148,"n_dots":2.55,"target":"right","response":"left","rt":484.29999999981,"correct":false,"confidence":4},{"trial_n":149,"n_dots":2.65,"target":"left","response":"left","rt":534.40000000037,"correct":true,"confidence":6},{"trial_n":150,"n_dots":2.65,"target":"left","response":"left","rt":534.20000000019,"correct":true,"confidence":5},{"trial_n":151,"n_dots":2.55,"target":"left","response":"left","rt":873,"correct":true,"confidence":1},{"trial_n":152,"n_dots":2.55,"target":"right","response":"left","rt":508.5,"correct":false,"confidence":4},{"trial_n":153,"n_dots":2.65,"target":"right","response":"left","rt":433.59999999963,"correct":false,"confidence":1},{"trial_n":154,"n_dots":2.75,"target":"left","response":"left","rt":484.5,"correct":true,"confidence":2},{"trial_n":155,"n_dots":2.75,"target":"left","response":"left","rt":493.79999999981,"correct":true,"confidence":3},{"trial_n":156,"n_dots":2.65,"target":"right","response":"left","rt":269.20000000019,"correct":false,"confidence":3},{"trial_n":157,"n_dots":2.75,"target":"right","response":"right","rt":502.79999999981,"correct":true,"confidence":5},{"trial_n":158,"n_dots":2.75,"target":"right","response":"right","rt":566.29999999981,"correct":true,"confidence":3},{"trial_n":159,"n_dots":2.65,"target":"right","response":"right","rt":429,"correct":true,"confidence":4},{"trial_n":160,"n_dots":2.65,"target":"left","response":"right","rt":450.09999999963,"correct":false,"confidence":3},{"trial_n":161,"n_dots":2.75,"target":"left","response":"left","rt":1877,"correct":true,"confidence":2},{"trial_n":162,"n_dots":2.75,"target":"right","response":"right","rt":338.20000000019,"correct":true,"confidence":6},{"trial_n":163,"n_dots":2.65,"target":"right","response":"left","rt":384.89999999944,"correct":false,"confidence":4},{"trial_n":164,"n_dots":2.75,"target":"right","response":"right","rt":456.39999999944,"correct":true,"confidence":6},{"trial_n":165,"n_dots":2.75,"target":"left","response":"left","rt":430.59999999963,"correct":true,"confidence":2},{"trial_n":166,"n_dots":2.65,"target":"right","response":"right","rt":743.5,"correct":true,"confidence":3},{"trial_n":167,"n_dots":2.65,"target":"right","response":"right","rt":431.90000000037,"correct":true,"confidence":6},{"trial_n":168,"n_dots":2.55,"target":"right","response":"left","rt":505.29999999981,"correct":false,"confidence":2},{"trial_n":169,"n_dots":2.65,"target":"left","response":"left","rt":412.40000000037,"correct":true,"confidence":6},{"trial_n":170,"n_dots":2.65,"target":"right","response":"right","rt":573.79999999981,"correct":true,"confidence":3},{"trial_n":171,"n_dots":2.55,"target":"left","response":"left","rt":675.5,"correct":true,"confidence":3},{"trial_n":172,"n_dots":2.55,"target":"right","response":"right","rt":279.79999999981,"correct":true,"confidence":6},{"trial_n":173,"n_dots":2.45,"target":"left","response":"left","rt":357,"correct":true,"confidence":1},{"trial_n":174,"n_dots":2.45,"target":"left","response":"left","rt":283.60000000056,"correct":true,"confidence":6},{"trial_n":175,"n_dots":2.35,"target":"left","response":"right","rt":944.20000000019,"correct":false,"confidence":1},{"trial_n":176,"n_dots":2.45,"target":"left","response":"right","rt":881,"correct":false,"confidence":3},{"trial_n":177,"n_dots":2.55,"target":"right","response":"right","rt":479.40000000037,"correct":true,"confidence":6},{"trial_n":178,"n_dots":2.55,"target":"right","response":"left","rt":745.29999999981,"correct":false,"confidence":3},{"trial_n":179,"n_dots":2.65,"target":"right","response":"left","rt":494,"correct":false,"confidence":5},{"trial_n":180,"n_dots":2.75,"target":"right","response":"left","rt":582.79999999981,"correct":false,"confidence":6},{"trial_n":181,"n_dots":2.85,"target":"right","response":"left","rt":559.70000000019,"correct":false,"confidence":2},{"trial_n":182,"n_dots":2.95,"target":"left","response":"left","rt":528.70000000019,"correct":true,"confidence":5},{"trial_n":183,"n_dots":2.95,"target":"right","response":"right","rt":414.59999999963,"correct":true,"confidence":3},{"trial_n":184,"n_dots":2.85,"target":"right","response":"right","rt":562.09999999963,"correct":true,"confidence":1},{"trial_n":185,"n_dots":2.85,"target":"right","response":"right","rt":337.09999999963,"correct":true,"confidence":6},{"trial_n":186,"n_dots":2.75,"target":"left","response":"left","rt":408.70000000019,"correct":true,"confidence":4},{"trial_n":187,"n_dots":2.75,"target":"left","response":"left","rt":581.70000000019,"correct":true,"confidence":5},{"trial_n":188,"n_dots":2.65,"target":"left","response":"right","rt":689.10000000056,"correct":false,"confidence":1},{"trial_n":189,"n_dots":2.75,"target":"right","response":"right","rt":461.5,"correct":true,"confidence":2},{"trial_n":190,"n_dots":2.75,"target":"left","response":"left","rt":529.90000000037,"correct":true,"confidence":1},{"trial_n":191,"n_dots":2.65,"target":"right","response":"right","rt":1567.8000000007,"correct":true,"confidence":4},{"trial_n":192,"n_dots":2.65,"target":"left","response":"left","rt":889.70000000019,"correct":true,"confidence":1},{"trial_n":193,"n_dots":2.55,"target":"left","response":"left","rt":870.70000000019,"correct":true,"confidence":2},{"trial_n":194,"n_dots":2.55,"target":"right","response":"left","rt":691.20000000019,"correct":false,"confidence":4}]