[{"trial_n":1,"n_dots":4.25,"target":"left","response":"left","rt":2651.7999999989,"correct":true,"confidence":-1},{"trial_n":2,"n_dots":4.25,"target":"left","response":"left","rt":1453.4000000004,"correct":true,"confidence":-1},{"trial_n":3,"n_dots":3.85,"target":"right","response":"right","rt":690,"correct":true,"confidence":-1},{"trial_n":4,"n_dots":3.85,"target":"left","response":"right","rt":574.69999999925,"correct":false,"confidence":-1},{"trial_n":5,"n_dots":4.25,"target":"left","response":"left","rt":382.5,"correct":true,"confidence":-1},{"trial_n":6,"n_dots":4.25,"target":"left","response":"left","rt":551.09999999963,"correct":true,"confidence":-1},{"trial_n":7,"n_dots":3.85,"target":"left","response":"left","rt":552.59999999963,"correct":true,"confidence":-1},{"trial_n":8,"n_dots":3.85,"target":"right","response":"right","rt":622.20000000112,"correct":true,"confidence":-1},{"trial_n":9,"n_dots":3.65,"target":"left","response":"left","rt":341.69999999925,"correct":true,"confidence":-1},{"trial_n":10,"n_dots":3.65,"target":"right","response":"right","rt":128.40000000037,"correct":true,"confidence":-1},{"trial_n":11,"n_dots":3.45,"target":"right","response":"right","rt":358.29999999888,"correct":true,"confidence":-1},{"trial_n":12,"n_dots":3.45,"target":"right","response":"right","rt":435.69999999925,"correct":true,"confidence":-1},{"trial_n":13,"n_dots":3.35,"target":"left","response":"left","rt":453.69999999925,"correct":true,"confidence":-1},{"trial_n":14,"n_dots":3.35,"target":"right","response":"right","rt":711.09999999963,"correct":true,"confidence":-1},{"trial_n":15,"n_dots":3.25,"target":"left","response":"right","rt":1000.7999999989,"correct":false,"confidence":-1},{"trial_n":16,"n_dots":3.35,"target":"right","response":"left","rt":619.39999999851,"correct":false,"confidence":-1},{"trial_n":17,"n_dots":3.45,"target":"right","response":"right","rt":423.30000000075,"correct":true,"confidence":-1},{"trial_n":18,"n_dots":3.45,"target":"right","response":"right","rt":540,"correct":true,"confidence":-1},{"trial_n":19,"n_dots":3.35,"target":"right","response":"right","rt":511.5,"correct":true,"confidence":-1},{"trial_n":20,"n_dots":3.35,"target":"right","response":"right","rt":774.30000000075,"correct":true,"confidence":-1},{"trial_n":21,"n_dots":3.25,"target":"left","response":"left","rt":529.90000000037,"correct":true,"confidence":-1},{"trial_n":22,"n_dots":3.25,"target":"right","response":"right","rt":512.80000000075,"correct":true,"confidence":-1},{"trial_n":23,"n_dots":3.15,"target":"left","response":"left","rt":458.30000000075,"correct":true,"confidence":-1},{"trial_n":24,"n_dots":3.15,"target":"right","response":"right","rt":326.59999999963,"correct":true,"confidence":-1},{"trial_n":25,"n_dots":3.05,"target":"right","response":"left","rt":516.89999999851,"correct":false,"confidence":-1},{"trial_n":26,"n_dots":3.15,"target":"left","response":"left","rt":353.69999999925,"correct":true,"confidence":-1},{"trial_n":27,"n_dots":3.15,"target":"left","response":"left","rt":2547.9000000004,"correct":true,"confidence":4},{"trial_n":28,"n_dots":3.05,"target":"left","response":"right","rt":366.40000000037,"correct":false,"confidence":6},{"trial_n":29,"n_dots":3.15,"target":"left","response":"left","rt":682.80000000075,"correct":true,"confidence":4},{"trial_n":30,"n_dots":3.15,"target":"left","response":"left","rt":425.5,"correct":true,"confidence":4},{"trial_n":31,"n_dots":3.05,"target":"right","response":"right","rt":393.40000000037,"correct":true,"confidence":6},{"trial_n":32,"n_dots":3.05,"target":"right","response":"left","rt":389.5,"correct":false,"confidence":3},{"trial_n":33,"n_dots":3.15,"target":"right","response":"right","rt":944.5,"correct":true,"confidence":5},{"trial_n":34,"n_dots":3.15,"target":"right","response":"right","rt":346.09999999963,"correct":true,"confidence":6},{"trial_n":35,"n_dots":3.05,"target":"left","response":"left","rt":398.5,"correct":true,"confidence":6},{"trial_n":36,"n_dots":3.05,"target":"left","response":"left","rt":449.20000000112,"correct":true,"confidence":5},{"trial_n":37,"n_dots":2.95,"target":"right","response":"left","rt":546.90000000037,"correct":false,"confidence":6},{"trial_n":38,"n_dots":3.05,"target":"right","response":"right","rt":459.59999999963,"correct":true,"confidence":6},{"trial_n":39,"n_dots":3.05,"target":"left","response":"left","rt":619,"correct":true,"confidence":6},{"trial_n":40,"n_dots":2.95,"target":"right","response":"right","rt":3697.7000000011,"correct":true,"confidence":1},{"trial_n":41,"n_dots":2.95,"target":"right","response":"left","rt":1205,"correct":false,"confidence":5},{"trial_n":42,"n_dots":3.05,"target":"left","response":"left","rt":540.5,"correct":true,"confidence":5},{"trial_n":43,"n_dots":3.05,"target":"right","response":"right","rt":698.90000000037,"correct":true,"confidence":4},{"trial_n":44,"n_dots":2.95,"target":"right","response":"right","rt":1171.3000000007,"correct":true,"confidence":5},{"trial_n":45,"n_dots":2.95,"target":"right","response":"right","rt":663.89999999851,"correct":true,"confidence":5},{"trial_n":46,"n_dots":2.85,"target":"left","response":"left","rt":661,"correct":true,"confidence":4},{"trial_n":47,"n_dots":2.85,"target":"right","response":"right","rt":979.5,"correct":true,"confidence":5},{"trial_n":48,"n_dots":2.75,"target":"right","response":"right","rt":974.40000000037,"correct":true,"confidence":5},{"trial_n":49,"n_dots":2.75,"target":"left","response":"left","rt":544.90000000037,"correct":true,"confidence":5},{"trial_n":50,"n_dots":2.65,"target":"right","response":"right","rt":1180.5,"correct":true,"confidence":1},{"trial_n":51,"n_dots":2.65,"target":"left","response":"left","rt":497.09999999963,"correct":true,"confidence":4},{"trial_n":52,"n_dots":2.55,"target":"right","response":"left","rt":679.30000000075,"correct":false,"confidence":4},{"trial_n":53,"n_dots":2.65,"target":"right","response":"right","rt":453,"correct":true,"confidence":6},{"trial_n":54,"n_dots":2.65,"target":"left","response":"left","rt":436.09999999963,"correct":true,"confidence":4},{"trial_n":55,"n_dots":2.55,"target":"left","response":"left","rt":468.30000000075,"correct":true,"confidence":3},{"trial_n":56,"n_dots":2.55,"target":"left","response":"left","rt":485.69999999925,"correct":true,"confidence":4},{"trial_n":57,"n_dots":2.45,"target":"right","response":"right","rt":414.90000000037,"correct":true,"confidence":4},{"trial_n":58,"n_dots":2.45,"target":"right","response":"right","rt":843.5,"correct":true,"confidence":5},{"trial_n":59,"n_dots":2.35,"target":"left","response":"left","rt":504.90000000037,"correct":true,"confidence":4},{"trial_n":60,"n_dots":2.35,"target":"left","response":"right","rt":464.20000000112,"correct":false,"confidence":3},{"trial_n":61,"n_dots":2.45,"target":"left","response":"left","rt":1462.9000000004,"correct":true,"confidence":4},{"trial_n":62,"n_dots":2.45,"target":"left","response":"left","rt":401.30000000075,"correct":true,"confidence":3},{"trial_n":63,"n_dots":2.35,"target":"left","response":"left","rt":576.59999999963,"correct":true,"confidence":3},{"trial_n":64,"n_dots":2.35,"target":"left","response":"right","rt":411.60000000149,"correct":false,"confidence":4},{"trial_n":65,"n_dots":2.45,"target":"right","response":"right","rt":820.29999999888,"correct":true,"confidence":1},{"trial_n":66,"n_dots":2.45,"target":"left","response":"left","rt":2031.9000000004,"correct":true,"confidence":1},{"trial_n":67,"n_dots":2.35,"target":"right","response":"right","rt":442.30000000075,"correct":true,"confidence":5},{"trial_n":68,"n_dots":2.35,"target":"right","response":"right","rt":549.30000000075,"correct":true,"confidence":4},{"trial_n":69,"n_dots":2.25,"target":"right","response":"right","rt":452.5,"correct":true,"confidence":5},{"trial_n":70,"n_dots":2.25,"target":"left","response":"right","rt":641.90000000037,"correct":false,"confidence":4},{"trial_n":71,"n_dots":2.35,"target":"right","response":"right","rt":423.5,"correct":true,"confidence":4},{"trial_n":72,"n_dots":2.35,"target":"right","response":"left","rt":556.69999999925,"correct":false,"confidence":4},{"trial_n":73,"n_dots":2.45,"target":"left","response":"left","rt":470.59999999963,"correct":true,"confidence":4},{"trial_n":74,"n_dots":2.45,"target":"left","response":"left","rt":393.30000000075,"correct":true,"confidence":4},{"trial_n":75,"n_dots":2.35,"target":"right","response":"right","rt":457.80000000075,"correct":true,"confidence":3},{"trial_n":76,"n_dots":2.35,"target":"left","response":"left","rt":439.59999999963,"correct":true,"confidence":1},{"trial_n":77,"n_dots":2.25,"target":"right","response":"right","rt":641.90000000037,"correct":true,"confidence":1},{"trial_n":78,"n_dots":2.25,"target":"left","response":"right","rt":585.80000000075,"correct":false,"confidence":1},{"trial_n":79,"n_dots":2.35,"target":"right","response":"left","rt":575.69999999925,"correct":false,"confidence":1},{"trial_n":80,"n_dots":2.45,"target":"right","response":"right","rt":597.70000000112,"correct":true,"confidence":1},{"trial_n":81,"n_dots":2.45,"target":"left","response":"right","rt":1893.0999999996,"correct":false,"confidence":2},{"trial_n":82,"n_dots":2.55,"target":"right","response":"right","rt":598.59999999963,"correct":true,"confidence":2},{"trial_n":83,"n_dots":2.55,"target":"left","response":"right","rt":340.19999999925,"correct":false,"confidence":2},{"trial_n":84,"n_dots":2.65,"target":"left","response":"left","rt":131.70000000112,"correct":true,"confidence":2},{"trial_n":85,"n_dots":2.65,"target":"right","response":"right","rt":2355.5999999996,"correct":true,"confidence":1},{"trial_n":86,"n_dots":2.55,"target":"right","response":"right","rt":393,"correct":true,"confidence":5},{"trial_n":87,"n_dots":2.55,"target":"right","response":"right","rt":199.60000000149,"correct":true,"confidence":4},{"trial_n":88,"n_dots":2.45,"target":"right","response":"right","rt":337.10000000149,"correct":true,"confidence":5},{"trial_n":89,"n_dots":2.45,"target":"right","response":"right","rt":365.39999999851,"correct":true,"confidence":5},{"trial_n":90,"n_dots":2.35,"target":"left","response":"right","rt":483.70000000112,"correct":false,"confidence":5},{"trial_n":91,"n_dots":2.45,"target":"right","response":"right","rt":509.20000000112,"correct":true,"confidence":4},{"trial_n":92,"n_dots":2.45,"target":"left","response":"left","rt":503,"correct":true,"confidence":2},{"trial_n":93,"n_dots":2.35,"target":"left","response":"right","rt":777.89999999851,"correct":false,"confidence":5},{"trial_n":94,"n_dots":2.45,"target":"right","response":"right","rt":453.69999999925,"correct":true,"confidence":5},{"trial_n":95,"n_dots":2.45,"target":"right","response":"left","rt":565.09999999963,"correct":false,"confidence":1},{"trial_n":96,"n_dots":2.55,"target":"right","response":"right","rt":473.29999999888,"correct":true,"confidence":5},{"trial_n":97,"n_dots":2.55,"target":"left","response":"left","rt":748.80000000075,"correct":true,"confidence":4},{"trial_n":98,"n_dots":2.45,"target":"left","response":"left","rt":337.89999999851,"correct":true,"confidence":5},{"trial_n":99,"n_dots":2.45,"target":"right","response":"right","rt":572.40000000037,"correct":true,"confidence":5},{"trial_n":100,"n_dots":2.35,"target":"left","response":"left","rt":305.69999999925,"correct":true,"confidence":5},{"trial_n":101,"n_dots":2.35,"target":"left","response":"left","rt":290,"correct":true,"confidence":5},{"trial_n":102,"n_dots":2.25,"target":"left","response":"right","rt":615.69999999925,"correct":false,"confidence":5},{"trial_n":103,"n_dots":2.35,"target":"left","response":"left","rt":489.5,"correct":true,"confidence":5},{"trial_n":104,"n_dots":2.35,"target":"right","response":"left","rt":508.90000000037,"correct":false,"confidence":5},{"trial_n":105,"n_dots":2.45,"target":"right","response":"right","rt":442.19999999925,"correct":true,"confidence":5},{"trial_n":106,"n_dots":2.45,"target":"right","response":"right","rt":410.5,"correct":true,"confidence":5},{"trial_n":107,"n_dots":2.35,"target":"left","response":"left","rt":392.90000000037,"correct":true,"confidence":5},{"trial_n":108,"n_dots":2.35,"target":"right","response":"right","rt":217.5,"correct":true,"confidence":6},{"trial_n":109,"n_dots":2.25,"target":"left","response":"right","rt":774.90000000037,"correct":false,"confidence":6},{"trial_n":110,"n_dots":2.35,"target":"right","response":"right","rt":467,"correct":true,"confidence":6},{"trial_n":111,"n_dots":2.35,"target":"left","response":"right","rt":503.80000000075,"correct":false,"confidence":6},{"trial_n":112,"n_dots":2.45,"target":"left","response":"right","rt":453.59999999963,"correct":false,"confidence":6},{"trial_n":113,"n_dots":2.55,"target":"left","response":"right","rt":1385,"correct":false,"confidence":6},{"trial_n":114,"n_dots":2.65,"target":"right","response":"right","rt":479.70000000112,"correct":true,"confidence":6},{"trial_n":115,"n_dots":2.65,"target":"left","response":"right","rt":977.29999999888,"correct":false,"confidence":1},{"trial_n":116,"n_dots":2.75,"target":"left","response":"left","rt":354.29999999888,"correct":true,"confidence":6},{"trial_n":117,"n_dots":2.75,"target":"right","response":"right","rt":517.90000000037,"correct":true,"confidence":6},{"trial_n":118,"n_dots":2.65,"target":"right","response":"right","rt":380.29999999888,"correct":true,"confidence":6},{"trial_n":119,"n_dots":2.65,"target":"left","response":"right","rt":380.40000000037,"correct":false,"confidence":6},{"trial_n":120,"n_dots":2.75,"target":"left","response":"left","rt":344.5,"correct":true,"confidence":3},{"trial_n":121,"n_dots":2.75,"target":"right","response":"right","rt":411.69999999925,"correct":true,"confidence":3},{"trial_n":122,"n_dots":2.65,"target":"right","response":"right","rt":298.79999999888,"correct":true,"confidence":2},{"trial_n":123,"n_dots":2.65,"target":"right","response":"right","rt":437.89999999851,"correct":true,"confidence":3},{"trial_n":124,"n_dots":2.55,"target":"left","response":"right","rt":371.5,"correct":false,"confidence":4},{"trial_n":125,"n_dots":2.65,"target":"right","response":"right","rt":429.59999999963,"correct":true,"confidence":2},{"trial_n":126,"n_dots":2.65,"target":"right","response":"right","rt":368.5,"correct":true,"confidence":3},{"trial_n":127,"n_dots":2.55,"target":"left","response":"left","rt":603,"correct":true,"confidence":2},{"trial_n":128,"n_dots":2.55,"target":"right","response":"right","rt":276.40000000037,"correct":true,"confidence":4},{"trial_n":129,"n_dots":2.45,"target":"left","response":"right","rt":597.59999999963,"correct":false,"confidence":3},{"trial_n":130,"n_dots":2.55,"target":"left","response":"right","rt":633.79999999888,"correct":false,"confidence":3},{"trial_n":131,"n_dots":2.65,"target":"left","response":"right","rt":776.19999999925,"correct":false,"confidence":3},{"trial_n":132,"n_dots":2.75,"target":"left","response":"right","rt":298.30000000075,"correct":false,"confidence":2},{"trial_n":133,"n_dots":2.85,"target":"right","response":"right","rt":164.90000000037,"correct":true,"confidence":2},{"trial_n":134,"n_dots":2.85,"target":"left","response":"left","rt":694.80000000075,"correct":true,"confidence":2},{"trial_n":135,"n_dots":2.75,"target":"right","response":"right","rt":457.79999999888,"correct":true,"confidence":2},{"trial_n":136,"n_dots":2.75,"target":"left","response":"right","rt":294.5,"correct":false,"confidence":2},{"trial_n":137,"n_dots":2.85,"target":"left","response":"right","rt":341.09999999963,"correct":false,"confidence":2},{"trial_n":138,"n_dots":2.95,"target":"left","response":"right","rt":475.60000000149,"correct":false,"confidence":2},{"trial_n":139,"n_dots":3.05,"target":"right","response":"right","rt":474.20000000112,"correct":true,"confidence":2},{"trial_n":140,"n_dots":3.05,"target":"right","response":"right","rt":460.20000000112,"correct":true,"confidence":2},{"trial_n":141,"n_dots":2.95,"target":"right","response":"right","rt":292.90000000037,"correct":true,"confidence":2},{"trial_n":142,"n_dots":2.95,"target":"right","response":"right","rt":363.19999999925,"correct":true,"confidence":2},{"trial_n":143,"n_dots":2.85,"target":"right","response":"right","rt":378.40000000037,"correct":true,"confidence":2},{"trial_n":144,"n_dots":2.85,"target":"left","response":"right","rt":697.20000000112,"correct":false,"confidence":2},{"trial_n":145,"n_dots":2.95,"target":"left","response":"left","rt":886.70000000112,"correct":true,"confidence":2},{"trial_n":146,"n_dots":2.95,"target":"left","response":"right","rt":403.40000000037,"correct":false,"confidence":2},{"trial_n":147,"n_dots":3.05,"target":"left","response":"right","rt":502.69999999925,"correct":false,"confidence":2},{"trial_n":148,"n_dots":3.15,"target":"right","response":"right","rt":48494,"correct":true,"confidence":1},{"trial_n":149,"n_dots":3.15,"target":"left","response":"left","rt":415.20000000112,"correct":true,"confidence":6},{"trial_n":150,"n_dots":3.05,"target":"left","response":"left","rt":374.40000000037,"correct":true,"confidence":3},{"trial_n":151,"n_dots":3.05,"target":"left","response":"left","rt":398.70000000112,"correct":true,"confidence":4},{"trial_n":152,"n_dots":2.95,"target":"left","response":"left","rt":361.60000000149,"correct":true,"confidence":4},{"trial_n":153,"n_dots":2.95,"target":"right","response":"left","rt":701.30000000075,"correct":false,"confidence":4},{"trial_n":154,"n_dots":3.05,"target":"right","response":"right","rt":484.09999999963,"correct":true,"confidence":4},{"trial_n":155,"n_dots":3.05,"target":"right","response":"right","rt":461.20000000112,"correct":true,"confidence":3},{"trial_n":156,"n_dots":2.95,"target":"left","response":"right","rt":602.90000000037,"correct":false,"confidence":4},{"trial_n":157,"n_dots":3.05,"target":"left","response":"left","rt":411.80000000075,"correct":true,"confidence":3},{"trial_n":158,"n_dots":3.05,"target":"right","response":"right","rt":414.29999999888,"correct":true,"confidence":4},{"trial_n":159,"n_dots":2.95,"target":"left","response":"right","rt":454.10000000149,"correct":false,"confidence":4},{"trial_n":160,"n_dots":3.05,"target":"right","response":"right","rt":378.59999999963,"correct":true,"confidence":4},{"trial_n":161,"n_dots":3.05,"target":"right","response":"right","rt":397.5,"correct":true,"confidence":3},{"trial_n":162,"n_dots":2.95,"target":"right","response":"right","rt":332.70000000112,"correct":true,"confidence":4},{"trial_n":163,"n_dots":2.95,"target":"left","response":"left","rt":160.20000000112,"correct":true,"confidence":4},{"trial_n":164,"n_dots":2.85,"target":"left","response":"right","rt":336,"correct":false,"confidence":4},{"trial_n":165,"n_dots":2.95,"target":"right","response":"right","rt":116.09999999963,"correct":true,"confidence":3},{"trial_n":166,"n_dots":2.95,"target":"left","response":"left","rt":429.59999999963,"correct":true,"confidence":4},{"trial_n":167,"n_dots":2.85,"target":"left","response":"left","rt":335.09999999963,"correct":true,"confidence":4},{"trial_n":168,"n_dots":2.85,"target":"right","response":"right","rt":458.10000000149,"correct":true,"confidence":1},{"trial_n":169,"n_dots":2.75,"target":"left","response":"right","rt":350.90000000037,"correct":false,"confidence":4},{"trial_n":170,"n_dots":2.85,"target":"right","response":"right","rt":449.79999999888,"correct":true,"confidence":4},{"trial_n":171,"n_dots":2.85,"target":"left","response":"left","rt":364.89999999851,"correct":true,"confidence":4},{"trial_n":172,"n_dots":2.75,"target":"right","response":"right","rt":312,"correct":true,"confidence":4},{"trial_n":173,"n_dots":2.75,"target":"left","response":"left","rt":590.40000000037,"correct":true,"confidence":4},{"trial_n":174,"n_dots":2.65,"target":"right","response":"right","rt":500.19999999925,"correct":true,"confidence":4},{"trial_n":175,"n_dots":2.65,"target":"right","response":"right","rt":672.5,"correct":true,"confidence":1},{"trial_n":176,"n_dots":2.55,"target":"right","response":"right","rt":354,"correct":true,"confidence":4},{"trial_n":177,"n_dots":2.55,"target":"left","response":"left","rt":472.19999999925,"correct":true,"confidence":4},{"trial_n":178,"n_dots":2.45,"target":"left","response":"right","rt":179.40000000037,"correct":false,"confidence":3},{"trial_n":179,"n_dots":2.55,"target":"right","response":"right","rt":257,"correct":true,"confidence":3},{"trial_n":180,"n_dots":2.55,"target":"right","response":"right","rt":354.70000000112,"correct":true,"confidence":4},{"trial_n":181,"n_dots":2.45,"target":"left","response":"right","rt":435.10000000149,"correct":false,"confidence":4},{"trial_n":182,"n_dots":2.55,"target":"left","response":"right","rt":608.40000000037,"correct":false,"confidence":4},{"trial_n":183,"n_dots":2.65,"target":"left","response":"right","rt":433.60000000149,"correct":false,"confidence":3},{"trial_n":184,"n_dots":2.75,"target":"left","response":"left","rt":439.90000000037,"correct":true,"confidence":4},{"trial_n":185,"n_dots":2.75,"target":"left","response":"right","rt":403.5,"correct":false,"confidence":4},{"trial_n":186,"n_dots":2.85,"target":"right","response":"right","rt":208.90000000037,"correct":true,"confidence":3},{"trial_n":187,"n_dots":2.85,"target":"right","response":"right","rt":204,"correct":true,"confidence":3},{"trial_n":188,"n_dots":2.75,"target":"right","response":"right","rt":504.09999999963,"correct":true,"confidence":3},{"trial_n":189,"n_dots":2.75,"target":"left","response":"right","rt":468.30000000075,"correct":false,"confidence":3},{"trial_n":190,"n_dots":2.85,"target":"left","response":"left","rt":411.5,"correct":true,"confidence":3},{"trial_n":191,"n_dots":2.85,"target":"right","response":"right","rt":188.5,"correct":true,"confidence":3},{"trial_n":192,"n_dots":2.75,"target":"right","response":"right","rt":40.699999999255,"correct":true,"confidence":4},{"trial_n":193,"n_dots":2.75,"target":"left","response":"left","rt":281.90000000037,"correct":true,"confidence":3},{"trial_n":194,"n_dots":2.65,"target":"right","response":"right","rt":189.40000000037,"correct":true,"confidence":3}]