[{"trial_n":1,"n_dots":4.25,"target":"left","response":"left","rt":4078.5,"correct":true,"confidence":-1},{"trial_n":2,"n_dots":4.25,"target":"left","response":"left","rt":345.19999999972,"correct":true,"confidence":-1},{"trial_n":3,"n_dots":3.85,"target":"left","response":"left","rt":258.10000000009,"correct":true,"confidence":-1},{"trial_n":4,"n_dots":3.85,"target":"right","response":"right","rt":416.89999999991,"correct":true,"confidence":-1},{"trial_n":5,"n_dots":3.45,"target":"left","response":"left","rt":365,"correct":true,"confidence":-1},{"trial_n":6,"n_dots":3.45,"target":"right","response":"right","rt":174,"correct":true,"confidence":-1},{"trial_n":7,"n_dots":3.05,"target":"right","response":"right","rt":403.59999999963,"correct":true,"confidence":-1},{"trial_n":8,"n_dots":3.05,"target":"right","response":"right","rt":384,"correct":true,"confidence":-1},{"trial_n":9,"n_dots":2.85,"target":"left","response":"left","rt":204,"correct":true,"confidence":-1},{"trial_n":10,"n_dots":2.85,"target":"right","response":"right","rt":355.19999999972,"correct":true,"confidence":-1},{"trial_n":11,"n_dots":2.65,"target":"right","response":"right","rt":329.79999999981,"correct":true,"confidence":-1},{"trial_n":12,"n_dots":2.65,"target":"right","response":"left","rt":292.69999999972,"correct":false,"confidence":-1},{"trial_n":13,"n_dots":2.75,"target":"right","response":"right","rt":270.69999999972,"correct":true,"confidence":-1},{"trial_n":14,"n_dots":2.75,"target":"right","response":"right","rt":367.39999999991,"correct":true,"confidence":-1},{"trial_n":15,"n_dots":2.65,"target":"right","response":"right","rt":337.70000000019,"correct":true,"confidence":-1},{"trial_n":16,"n_dots":2.65,"target":"left","response":"right","rt":367,"correct":false,"confidence":-1},{"trial_n":17,"n_dots":2.75,"target":"left","response":"left","rt":548.39999999991,"correct":true,"confidence":-1},{"trial_n":18,"n_dots":2.75,"target":"right","response":"left","rt":433.10000000009,"correct":false,"confidence":-1},{"trial_n":19,"n_dots":2.85,"target":"right","response":"right","rt":394.69999999972,"correct":true,"confidence":-1},{"trial_n":20,"n_dots":2.85,"target":"left","response":"left","rt":286.09999999963,"correct":true,"confidence":-1},{"trial_n":21,"n_dots":2.75,"target":"left","response":"left","rt":332.80000000028,"correct":true,"confidence":-1},{"trial_n":22,"n_dots":2.75,"target":"right","response":"right","rt":267.79999999981,"correct":true,"confidence":-1},{"trial_n":23,"n_dots":2.65,"target":"right","response":"left","rt":357.30000000028,"correct":false,"confidence":-1},{"trial_n":24,"n_dots":2.75,"target":"left","response":"left","rt":403.69999999972,"correct":true,"confidence":-1},{"trial_n":25,"n_dots":2.75,"target":"right","response":"right","rt":244.70000000019,"correct":true,"confidence":-1},{"trial_n":26,"n_dots":2.65,"target":"right","response":"right","rt":303.19999999972,"correct":true,"confidence":-1},{"trial_n":27,"n_dots":2.65,"target":"left","response":"left","rt":337.10000000009,"correct":true,"confidence":2},{"trial_n":28,"n_dots":2.55,"target":"left","response":"left","rt":469.70000000019,"correct":true,"confidence":4},{"trial_n":29,"n_dots":2.55,"target":"left","response":"left","rt":402.79999999981,"correct":true,"confidence":2},{"trial_n":30,"n_dots":2.45,"target":"right","response":"right","rt":586,"correct":true,"confidence":2},{"trial_n":31,"n_dots":2.45,"target":"right","response":"left","rt":451.89999999991,"correct":false,"confidence":5},{"trial_n":32,"n_dots":2.55,"target":"left","response":"left","rt":374.89999999991,"correct":true,"confidence":2},{"trial_n":33,"n_dots":2.55,"target":"left","response":"right","rt":800.69999999972,"correct":false,"confidence":4},{"trial_n":34,"n_dots":2.65,"target":"right","response":"left","rt":980.79999999981,"correct":false,"confidence":2},{"trial_n":35,"n_dots":2.75,"target":"right","response":"right","rt":375.09999999963,"correct":true,"confidence":1},{"trial_n":36,"n_dots":2.75,"target":"left","response":"left","rt":464.39999999991,"correct":true,"confidence":4},{"trial_n":37,"n_dots":2.65,"target":"right","response":"left","rt":407.79999999981,"correct":false,"confidence":2},{"trial_n":38,"n_dots":2.75,"target":"left","response":"left","rt":686,"correct":true,"confidence":2},{"trial_n":39,"n_dots":2.75,"target":"right","response":"left","rt":398,"correct":false,"confidence":2},{"trial_n":40,"n_dots":2.85,"target":"left","response":"left","rt":533.19999999972,"correct":true,"confidence":1},{"trial_n":41,"n_dots":2.85,"target":"left","response":"left","rt":368,"correct":true,"confidence":4},{"trial_n":42,"n_dots":2.75,"target":"left","response":"left","rt":406.29999999981,"correct":true,"confidence":3},{"trial_n":43,"n_dots":2.75,"target":"right","response":"left","rt":290.80000000028,"correct":false,"confidence":5},{"trial_n":44,"n_dots":2.85,"target":"right","response":"right","rt":237,"correct":true,"confidence":5},{"trial_n":45,"n_dots":2.85,"target":"left","response":"left","rt":361.89999999991,"correct":true,"confidence":4},{"trial_n":46,"n_dots":2.75,"target":"left","response":"right","rt":385.10000000009,"correct":false,"confidence":3},{"trial_n":47,"n_dots":2.85,"target":"left","response":"left","rt":268.69999999972,"correct":true,"confidence":4},{"trial_n":48,"n_dots":2.85,"target":"right","response":"right","rt":262.89999999991,"correct":true,"confidence":4},{"trial_n":49,"n_dots":2.75,"target":"right","response":"left","rt":962.29999999981,"correct":false,"confidence":2},{"trial_n":50,"n_dots":2.85,"target":"left","response":"left","rt":954.69999999972,"correct":true,"confidence":1},{"trial_n":51,"n_dots":2.85,"target":"right","response":"right","rt":216.59999999963,"correct":true,"confidence":5},{"trial_n":52,"n_dots":2.75,"target":"right","response":"right","rt":815.80000000028,"correct":true,"confidence":4},{"trial_n":53,"n_dots":2.75,"target":"left","response":"left","rt":388.70000000019,"correct":true,"confidence":1},{"trial_n":54,"n_dots":2.65,"target":"left","response":"left","rt":326.79999999981,"correct":true,"confidence":5},{"trial_n":55,"n_dots":2.65,"target":"right","response":"left","rt":719.19999999972,"correct":false,"confidence":1},{"trial_n":56,"n_dots":2.75,"target":"right","response":"left","rt":2552.1999999997,"correct":false,"confidence":2},{"trial_n":57,"n_dots":2.85,"target":"right","response":"right","rt":644.79999999981,"correct":true,"confidence":5},{"trial_n":58,"n_dots":2.85,"target":"left","response":"left","rt":4095.3999999999,"correct":true,"confidence":1},{"trial_n":59,"n_dots":2.75,"target":"right","response":"left","rt":1064.6000000001,"correct":false,"confidence":1},{"trial_n":60,"n_dots":2.85,"target":"left","response":"left","rt":380.60000000009,"correct":true,"confidence":6},{"trial_n":61,"n_dots":2.85,"target":"left","response":"left","rt":586.60000000009,"correct":true,"confidence":4},{"trial_n":62,"n_dots":2.75,"target":"right","response":"left","rt":975.20000000019,"correct":false,"confidence":1},{"trial_n":63,"n_dots":2.85,"target":"right","response":"right","rt":435.19999999972,"correct":true,"confidence":4},{"trial_n":64,"n_dots":2.85,"target":"left","response":"left","rt":358.60000000009,"correct":true,"confidence":4},{"trial_n":65,"n_dots":2.75,"target":"right","response":"left","rt":510.20000000019,"correct":false,"confidence":3},{"trial_n":66,"n_dots":2.85,"target":"right","response":"right","rt":323,"correct":true,"confidence":6},{"trial_n":67,"n_dots":2.85,"target":"right","response":"right","rt":437.89999999991,"correct":true,"confidence":2},{"trial_n":68,"n_dots":2.75,"target":"right","response":"right","rt":503.70000000019,"correct":true,"confidence":4},{"trial_n":69,"n_dots":2.75,"target":"right","response":"right","rt":425.10000000009,"correct":true,"confidence":2},{"trial_n":70,"n_dots":2.65,"target":"right","response":"left","rt":662.39999999991,"correct":false,"confidence":2},{"trial_n":71,"n_dots":2.75,"target":"right","response":"right","rt":457.60000000009,"correct":true,"confidence":4},{"trial_n":72,"n_dots":2.75,"target":"right","response":"right","rt":464.70000000019,"correct":true,"confidence":2},{"trial_n":73,"n_dots":2.65,"target":"left","response":"left","rt":801.40000000037,"correct":true,"confidence":1},{"trial_n":74,"n_dots":2.65,"target":"right","response":"right","rt":339.10000000009,"correct":true,"confidence":6},{"trial_n":75,"n_dots":2.55,"target":"right","response":"right","rt":17618.9,"correct":true,"confidence":2},{"trial_n":76,"n_dots":2.55,"target":"left","response":"left","rt":361.5,"correct":true,"confidence":6},{"trial_n":77,"n_dots":2.45,"target":"left","response":"right","rt":405.89999999991,"correct":false,"confidence":2},{"trial_n":78,"n_dots":2.55,"target":"left","response":"left","rt":607.19999999972,"correct":true,"confidence":2},{"trial_n":79,"n_dots":2.55,"target":"right","response":"right","rt":303.89999999991,"correct":true,"confidence":6},{"trial_n":80,"n_dots":2.45,"target":"right","response":"left","rt":401.5,"correct":false,"confidence":3},{"trial_n":81,"n_dots":2.55,"target":"left","response":"left","rt":452.60000000009,"correct":true,"confidence":3},{"trial_n":82,"n_dots":2.55,"target":"right","response":"right","rt":667.69999999972,"correct":true,"confidence":4},{"trial_n":83,"n_dots":2.45,"target":"left","response":"left","rt":289.30000000028,"correct":true,"confidence":6},{"trial_n":84,"n_dots":2.45,"target":"left","response":"left","rt":321.20000000019,"correct":true,"confidence":6},{"trial_n":85,"n_dots":2.35,"target":"right","response":"right","rt":653.60000000009,"correct":true,"confidence":2},{"trial_n":86,"n_dots":2.35,"target":"left","response":"left","rt":737,"correct":true,"confidence":2},{"trial_n":87,"n_dots":2.25,"target":"left","response":"left","rt":686.60000000009,"correct":true,"confidence":5},{"trial_n":88,"n_dots":2.25,"target":"left","response":"left","rt":7819.5,"correct":true,"confidence":4},{"trial_n":89,"n_dots":2.15,"target":"right","response":"right","rt":1019.6000000001,"correct":true,"confidence":1},{"trial_n":90,"n_dots":2.15,"target":"left","response":"right","rt":324.39999999991,"correct":false,"confidence":5},{"trial_n":91,"n_dots":2.25,"target":"right","response":"right","rt":968.79999999981,"correct":true,"confidence":5},{"trial_n":92,"n_dots":2.25,"target":"right","response":"left","rt":523.39999999991,"correct":false,"confidence":2},{"trial_n":93,"n_dots":2.35,"target":"left","response":"left","rt":680.09999999963,"correct":true,"confidence":3},{"trial_n":94,"n_dots":2.35,"target":"right","response":"left","rt":490.20000000019,"correct":false,"confidence":5},{"trial_n":95,"n_dots":2.45,"target":"left","response":"left","rt":361.89999999991,"correct":true,"confidence":5},{"trial_n":96,"n_dots":2.45,"target":"right","response":"right","rt":451.29999999981,"correct":true,"confidence":2},{"trial_n":97,"n_dots":2.35,"target":"left","response":"right","rt":788.10000000009,"correct":false,"confidence":3},{"trial_n":98,"n_dots":2.45,"target":"left","response":"left","rt":535.89999999991,"correct":true,"confidence":1},{"trial_n":99,"n_dots":2.45,"target":"right","response":"right","rt":356.89999999991,"correct":true,"confidence":4},{"trial_n":100,"n_dots":2.35,"target":"left","response":"left","rt":425.79999999981,"correct":true,"confidence":5},{"trial_n":101,"n_dots":2.35,"target":"right","response":"right","rt":317.79999999981,"correct":true,"confidence":5},{"trial_n":102,"n_dots":2.25,"target":"right","response":"left","rt":459,"correct":false,"confidence":1},{"trial_n":103,"n_dots":2.35,"target":"left","response":"left","rt":347.10000000009,"correct":true,"confidence":5},{"trial_n":104,"n_dots":2.35,"target":"left","response":"left","rt":595.5,"correct":true,"confidence":4},{"trial_n":105,"n_dots":2.25,"target":"right","response":"right","rt":502.5,"correct":true,"confidence":2},{"trial_n":106,"n_dots":2.25,"target":"right","response":"left","rt":530,"correct":false,"confidence":2},{"trial_n":107,"n_dots":2.35,"target":"right","response":"right","rt":498.5,"correct":true,"confidence":2},{"trial_n":108,"n_dots":2.35,"target":"right","response":"right","rt":292.5,"correct":true,"confidence":6},{"trial_n":109,"n_dots":2.25,"target":"right","response":"right","rt":431.60000000009,"correct":true,"confidence":5},{"trial_n":110,"n_dots":2.25,"target":"right","response":"right","rt":343.60000000009,"correct":true,"confidence":5},{"trial_n":111,"n_dots":2.15,"target":"left","response":"left","rt":334.59999999963,"correct":true,"confidence":6},{"trial_n":112,"n_dots":2.15,"target":"right","response":"right","rt":290.29999999981,"correct":true,"confidence":4},{"trial_n":113,"n_dots":2.05,"target":"right","response":"right","rt":505.19999999972,"correct":true,"confidence":3},{"trial_n":114,"n_dots":2.05,"target":"left","response":"right","rt":443.60000000009,"correct":false,"confidence":3},{"trial_n":115,"n_dots":2.15,"target":"left","response":"left","rt":324.69999999972,"correct":true,"confidence":3},{"trial_n":116,"n_dots":2.15,"target":"right","response":"right","rt":342.69999999972,"correct":true,"confidence":5},{"trial_n":117,"n_dots":2.05,"target":"right","response":"right","rt":1203.3999999999,"correct":true,"confidence":1},{"trial_n":118,"n_dots":2.05,"target":"right","response":"right","rt":478.19999999972,"correct":true,"confidence":3},{"trial_n":119,"n_dots":1.95,"target":"left","response":"left","rt":323,"correct":true,"confidence":6},{"trial_n":120,"n_dots":1.95,"target":"left","response":"left","rt":422.30000000028,"correct":true,"confidence":3},{"trial_n":121,"n_dots":1.85,"target":"left","response":"right","rt":682.70000000019,"correct":false,"confidence":1},{"trial_n":122,"n_dots":1.95,"target":"left","response":"left","rt":441.39999999991,"correct":true,"confidence":1},{"trial_n":123,"n_dots":1.95,"target":"left","response":"left","rt":404.39999999991,"correct":true,"confidence":5},{"trial_n":124,"n_dots":1.85,"target":"left","response":"left","rt":791.79999999981,"correct":true,"confidence":2},{"trial_n":125,"n_dots":1.85,"target":"left","response":"left","rt":344.80000000028,"correct":true,"confidence":5},{"trial_n":126,"n_dots":1.75,"target":"left","response":"right","rt":440.09999999963,"correct":false,"confidence":2},{"trial_n":127,"n_dots":1.85,"target":"right","response":"right","rt":466.69999999972,"correct":true,"confidence":1},{"trial_n":128,"n_dots":1.85,"target":"right","response":"right","rt":559.39999999991,"correct":true,"confidence":1},{"trial_n":129,"n_dots":1.75,"target":"right","response":"right","rt":460.70000000019,"correct":true,"confidence":1},{"trial_n":130,"n_dots":1.75,"target":"right","response":"left","rt":600.20000000019,"correct":false,"confidence":3},{"trial_n":131,"n_dots":1.85,"target":"left","response":"right","rt":1015,"correct":false,"confidence":1},{"trial_n":132,"n_dots":1.95,"target":"left","response":"left","rt":679.60000000009,"correct":true,"confidence":1},{"trial_n":133,"n_dots":1.95,"target":"left","response":"left","rt":436.69999999972,"correct":true,"confidence":5},{"trial_n":134,"n_dots":1.85,"target":"left","response":"left","rt":420.10000000009,"correct":true,"confidence":2},{"trial_n":135,"n_dots":1.85,"target":"left","response":"left","rt":306.5,"correct":true,"confidence":2},{"trial_n":136,"n_dots":1.75,"target":"right","response":"right","rt":540,"correct":true,"confidence":2},{"trial_n":137,"n_dots":1.75,"target":"left","response":"left","rt":466.09999999963,"correct":true,"confidence":2},{"trial_n":138,"n_dots":1.65,"target":"left","response":"right","rt":308.69999999972,"correct":false,"confidence":3},{"trial_n":139,"n_dots":1.75,"target":"right","response":"left","rt":451.60000000009,"correct":false,"confidence":1},{"trial_n":140,"n_dots":1.85,"target":"left","response":"right","rt":540.79999999981,"correct":false,"confidence":2},{"trial_n":141,"n_dots":1.95,"target":"right","response":"right","rt":452.70000000019,"correct":true,"confidence":2},{"trial_n":142,"n_dots":1.95,"target":"left","response":"right","rt":362.20000000019,"correct":false,"confidence":2},{"trial_n":143,"n_dots":2.05,"target":"left","response":"left","rt":383.60000000009,"correct":true,"confidence":2},{"trial_n":144,"n_dots":2.05,"target":"right","response":"right","rt":327.39999999991,"correct":true,"confidence":1},{"trial_n":145,"n_dots":1.95,"target":"left","response":"right","rt":472.70000000019,"correct":false,"confidence":3},{"trial_n":146,"n_dots":2.05,"target":"left","response":"left","rt":447.80000000028,"correct":true,"confidence":1},{"trial_n":147,"n_dots":2.05,"target":"left","response":"right","rt":717,"correct":false,"confidence":3},{"trial_n":148,"n_dots":2.15,"target":"left","response":"left","rt":526.70000000019,"correct":true,"confidence":2},{"trial_n":149,"n_dots":2.15,"target":"left","response":"left","rt":875.29999999981,"correct":true,"confidence":3},{"trial_n":150,"n_dots":2.05,"target":"right","response":"right","rt":545.19999999972,"correct":true,"confidence":1},{"trial_n":151,"n_dots":2.05,"target":"right","response":"right","rt":328,"correct":true,"confidence":4},{"trial_n":152,"n_dots":1.95,"target":"left","response":"left","rt":341.5,"correct":true,"confidence":6},{"trial_n":153,"n_dots":1.95,"target":"left","response":"left","rt":562.20000000019,"correct":true,"confidence":4},{"trial_n":154,"n_dots":1.85,"target":"right","response":"left","rt":448.60000000009,"correct":false,"confidence":4},{"trial_n":155,"n_dots":1.95,"target":"left","response":"right","rt":316.79999999981,"correct":false,"confidence":6},{"trial_n":156,"n_dots":2.05,"target":"left","response":"left","rt":493.79999999981,"correct":true,"confidence":5},{"trial_n":157,"n_dots":2.05,"target":"right","response":"right","rt":387.5,"correct":true,"confidence":4},{"trial_n":158,"n_dots":1.95,"target":"left","response":"left","rt":405.89999999991,"correct":true,"confidence":4},{"trial_n":159,"n_dots":1.95,"target":"right","response":"right","rt":450.19999999972,"correct":true,"confidence":5},{"trial_n":160,"n_dots":1.85,"target":"left","response":"left","rt":739.20000000019,"correct":true,"confidence":1},{"trial_n":161,"n_dots":1.85,"target":"left","response":"left","rt":677.70000000019,"correct":true,"confidence":4},{"trial_n":162,"n_dots":1.75,"target":"right","response":"left","rt":440.70000000019,"correct":false,"confidence":2},{"trial_n":163,"n_dots":1.85,"target":"left","response":"left","rt":378.60000000009,"correct":true,"confidence":1},{"trial_n":164,"n_dots":1.85,"target":"right","response":"left","rt":981.70000000019,"correct":false,"confidence":2},{"trial_n":165,"n_dots":1.95,"target":"right","response":"right","rt":335.70000000019,"correct":true,"confidence":6},{"trial_n":166,"n_dots":1.95,"target":"left","response":"left","rt":617.5,"correct":true,"confidence":3},{"trial_n":167,"n_dots":1.85,"target":"right","response":"right","rt":3285.7000000002,"correct":true,"confidence":3},{"trial_n":168,"n_dots":1.85,"target":"right","response":"right","rt":341.89999999991,"correct":true,"confidence":6},{"trial_n":169,"n_dots":1.75,"target":"left","response":"left","rt":513.5,"correct":true,"confidence":2},{"trial_n":170,"n_dots":1.75,"target":"right","response":"right","rt":634.79999999981,"correct":true,"confidence":3},{"trial_n":171,"n_dots":1.65,"target":"left","response":"right","rt":462.69999999972,"correct":false,"confidence":2},{"trial_n":172,"n_dots":1.75,"target":"left","response":"left","rt":580,"correct":true,"confidence":2},{"trial_n":173,"n_dots":1.75,"target":"right","response":"right","rt":357.39999999991,"correct":true,"confidence":3},{"trial_n":174,"n_dots":1.65,"target":"right","response":"right","rt":502.5,"correct":true,"confidence":2},{"trial_n":175,"n_dots":1.65,"target":"left","response":"right","rt":489.60000000009,"correct":false,"confidence":2},{"trial_n":176,"n_dots":1.75,"target":"left","response":"right","rt":488.5,"correct":false,"confidence":3},{"trial_n":177,"n_dots":1.85,"target":"right","response":"left","rt":711.20000000019,"correct":false,"confidence":2},{"trial_n":178,"n_dots":1.95,"target":"left","response":"left","rt":352.60000000009,"correct":true,"confidence":5},{"trial_n":179,"n_dots":1.95,"target":"right","response":"right","rt":341.10000000009,"correct":true,"confidence":6},{"trial_n":180,"n_dots":1.85,"target":"right","response":"right","rt":465.80000000028,"correct":true,"confidence":5},{"trial_n":181,"n_dots":1.85,"target":"left","response":"left","rt":324.70000000019,"correct":true,"confidence":6},{"trial_n":182,"n_dots":1.75,"target":"left","response":"left","rt":840.5,"correct":true,"confidence":2},{"trial_n":183,"n_dots":1.75,"target":"right","response":"right","rt":349.90000000037,"correct":true,"confidence":6},{"trial_n":184,"n_dots":1.65,"target":"right","response":"left","rt":349.5,"correct":false,"confidence":6},{"trial_n":185,"n_dots":1.75,"target":"left","response":"right","rt":443.39999999991,"correct":false,"confidence":2},{"trial_n":186,"n_dots":1.85,"target":"right","response":"right","rt":519.5,"correct":true,"confidence":2},{"trial_n":187,"n_dots":1.85,"target":"left","response":"left","rt":666.70000000019,"correct":true,"confidence":2},{"trial_n":188,"n_dots":1.75,"target":"left","response":"left","rt":697.5,"correct":true,"confidence":2},{"trial_n":189,"n_dots":1.75,"target":"left","response":"left","rt":608.89999999991,"correct":true,"confidence":3},{"trial_n":190,"n_dots":1.65,"target":"right","response":"right","rt":488.80000000028,"correct":true,"confidence":1},{"trial_n":191,"n_dots":1.65,"target":"left","response":"left","rt":374.69999999972,"correct":true,"confidence":5},{"trial_n":192,"n_dots":1.55,"target":"left","response":"left","rt":406.30000000028,"correct":true,"confidence":6},{"trial_n":193,"n_dots":1.55,"target":"right","response":"right","rt":289.59999999963,"correct":true,"confidence":5},{"trial_n":194,"n_dots":1.45,"target":"right","response":"right","rt":716.40000000037,"correct":true,"confidence":2}]