[{"trial_n":1,"n_dots":4.25,"target":"left","response":"right","rt":2008.3000000007,"correct":false,"confidence":-1},{"trial_n":2,"n_dots":4.25,"target":"left","response":"left","rt":293.39999999851,"correct":true,"confidence":-1},{"trial_n":3,"n_dots":4.25,"target":"right","response":"right","rt":228.10000000149,"correct":true,"confidence":-1},{"trial_n":4,"n_dots":3.85,"target":"left","response":"left","rt":205.60000000149,"correct":true,"confidence":-1},{"trial_n":5,"n_dots":3.85,"target":"right","response":"left","rt":267.10000000149,"correct":false,"confidence":-1},{"trial_n":6,"n_dots":4.25,"target":"right","response":"right","rt":221.39999999851,"correct":true,"confidence":-1},{"trial_n":7,"n_dots":4.25,"target":"right","response":"right","rt":67.20000000298,"correct":true,"confidence":-1},{"trial_n":8,"n_dots":4.05,"target":"left","response":"left","rt":398.30000000075,"correct":true,"confidence":-1},{"trial_n":9,"n_dots":4.05,"target":"right","response":"right","rt":242,"correct":true,"confidence":-1},{"trial_n":10,"n_dots":3.85,"target":"right","response":"right","rt":298.69999999925,"correct":true,"confidence":-1},{"trial_n":11,"n_dots":3.85,"target":"left","response":"left","rt":205.19999999925,"correct":true,"confidence":-1},{"trial_n":12,"n_dots":3.65,"target":"right","response":"right","rt":227.20000000298,"correct":true,"confidence":-1},{"trial_n":13,"n_dots":3.65,"target":"left","response":"left","rt":239.59999999776,"correct":true,"confidence":-1},{"trial_n":14,"n_dots":3.55,"target":"right","response":"right","rt":239.10000000149,"correct":true,"confidence":-1},{"trial_n":15,"n_dots":3.55,"target":"left","response":"right","rt":316.79999999702,"correct":false,"confidence":-1},{"trial_n":16,"n_dots":3.65,"target":"right","response":"left","rt":235.39999999851,"correct":false,"confidence":-1},{"trial_n":17,"n_dots":3.75,"target":"right","response":"right","rt":257.10000000149,"correct":true,"confidence":-1},{"trial_n":18,"n_dots":3.75,"target":"left","response":"left","rt":214.5,"correct":true,"confidence":-1},{"trial_n":19,"n_dots":3.65,"target":"right","response":"right","rt":294.10000000149,"correct":true,"confidence":-1},{"trial_n":20,"n_dots":3.65,"target":"right","response":"right","rt":247.30000000075,"correct":true,"confidence":-1},{"trial_n":21,"n_dots":3.55,"target":"left","response":"left","rt":243.30000000075,"correct":true,"confidence":-1},{"trial_n":22,"n_dots":3.55,"target":"right","response":"right","rt":793,"correct":true,"confidence":-1},{"trial_n":23,"n_dots":3.45,"target":"left","response":"left","rt":321.40000000224,"correct":true,"confidence":-1},{"trial_n":24,"n_dots":3.45,"target":"left","response":"left","rt":314.90000000224,"correct":true,"confidence":-1},{"trial_n":25,"n_dots":3.35,"target":"left","response":"left","rt":244.40000000224,"correct":true,"confidence":-1},{"trial_n":26,"n_dots":3.35,"target":"right","response":"left","rt":267.79999999702,"correct":false,"confidence":-1},{"trial_n":27,"n_dots":3.45,"target":"left","response":"left","rt":288.69999999925,"correct":true,"confidence":5},{"trial_n":28,"n_dots":3.45,"target":"left","response":"left","rt":255.79999999702,"correct":true,"confidence":6},{"trial_n":29,"n_dots":3.35,"target":"left","response":"right","rt":1865.0999999978,"correct":false,"confidence":2},{"trial_n":30,"n_dots":3.45,"target":"left","response":"left","rt":264.60000000149,"correct":true,"confidence":5},{"trial_n":31,"n_dots":3.45,"target":"right","response":"right","rt":520.69999999925,"correct":true,"confidence":4},{"trial_n":32,"n_dots":3.35,"target":"left","response":"left","rt":251.30000000075,"correct":true,"confidence":6},{"trial_n":33,"n_dots":3.35,"target":"left","response":"left","rt":400.70000000298,"correct":true,"confidence":3},{"trial_n":34,"n_dots":3.25,"target":"left","response":"left","rt":287.69999999925,"correct":true,"confidence":4},{"trial_n":35,"n_dots":3.25,"target":"left","response":"left","rt":377.10000000149,"correct":true,"confidence":5},{"trial_n":36,"n_dots":3.15,"target":"left","response":"left","rt":1419.1000000015,"correct":true,"confidence":1},{"trial_n":37,"n_dots":3.15,"target":"left","response":"left","rt":443.59999999776,"correct":true,"confidence":3},{"trial_n":38,"n_dots":3.05,"target":"right","response":"right","rt":426.30000000075,"correct":true,"confidence":5},{"trial_n":39,"n_dots":3.05,"target":"right","response":"right","rt":390.90000000224,"correct":true,"confidence":6},{"trial_n":40,"n_dots":2.95,"target":"right","response":"right","rt":375.60000000149,"correct":true,"confidence":4},{"trial_n":41,"n_dots":2.95,"target":"right","response":"right","rt":2641.5999999978,"correct":true,"confidence":1},{"trial_n":42,"n_dots":2.85,"target":"right","response":"right","rt":352.20000000298,"correct":true,"confidence":3},{"trial_n":43,"n_dots":2.85,"target":"left","response":"left","rt":423.40000000224,"correct":true,"confidence":2},{"trial_n":44,"n_dots":2.75,"target":"right","response":"right","rt":505.39999999851,"correct":true,"confidence":5},{"trial_n":45,"n_dots":2.75,"target":"left","response":"right","rt":489.39999999851,"correct":false,"confidence":5},{"trial_n":46,"n_dots":2.85,"target":"left","response":"right","rt":768.09999999776,"correct":false,"confidence":3},{"trial_n":47,"n_dots":2.95,"target":"left","response":"right","rt":553.19999999925,"correct":false,"confidence":2},{"trial_n":48,"n_dots":3.05,"target":"left","response":"left","rt":317.69999999925,"correct":true,"confidence":4},{"trial_n":49,"n_dots":3.05,"target":"left","response":"left","rt":451.19999999925,"correct":true,"confidence":5},{"trial_n":50,"n_dots":2.95,"target":"right","response":"right","rt":472.80000000075,"correct":true,"confidence":4},{"trial_n":51,"n_dots":2.95,"target":"right","response":"right","rt":404.80000000075,"correct":true,"confidence":6},{"trial_n":52,"n_dots":2.85,"target":"right","response":"right","rt":402.19999999925,"correct":true,"confidence":4},{"trial_n":53,"n_dots":2.85,"target":"left","response":"left","rt":629.5,"correct":true,"confidence":3},{"trial_n":54,"n_dots":2.75,"target":"right","response":"right","rt":2051.8999999985,"correct":true,"confidence":1},{"trial_n":55,"n_dots":2.75,"target":"left","response":"left","rt":531.59999999776,"correct":true,"confidence":3},{"trial_n":56,"n_dots":2.65,"target":"left","response":"right","rt":2195.3999999985,"correct":false,"confidence":2},{"trial_n":57,"n_dots":2.75,"target":"left","response":"right","rt":842.19999999925,"correct":false,"confidence":4},{"trial_n":58,"n_dots":2.85,"target":"left","response":"left","rt":275.60000000149,"correct":true,"confidence":6},{"trial_n":59,"n_dots":2.85,"target":"left","response":"right","rt":1058.6999999993,"correct":false,"confidence":3},{"trial_n":60,"n_dots":2.95,"target":"right","response":"right","rt":366.09999999776,"correct":true,"confidence":5},{"trial_n":61,"n_dots":2.95,"target":"left","response":"left","rt":268.30000000075,"correct":true,"confidence":5},{"trial_n":62,"n_dots":2.85,"target":"left","response":"right","rt":374,"correct":false,"confidence":5},{"trial_n":63,"n_dots":2.95,"target":"right","response":"right","rt":394.19999999925,"correct":true,"confidence":4},{"trial_n":64,"n_dots":2.95,"target":"right","response":"right","rt":493,"correct":true,"confidence":5},{"trial_n":65,"n_dots":2.85,"target":"left","response":"right","rt":295.19999999925,"correct":false,"confidence":4},{"trial_n":66,"n_dots":2.95,"target":"right","response":"right","rt":351.19999999925,"correct":true,"confidence":6},{"trial_n":67,"n_dots":2.95,"target":"left","response":"right","rt":1010.5,"correct":false,"confidence":3},{"trial_n":68,"n_dots":3.05,"target":"right","response":"right","rt":2840.700000003,"correct":true,"confidence":1},{"trial_n":69,"n_dots":3.05,"target":"left","response":"left","rt":1666.1999999993,"correct":true,"confidence":3},{"trial_n":70,"n_dots":2.95,"target":"left","response":"right","rt":1204.6999999993,"correct":false,"confidence":1},{"trial_n":71,"n_dots":3.05,"target":"right","response":"left","rt":1112.3999999985,"correct":false,"confidence":2},{"trial_n":72,"n_dots":3.15,"target":"right","response":"right","rt":444.09999999776,"correct":true,"confidence":4},{"trial_n":73,"n_dots":3.15,"target":"right","response":"right","rt":373,"correct":true,"confidence":3},{"trial_n":74,"n_dots":3.05,"target":"left","response":"left","rt":541.40000000224,"correct":true,"confidence":4},{"trial_n":75,"n_dots":3.05,"target":"right","response":"right","rt":323,"correct":true,"confidence":3},{"trial_n":76,"n_dots":2.95,"target":"left","response":"left","rt":661.79999999702,"correct":true,"confidence":4},{"trial_n":77,"n_dots":2.95,"target":"left","response":"left","rt":631.69999999925,"correct":true,"confidence":5},{"trial_n":78,"n_dots":2.85,"target":"left","response":"right","rt":426.89999999851,"correct":false,"confidence":3},{"trial_n":79,"n_dots":2.95,"target":"right","response":"right","rt":1591.1999999993,"correct":true,"confidence":1},{"trial_n":80,"n_dots":2.95,"target":"right","response":"right","rt":491.30000000075,"correct":true,"confidence":5},{"trial_n":81,"n_dots":2.85,"target":"right","response":"right","rt":338.5,"correct":true,"confidence":5},{"trial_n":82,"n_dots":2.85,"target":"left","response":"left","rt":2253.1000000015,"correct":true,"confidence":3},{"trial_n":83,"n_dots":2.75,"target":"left","response":"left","rt":1454.700000003,"correct":true,"confidence":2},{"trial_n":84,"n_dots":2.75,"target":"right","response":"right","rt":2423.6999999993,"correct":true,"confidence":1},{"trial_n":85,"n_dots":2.65,"target":"right","response":"right","rt":1097,"correct":true,"confidence":4},{"trial_n":86,"n_dots":2.65,"target":"right","response":"right","rt":3450,"correct":true,"confidence":1},{"trial_n":87,"n_dots":2.55,"target":"right","response":"right","rt":542,"correct":true,"confidence":4},{"trial_n":88,"n_dots":2.55,"target":"left","response":"left","rt":381.79999999702,"correct":true,"confidence":1},{"trial_n":89,"n_dots":2.45,"target":"right","response":"left","rt":1699.3999999985,"correct":false,"confidence":3},{"trial_n":90,"n_dots":2.55,"target":"left","response":"right","rt":427.5,"correct":false,"confidence":5},{"trial_n":91,"n_dots":2.65,"target":"left","response":"left","rt":357.19999999925,"correct":true,"confidence":6},{"trial_n":92,"n_dots":2.65,"target":"left","response":"right","rt":371.80000000075,"correct":false,"confidence":4},{"trial_n":93,"n_dots":2.75,"target":"left","response":"right","rt":385,"correct":false,"confidence":3},{"trial_n":94,"n_dots":2.85,"target":"left","response":"left","rt":369.5,"correct":true,"confidence":6},{"trial_n":95,"n_dots":2.85,"target":"right","response":"left","rt":2320.5,"correct":false,"confidence":1},{"trial_n":96,"n_dots":2.95,"target":"right","response":"right","rt":341.89999999851,"correct":true,"confidence":2},{"trial_n":97,"n_dots":2.95,"target":"right","response":"right","rt":573.20000000298,"correct":true,"confidence":5},{"trial_n":98,"n_dots":2.85,"target":"left","response":"left","rt":444.39999999851,"correct":true,"confidence":5},{"trial_n":99,"n_dots":2.85,"target":"left","response":"left","rt":1259.6999999993,"correct":true,"confidence":3},{"trial_n":100,"n_dots":2.75,"target":"right","response":"right","rt":321.80000000075,"correct":true,"confidence":5},{"trial_n":101,"n_dots":2.75,"target":"right","response":"right","rt":431.79999999702,"correct":true,"confidence":4},{"trial_n":102,"n_dots":2.65,"target":"right","response":"right","rt":548.80000000075,"correct":true,"confidence":3},{"trial_n":103,"n_dots":2.65,"target":"left","response":"left","rt":1417.299999997,"correct":true,"confidence":2},{"trial_n":104,"n_dots":2.55,"target":"left","response":"left","rt":407.40000000224,"correct":true,"confidence":2},{"trial_n":105,"n_dots":2.55,"target":"left","response":"left","rt":183.19999999925,"correct":true,"confidence":6},{"trial_n":106,"n_dots":2.45,"target":"left","response":"left","rt":530.70000000298,"correct":true,"confidence":4},{"trial_n":107,"n_dots":2.45,"target":"right","response":"right","rt":932.89999999851,"correct":true,"confidence":5},{"trial_n":108,"n_dots":2.35,"target":"left","response":"left","rt":370.19999999925,"correct":true,"confidence":6},{"trial_n":109,"n_dots":2.35,"target":"left","response":"left","rt":5310.299999997,"correct":true,"confidence":1},{"trial_n":110,"n_dots":2.25,"target":"right","response":"left","rt":487,"correct":false,"confidence":5},{"trial_n":111,"n_dots":2.35,"target":"left","response":"left","rt":255.60000000149,"correct":true,"confidence":6},{"trial_n":112,"n_dots":2.35,"target":"right","response":"right","rt":271.80000000075,"correct":true,"confidence":5},{"trial_n":113,"n_dots":2.25,"target":"left","response":"left","rt":193.40000000224,"correct":true,"confidence":4},{"trial_n":114,"n_dots":2.25,"target":"left","response":"right","rt":292.59999999776,"correct":false,"confidence":4},{"trial_n":115,"n_dots":2.35,"target":"right","response":"left","rt":105.80000000075,"correct":false,"confidence":5},{"trial_n":116,"n_dots":2.45,"target":"right","response":"left","rt":155.30000000075,"correct":false,"confidence":6},{"trial_n":117,"n_dots":2.55,"target":"right","response":"right","rt":1144.700000003,"correct":true,"confidence":1},{"trial_n":118,"n_dots":2.55,"target":"left","response":"right","rt":852.60000000149,"correct":false,"confidence":2},{"trial_n":119,"n_dots":2.65,"target":"right","response":"left","rt":755.69999999925,"correct":false,"confidence":1},{"trial_n":120,"n_dots":2.75,"target":"right","response":"right","rt":476.89999999851,"correct":true,"confidence":4},{"trial_n":121,"n_dots":2.75,"target":"left","response":"right","rt":823.69999999925,"correct":false,"confidence":3},{"trial_n":122,"n_dots":2.85,"target":"right","response":"right","rt":561,"correct":true,"confidence":3},{"trial_n":123,"n_dots":2.85,"target":"left","response":"left","rt":444.19999999925,"correct":true,"confidence":3},{"trial_n":124,"n_dots":2.75,"target":"right","response":"right","rt":221.80000000075,"correct":true,"confidence":5},{"trial_n":125,"n_dots":2.75,"target":"right","response":"left","rt":627.90000000224,"correct":false,"confidence":5},{"trial_n":126,"n_dots":2.85,"target":"left","response":"left","rt":3589.1999999993,"correct":true,"confidence":1},{"trial_n":127,"n_dots":2.85,"target":"right","response":"right","rt":558.80000000075,"correct":true,"confidence":3},{"trial_n":128,"n_dots":2.75,"target":"right","response":"right","rt":280.59999999776,"correct":true,"confidence":3},{"trial_n":129,"n_dots":2.75,"target":"right","response":"right","rt":2005.3999999985,"correct":true,"confidence":1},{"trial_n":130,"n_dots":2.65,"target":"right","response":"right","rt":285.30000000075,"correct":true,"confidence":6},{"trial_n":131,"n_dots":2.65,"target":"right","response":"right","rt":255.69999999925,"correct":true,"confidence":6},{"trial_n":132,"n_dots":2.55,"target":"left","response":"left","rt":945,"correct":true,"confidence":5},{"trial_n":133,"n_dots":2.55,"target":"left","response":"left","rt":1281.4000000022,"correct":true,"confidence":2},{"trial_n":134,"n_dots":2.45,"target":"right","response":"right","rt":621.80000000075,"correct":true,"confidence":3},{"trial_n":135,"n_dots":2.45,"target":"right","response":"left","rt":1000.799999997,"correct":false,"confidence":1},{"trial_n":136,"n_dots":2.55,"target":"right","response":"right","rt":463.60000000149,"correct":true,"confidence":4},{"trial_n":137,"n_dots":2.55,"target":"left","response":"left","rt":561.10000000149,"correct":true,"confidence":4},{"trial_n":138,"n_dots":2.45,"target":"left","response":"left","rt":855.29999999702,"correct":true,"confidence":3},{"trial_n":139,"n_dots":2.45,"target":"left","response":"right","rt":293.30000000075,"correct":false,"confidence":4},{"trial_n":140,"n_dots":2.55,"target":"right","response":"right","rt":1052.4000000022,"correct":true,"confidence":3},{"trial_n":141,"n_dots":2.55,"target":"right","response":"right","rt":1158.1000000015,"correct":true,"confidence":2},{"trial_n":142,"n_dots":2.45,"target":"left","response":"left","rt":1141.5,"correct":true,"confidence":2},{"trial_n":143,"n_dots":2.45,"target":"left","response":"left","rt":571.89999999851,"correct":true,"confidence":5},{"trial_n":144,"n_dots":2.35,"target":"left","response":"left","rt":1938.799999997,"correct":true,"confidence":4},{"trial_n":145,"n_dots":2.35,"target":"right","response":"left","rt":952.10000000149,"correct":false,"confidence":5},{"trial_n":146,"n_dots":2.45,"target":"left","response":"right","rt":3484.5,"correct":false,"confidence":1},{"trial_n":147,"n_dots":2.55,"target":"right","response":"right","rt":526.19999999925,"correct":true,"confidence":4},{"trial_n":148,"n_dots":2.55,"target":"right","response":"right","rt":393.69999999925,"correct":true,"confidence":5},{"trial_n":149,"n_dots":2.45,"target":"left","response":"right","rt":973.20000000298,"correct":false,"confidence":4},{"trial_n":150,"n_dots":2.55,"target":"left","response":"left","rt":981.80000000075,"correct":true,"confidence":1},{"trial_n":151,"n_dots":2.55,"target":"left","response":"right","rt":591.09999999776,"correct":false,"confidence":3},{"trial_n":152,"n_dots":2.65,"target":"left","response":"left","rt":231.19999999925,"correct":true,"confidence":6},{"trial_n":153,"n_dots":2.65,"target":"right","response":"left","rt":671.80000000075,"correct":false,"confidence":4},{"trial_n":154,"n_dots":2.75,"target":"right","response":"right","rt":374.60000000149,"correct":true,"confidence":6},{"trial_n":155,"n_dots":2.75,"target":"right","response":"left","rt":695.39999999851,"correct":false,"confidence":5},{"trial_n":156,"n_dots":2.85,"target":"right","response":"left","rt":2077.5,"correct":false,"confidence":5},{"trial_n":157,"n_dots":2.95,"target":"right","response":"right","rt":339.90000000224,"correct":true,"confidence":5},{"trial_n":158,"n_dots":2.95,"target":"right","response":"left","rt":408,"correct":false,"confidence":5},{"trial_n":159,"n_dots":3.05,"target":"left","response":"right","rt":833.89999999851,"correct":false,"confidence":1},{"trial_n":160,"n_dots":3.15,"target":"right","response":"right","rt":1272.0999999978,"correct":true,"confidence":3},{"trial_n":161,"n_dots":3.15,"target":"right","response":"right","rt":1339.3000000007,"correct":true,"confidence":1},{"trial_n":162,"n_dots":3.05,"target":"right","response":"right","rt":464.19999999925,"correct":true,"confidence":4},{"trial_n":163,"n_dots":3.05,"target":"left","response":"left","rt":603.09999999776,"correct":true,"confidence":5},{"trial_n":164,"n_dots":2.95,"target":"right","response":"right","rt":487,"correct":true,"confidence":4},{"trial_n":165,"n_dots":2.95,"target":"right","response":"right","rt":443.5,"correct":true,"confidence":5},{"trial_n":166,"n_dots":2.85,"target":"right","response":"left","rt":1064.5,"correct":false,"confidence":4},{"trial_n":167,"n_dots":2.95,"target":"left","response":"left","rt":984.30000000075,"correct":true,"confidence":5},{"trial_n":168,"n_dots":2.95,"target":"left","response":"right","rt":589.39999999851,"correct":false,"confidence":3},{"trial_n":169,"n_dots":3.05,"target":"right","response":"left","rt":342.69999999925,"correct":false,"confidence":1},{"trial_n":170,"n_dots":3.15,"target":"right","response":"right","rt":485.80000000075,"correct":true,"confidence":3},{"trial_n":171,"n_dots":3.15,"target":"right","response":"right","rt":1907.6000000015,"correct":true,"confidence":2},{"trial_n":172,"n_dots":3.05,"target":"right","response":"right","rt":568.30000000075,"correct":true,"confidence":6},{"trial_n":173,"n_dots":3.05,"target":"right","response":"right","rt":563.5,"correct":true,"confidence":5},{"trial_n":174,"n_dots":2.95,"target":"left","response":"right","rt":516.69999999925,"correct":false,"confidence":4},{"trial_n":175,"n_dots":3.05,"target":"right","response":"right","rt":865.19999999925,"correct":true,"confidence":5},{"trial_n":176,"n_dots":3.05,"target":"left","response":"right","rt":1513.799999997,"correct":false,"confidence":2},{"trial_n":177,"n_dots":3.15,"target":"left","response":"left","rt":331.80000000075,"correct":true,"confidence":6},{"trial_n":178,"n_dots":3.15,"target":"left","response":"left","rt":1339,"correct":true,"confidence":1},{"trial_n":179,"n_dots":3.05,"target":"right","response":"right","rt":225.89999999851,"correct":true,"confidence":5},{"trial_n":180,"n_dots":3.05,"target":"right","response":"right","rt":297.89999999851,"correct":true,"confidence":5},{"trial_n":181,"n_dots":2.95,"target":"left","response":"left","rt":435.10000000149,"correct":true,"confidence":3},{"trial_n":182,"n_dots":2.95,"target":"left","response":"left","rt":827.69999999925,"correct":true,"confidence":2},{"trial_n":183,"n_dots":2.85,"target":"left","response":"left","rt":430.79999999702,"correct":true,"confidence":4},{"trial_n":184,"n_dots":2.85,"target":"left","response":"left","rt":1033,"correct":true,"confidence":1},{"trial_n":185,"n_dots":2.75,"target":"right","response":"right","rt":426.39999999851,"correct":true,"confidence":4},{"trial_n":186,"n_dots":2.75,"target":"right","response":"left","rt":491.60000000149,"correct":false,"confidence":4},{"trial_n":187,"n_dots":2.85,"target":"left","response":"right","rt":748.30000000075,"correct":false,"confidence":3},{"trial_n":188,"n_dots":2.95,"target":"left","response":"left","rt":852.90000000224,"correct":true,"confidence":3},{"trial_n":189,"n_dots":2.95,"target":"left","response":"right","rt":520.5,"correct":false,"confidence":4},{"trial_n":190,"n_dots":3.05,"target":"left","response":"left","rt":217.10000000149,"correct":true,"confidence":5},{"trial_n":191,"n_dots":3.05,"target":"right","response":"right","rt":250.69999999925,"correct":true,"confidence":6},{"trial_n":192,"n_dots":2.95,"target":"right","response":"left","rt":746.69999999925,"correct":false,"confidence":3},{"trial_n":193,"n_dots":3.05,"target":"left","response":"left","rt":439.10000000149,"correct":true,"confidence":5},{"trial_n":194,"n_dots":3.05,"target":"right","response":"right","rt":336.80000000075,"correct":true,"confidence":5}]