[{"trial_n":1,"n_dots":4.25,"target":"right","response":"left","rt":2638.9000000954,"correct":false,"confidence":-1},{"trial_n":2,"n_dots":4.25,"target":"left","response":"left","rt":906.59999990463,"correct":true,"confidence":-1},{"trial_n":3,"n_dots":4.25,"target":"left","response":"right","rt":680.59999990463,"correct":false,"confidence":-1},{"trial_n":4,"n_dots":4.65,"target":"left","response":"right","rt":1013.9000000954,"correct":false,"confidence":-1},{"trial_n":5,"n_dots":5.05,"target":"right","response":"right","rt":908.59999990463,"correct":true,"confidence":-1},{"trial_n":6,"n_dots":5.05,"target":"right","response":"right","rt":746.2999997139,"correct":true,"confidence":-1},{"trial_n":7,"n_dots":4.65,"target":"right","response":"right","rt":888.7000002861,"correct":true,"confidence":-1},{"trial_n":8,"n_dots":4.65,"target":"left","response":"left","rt":633.2000002861,"correct":true,"confidence":-1},{"trial_n":9,"n_dots":4.45,"target":"right","response":"right","rt":562.30000019073,"correct":true,"confidence":-1},{"trial_n":10,"n_dots":4.45,"target":"left","response":"right","rt":603.19999980927,"correct":false,"confidence":-1},{"trial_n":11,"n_dots":4.65,"target":"right","response":"right","rt":631.59999990463,"correct":true,"confidence":-1},{"trial_n":12,"n_dots":4.65,"target":"left","response":"left","rt":617.89999961853,"correct":true,"confidence":-1},{"trial_n":13,"n_dots":4.55,"target":"left","response":"left","rt":698.69999980927,"correct":true,"confidence":-1},{"trial_n":14,"n_dots":4.55,"target":"right","response":"right","rt":622.09999990463,"correct":true,"confidence":-1},{"trial_n":15,"n_dots":4.45,"target":"right","response":"right","rt":761.30000019073,"correct":true,"confidence":-1},{"trial_n":16,"n_dots":4.45,"target":"right","response":"right","rt":622.59999990463,"correct":true,"confidence":-1},{"trial_n":17,"n_dots":4.35,"target":"left","response":"left","rt":730.7999997139,"correct":true,"confidence":-1},{"trial_n":18,"n_dots":4.35,"target":"right","response":"right","rt":686.59999990463,"correct":true,"confidence":-1},{"trial_n":19,"n_dots":4.25,"target":"right","response":"right","rt":500.90000009537,"correct":true,"confidence":-1},{"trial_n":20,"n_dots":4.25,"target":"left","response":"right","rt":517.40000009537,"correct":false,"confidence":-1},{"trial_n":21,"n_dots":4.35,"target":"left","response":"right","rt":642.90000009537,"correct":false,"confidence":-1},{"trial_n":22,"n_dots":4.45,"target":"right","response":"right","rt":625.10000038147,"correct":true,"confidence":-1},{"trial_n":23,"n_dots":4.45,"target":"right","response":"right","rt":536.80000019073,"correct":true,"confidence":-1},{"trial_n":24,"n_dots":4.35,"target":"right","response":"right","rt":650.90000009537,"correct":true,"confidence":-1},{"trial_n":25,"n_dots":4.35,"target":"left","response":"right","rt":652.5,"correct":false,"confidence":-1},{"trial_n":26,"n_dots":4.45,"target":"right","response":"right","rt":640.5,"correct":true,"confidence":-1},{"trial_n":27,"n_dots":4.45,"target":"left","response":"left","rt":322.40000009537,"correct":true,"confidence":5},{"trial_n":28,"n_dots":4.35,"target":"right","response":"right","rt":611.10000038147,"correct":true,"confidence":5},{"trial_n":29,"n_dots":4.35,"target":"right","response":"right","rt":799.69999980927,"correct":true,"confidence":3},{"trial_n":30,"n_dots":4.25,"target":"left","response":"left","rt":1088.4000000954,"correct":true,"confidence":4},{"trial_n":31,"n_dots":4.25,"target":"left","response":"left","rt":702.80000019073,"correct":true,"confidence":4},{"trial_n":32,"n_dots":4.15,"target":"left","response":"left","rt":683.90000009537,"correct":true,"confidence":5},{"trial_n":33,"n_dots":4.15,"target":"left","response":"left","rt":1226.1999998093,"correct":true,"confidence":3},{"trial_n":34,"n_dots":4.05,"target":"left","response":"left","rt":869.30000019073,"correct":true,"confidence":4},{"trial_n":35,"n_dots":4.05,"target":"right","response":"right","rt":1007.9000000954,"correct":true,"confidence":4},{"trial_n":36,"n_dots":3.95,"target":"right","response":"left","rt":1289.6999998093,"correct":false,"confidence":3},{"trial_n":37,"n_dots":4.05,"target":"right","response":"right","rt":595.2999997139,"correct":true,"confidence":4},{"trial_n":38,"n_dots":4.05,"target":"left","response":"left","rt":686.19999980927,"correct":true,"confidence":4},{"trial_n":39,"n_dots":3.95,"target":"right","response":"left","rt":809.40000009537,"correct":false,"confidence":4},{"trial_n":40,"n_dots":4.05,"target":"right","response":"right","rt":759.59999990463,"correct":true,"confidence":4},{"trial_n":41,"n_dots":4.05,"target":"right","response":"right","rt":630.19999980927,"correct":true,"confidence":3},{"trial_n":42,"n_dots":3.95,"target":"right","response":"right","rt":553.69999980927,"correct":true,"confidence":4},{"trial_n":43,"n_dots":3.95,"target":"left","response":"left","rt":811.30000019073,"correct":true,"confidence":4},{"trial_n":44,"n_dots":3.85,"target":"right","response":"right","rt":666.09999990463,"correct":true,"confidence":4},{"trial_n":45,"n_dots":3.85,"target":"right","response":"right","rt":558.90000009537,"correct":true,"confidence":5},{"trial_n":46,"n_dots":3.75,"target":"left","response":"left","rt":851.40000009537,"correct":true,"confidence":3},{"trial_n":47,"n_dots":3.75,"target":"left","response":"left","rt":876,"correct":true,"confidence":3},{"trial_n":48,"n_dots":3.65,"target":"left","response":"right","rt":1647.6999998093,"correct":false,"confidence":4},{"trial_n":49,"n_dots":3.75,"target":"right","response":"right","rt":831.19999980927,"correct":true,"confidence":4},{"trial_n":50,"n_dots":3.75,"target":"right","response":"right","rt":585.59999990463,"correct":true,"confidence":4},{"trial_n":51,"n_dots":3.65,"target":"left","response":"left","rt":545.5,"correct":true,"confidence":3},{"trial_n":52,"n_dots":3.65,"target":"left","response":"left","rt":735.19999980927,"correct":true,"confidence":3},{"trial_n":53,"n_dots":3.55,"target":"left","response":"left","rt":739.5,"correct":true,"confidence":4},{"trial_n":54,"n_dots":3.55,"target":"right","response":"right","rt":854.39999961853,"correct":true,"confidence":4},{"trial_n":55,"n_dots":3.45,"target":"right","response":"right","rt":996.69999980927,"correct":true,"confidence":4},{"trial_n":56,"n_dots":3.45,"target":"left","response":"right","rt":797,"correct":false,"confidence":4},{"trial_n":57,"n_dots":3.55,"target":"left","response":"right","rt":813.2999997139,"correct":false,"confidence":3},{"trial_n":58,"n_dots":3.65,"target":"right","response":"right","rt":840.2000002861,"correct":true,"confidence":5},{"trial_n":59,"n_dots":3.65,"target":"left","response":"left","rt":1092.5,"correct":true,"confidence":3},{"trial_n":60,"n_dots":3.55,"target":"right","response":"right","rt":844.40000009537,"correct":true,"confidence":3},{"trial_n":61,"n_dots":3.55,"target":"left","response":"right","rt":1190,"correct":false,"confidence":3},{"trial_n":62,"n_dots":3.65,"target":"right","response":"left","rt":1222.9000000954,"correct":false,"confidence":4},{"trial_n":63,"n_dots":3.75,"target":"left","response":"left","rt":911.89999961853,"correct":true,"confidence":4},{"trial_n":64,"n_dots":3.75,"target":"right","response":"right","rt":863.69999980927,"correct":true,"confidence":4},{"trial_n":65,"n_dots":3.65,"target":"left","response":"right","rt":1092.5999999046,"correct":false,"confidence":4},{"trial_n":66,"n_dots":3.75,"target":"right","response":"left","rt":1087.4000000954,"correct":false,"confidence":3},{"trial_n":67,"n_dots":3.85,"target":"left","response":"left","rt":928.09999990463,"correct":true,"confidence":4},{"trial_n":68,"n_dots":3.85,"target":"left","response":"left","rt":1295.5,"correct":true,"confidence":4},{"trial_n":69,"n_dots":3.75,"target":"left","response":"left","rt":1049.0999999046,"correct":true,"confidence":4},{"trial_n":70,"n_dots":3.75,"target":"left","response":"left","rt":955.40000009537,"correct":true,"confidence":4},{"trial_n":71,"n_dots":3.65,"target":"right","response":"right","rt":701.40000009537,"correct":true,"confidence":5},{"trial_n":72,"n_dots":3.65,"target":"left","response":"left","rt":949.09999990463,"correct":true,"confidence":3},{"trial_n":73,"n_dots":3.55,"target":"right","response":"right","rt":713.2999997139,"correct":true,"confidence":4},{"trial_n":74,"n_dots":3.55,"target":"left","response":"left","rt":972.10000038147,"correct":true,"confidence":4},{"trial_n":75,"n_dots":3.45,"target":"left","response":"left","rt":1028.2000002861,"correct":true,"confidence":4},{"trial_n":76,"n_dots":3.45,"target":"right","response":"right","rt":766.7999997139,"correct":true,"confidence":4},{"trial_n":77,"n_dots":3.35,"target":"left","response":"left","rt":1039.7999997139,"correct":true,"confidence":4},{"trial_n":78,"n_dots":3.35,"target":"right","response":"right","rt":817.59999990463,"correct":true,"confidence":4},{"trial_n":79,"n_dots":3.25,"target":"right","response":"right","rt":860.30000019073,"correct":true,"confidence":5},{"trial_n":80,"n_dots":3.25,"target":"right","response":"right","rt":1621.8000001907,"correct":true,"confidence":3},{"trial_n":81,"n_dots":3.15,"target":"left","response":"left","rt":916.5,"correct":true,"confidence":3},{"trial_n":82,"n_dots":3.15,"target":"left","response":"right","rt":987.7000002861,"correct":false,"confidence":3},{"trial_n":83,"n_dots":3.25,"target":"left","response":"left","rt":1050.5999999046,"correct":true,"confidence":3},{"trial_n":84,"n_dots":3.25,"target":"left","response":"right","rt":750.40000009537,"correct":false,"confidence":3},{"trial_n":85,"n_dots":3.35,"target":"right","response":"right","rt":1008,"correct":true,"confidence":3},{"trial_n":86,"n_dots":3.35,"target":"right","response":"right","rt":1310.4000000954,"correct":true,"confidence":3},{"trial_n":87,"n_dots":3.25,"target":"left","response":"left","rt":958.59999990463,"correct":true,"confidence":3},{"trial_n":88,"n_dots":3.25,"target":"left","response":"right","rt":989.09999990463,"correct":false,"confidence":4},{"trial_n":89,"n_dots":3.35,"target":"left","response":"left","rt":964,"correct":true,"confidence":4},{"trial_n":90,"n_dots":3.35,"target":"left","response":"left","rt":903.59999990463,"correct":true,"confidence":3},{"trial_n":91,"n_dots":3.25,"target":"right","response":"right","rt":860.59999990463,"correct":true,"confidence":4},{"trial_n":92,"n_dots":3.25,"target":"left","response":"left","rt":983.40000009537,"correct":true,"confidence":3},{"trial_n":93,"n_dots":3.15,"target":"right","response":"right","rt":684.59999990463,"correct":true,"confidence":3},{"trial_n":94,"n_dots":3.15,"target":"right","response":"right","rt":627.2000002861,"correct":true,"confidence":4},{"trial_n":95,"n_dots":3.05,"target":"right","response":"right","rt":685.69999980927,"correct":true,"confidence":3},{"trial_n":96,"n_dots":3.05,"target":"right","response":"right","rt":890.59999990463,"correct":true,"confidence":3},{"trial_n":97,"n_dots":2.95,"target":"left","response":"left","rt":1043.2999997139,"correct":true,"confidence":3},{"trial_n":98,"n_dots":2.95,"target":"left","response":"right","rt":766.40000009537,"correct":false,"confidence":3},{"trial_n":99,"n_dots":3.05,"target":"right","response":"right","rt":769.80000019073,"correct":true,"confidence":3},{"trial_n":100,"n_dots":3.05,"target":"left","response":"left","rt":1803.4000000954,"correct":true,"confidence":3},{"trial_n":101,"n_dots":2.95,"target":"left","response":"left","rt":964.5,"correct":true,"confidence":3},{"trial_n":102,"n_dots":2.95,"target":"left","response":"right","rt":774.5,"correct":false,"confidence":3},{"trial_n":103,"n_dots":3.05,"target":"left","response":"left","rt":810.19999980927,"correct":true,"confidence":3},{"trial_n":104,"n_dots":3.05,"target":"right","response":"right","rt":854,"correct":true,"confidence":3},{"trial_n":105,"n_dots":2.95,"target":"right","response":"right","rt":874.30000019073,"correct":true,"confidence":3},{"trial_n":106,"n_dots":2.95,"target":"right","response":"right","rt":783.40000009537,"correct":true,"confidence":3},{"trial_n":107,"n_dots":2.85,"target":"left","response":"left","rt":1776.6999998093,"correct":true,"confidence":3},{"trial_n":108,"n_dots":2.85,"target":"left","response":"left","rt":828.2999997139,"correct":true,"confidence":3},{"trial_n":109,"n_dots":2.75,"target":"left","response":"right","rt":780,"correct":false,"confidence":4},{"trial_n":110,"n_dots":2.85,"target":"left","response":"left","rt":983.19999980927,"correct":true,"confidence":3},{"trial_n":111,"n_dots":2.85,"target":"right","response":"right","rt":797,"correct":true,"confidence":3},{"trial_n":112,"n_dots":2.75,"target":"right","response":"right","rt":11054.399999619,"correct":true,"confidence":3},{"trial_n":113,"n_dots":2.75,"target":"left","response":"left","rt":1210.1999998093,"correct":true,"confidence":3},{"trial_n":114,"n_dots":2.65,"target":"left","response":"left","rt":851.90000009537,"correct":true,"confidence":3},{"trial_n":115,"n_dots":2.65,"target":"right","response":"right","rt":739.40000009537,"correct":true,"confidence":3},{"trial_n":116,"n_dots":2.55,"target":"left","response":"left","rt":900.19999980927,"correct":true,"confidence":3},{"trial_n":117,"n_dots":2.55,"target":"right","response":"left","rt":1000.6999998093,"correct":false,"confidence":3},{"trial_n":118,"n_dots":2.65,"target":"right","response":"right","rt":1440.3000001907,"correct":true,"confidence":3},{"trial_n":119,"n_dots":2.65,"target":"right","response":"right","rt":763.2999997139,"correct":true,"confidence":3},{"trial_n":120,"n_dots":2.55,"target":"left","response":"right","rt":833.69999980927,"correct":false,"confidence":3},{"trial_n":121,"n_dots":2.65,"target":"left","response":"left","rt":976.40000009537,"correct":true,"confidence":3},{"trial_n":122,"n_dots":2.65,"target":"right","response":"right","rt":895.19999980927,"correct":true,"confidence":3},{"trial_n":123,"n_dots":2.55,"target":"left","response":"left","rt":876.90000009537,"correct":true,"confidence":3},{"trial_n":124,"n_dots":2.55,"target":"left","response":"right","rt":894,"correct":false,"confidence":3},{"trial_n":125,"n_dots":2.65,"target":"left","response":"left","rt":822.19999980927,"correct":true,"confidence":4},{"trial_n":126,"n_dots":2.65,"target":"right","response":"right","rt":864,"correct":true,"confidence":4},{"trial_n":127,"n_dots":2.55,"target":"right","response":"right","rt":1060.8000001907,"correct":true,"confidence":4},{"trial_n":128,"n_dots":2.55,"target":"right","response":"right","rt":1833.5999999046,"correct":true,"confidence":3},{"trial_n":129,"n_dots":2.45,"target":"left","response":"left","rt":845.80000019073,"correct":true,"confidence":4},{"trial_n":130,"n_dots":2.45,"target":"left","response":"left","rt":816.90000009537,"correct":true,"confidence":4},{"trial_n":131,"n_dots":2.35,"target":"right","response":"left","rt":815.80000019073,"correct":false,"confidence":4},{"trial_n":132,"n_dots":2.45,"target":"left","response":"left","rt":890.39999961853,"correct":true,"confidence":4},{"trial_n":133,"n_dots":2.45,"target":"left","response":"left","rt":1384.8000001907,"correct":true,"confidence":4},{"trial_n":134,"n_dots":2.35,"target":"left","response":"left","rt":978.59999990463,"correct":true,"confidence":4},{"trial_n":135,"n_dots":2.35,"target":"left","response":"right","rt":782.59999990463,"correct":false,"confidence":3},{"trial_n":136,"n_dots":2.45,"target":"left","response":"left","rt":1043.4000000954,"correct":true,"confidence":4},{"trial_n":137,"n_dots":2.45,"target":"left","response":"left","rt":1060.5999999046,"correct":true,"confidence":3},{"trial_n":138,"n_dots":2.35,"target":"right","response":"right","rt":3200.0999999046,"correct":true,"confidence":3},{"trial_n":139,"n_dots":2.35,"target":"right","response":"left","rt":999.09999990463,"correct":false,"confidence":3},{"trial_n":140,"n_dots":2.45,"target":"left","response":"left","rt":1177.2999997139,"correct":true,"confidence":4},{"trial_n":141,"n_dots":2.45,"target":"left","response":"right","rt":1211,"correct":false,"confidence":4},{"trial_n":142,"n_dots":2.55,"target":"right","response":"right","rt":865.2000002861,"correct":true,"confidence":3},{"trial_n":143,"n_dots":2.55,"target":"right","response":"right","rt":862.2000002861,"correct":true,"confidence":4},{"trial_n":144,"n_dots":2.45,"target":"left","response":"left","rt":1025.5,"correct":true,"confidence":5},{"trial_n":145,"n_dots":2.45,"target":"right","response":"left","rt":1626.0999999046,"correct":false,"confidence":3},{"trial_n":146,"n_dots":2.55,"target":"left","response":"right","rt":762.7000002861,"correct":false,"confidence":4},{"trial_n":147,"n_dots":2.65,"target":"right","response":"left","rt":1009,"correct":false,"confidence":3},{"trial_n":148,"n_dots":2.75,"target":"left","response":"left","rt":1132.8000001907,"correct":true,"confidence":3},{"trial_n":149,"n_dots":2.75,"target":"right","response":"right","rt":821.30000019073,"correct":true,"confidence":5},{"trial_n":150,"n_dots":2.65,"target":"right","response":"right","rt":846.7999997139,"correct":true,"confidence":4},{"trial_n":151,"n_dots":2.65,"target":"right","response":"left","rt":998.80000019073,"correct":false,"confidence":3},{"trial_n":152,"n_dots":2.75,"target":"right","response":"left","rt":888.2999997139,"correct":false,"confidence":4},{"trial_n":153,"n_dots":2.85,"target":"right","response":"right","rt":626,"correct":true,"confidence":3},{"trial_n":154,"n_dots":2.85,"target":"right","response":"right","rt":749.59999990463,"correct":true,"confidence":4},{"trial_n":155,"n_dots":2.75,"target":"right","response":"right","rt":765.09999990463,"correct":true,"confidence":4},{"trial_n":156,"n_dots":2.75,"target":"left","response":"right","rt":832.59999990463,"correct":false,"confidence":4},{"trial_n":157,"n_dots":2.85,"target":"left","response":"right","rt":668.90000009537,"correct":false,"confidence":4},{"trial_n":158,"n_dots":2.95,"target":"right","response":"right","rt":708.09999990463,"correct":true,"confidence":4},{"trial_n":159,"n_dots":2.95,"target":"left","response":"right","rt":923.7999997139,"correct":false,"confidence":4},{"trial_n":160,"n_dots":3.05,"target":"left","response":"left","rt":1189.0999999046,"correct":true,"confidence":4},{"trial_n":161,"n_dots":3.05,"target":"right","response":"right","rt":836.2000002861,"correct":true,"confidence":4},{"trial_n":162,"n_dots":2.95,"target":"right","response":"left","rt":1092.1999998093,"correct":false,"confidence":4},{"trial_n":163,"n_dots":3.05,"target":"right","response":"right","rt":685.80000019073,"correct":true,"confidence":4},{"trial_n":164,"n_dots":3.05,"target":"right","response":"right","rt":757.09999990463,"correct":true,"confidence":4},{"trial_n":165,"n_dots":2.95,"target":"left","response":"left","rt":952.90000009537,"correct":true,"confidence":3},{"trial_n":166,"n_dots":2.95,"target":"right","response":"right","rt":1399.8000001907,"correct":true,"confidence":4},{"trial_n":167,"n_dots":2.85,"target":"right","response":"left","rt":1106.0999999046,"correct":false,"confidence":3},{"trial_n":168,"n_dots":2.95,"target":"right","response":"right","rt":868.2000002861,"correct":true,"confidence":3},{"trial_n":169,"n_dots":2.95,"target":"left","response":"right","rt":822.5,"correct":false,"confidence":3},{"trial_n":170,"n_dots":3.05,"target":"right","response":"right","rt":1062.5,"correct":true,"confidence":3},{"trial_n":171,"n_dots":3.05,"target":"right","response":"right","rt":2123.2999997139,"correct":true,"confidence":3},{"trial_n":172,"n_dots":2.95,"target":"right","response":"left","rt":961.09999990463,"correct":false,"confidence":3},{"trial_n":173,"n_dots":3.05,"target":"left","response":"left","rt":747.5,"correct":true,"confidence":4},{"trial_n":174,"n_dots":3.05,"target":"right","response":"right","rt":1697.5999999046,"correct":true,"confidence":3},{"trial_n":175,"n_dots":2.95,"target":"left","response":"left","rt":751.5,"correct":true,"confidence":3},{"trial_n":176,"n_dots":2.95,"target":"left","response":"left","rt":893.90000009537,"correct":true,"confidence":4},{"trial_n":177,"n_dots":2.85,"target":"left","response":"left","rt":655.5,"correct":true,"confidence":4},{"trial_n":178,"n_dots":2.85,"target":"left","response":"left","rt":878.7000002861,"correct":true,"confidence":4},{"trial_n":179,"n_dots":2.75,"target":"left","response":"left","rt":895.5,"correct":true,"confidence":4},{"trial_n":180,"n_dots":2.75,"target":"left","response":"left","rt":748.19999980927,"correct":true,"confidence":2},{"trial_n":181,"n_dots":2.65,"target":"right","response":"left","rt":850.40000009537,"correct":false,"confidence":4},{"trial_n":182,"n_dots":2.75,"target":"left","response":"left","rt":979.7000002861,"correct":true,"confidence":5},{"trial_n":183,"n_dots":2.75,"target":"right","response":"right","rt":801.7999997139,"correct":true,"confidence":4},{"trial_n":184,"n_dots":2.65,"target":"right","response":"left","rt":821.40000009537,"correct":false,"confidence":3},{"trial_n":185,"n_dots":2.75,"target":"left","response":"left","rt":698.5,"correct":true,"confidence":3},{"trial_n":186,"n_dots":2.75,"target":"left","response":"left","rt":645.2999997139,"correct":true,"confidence":4},{"trial_n":187,"n_dots":2.65,"target":"right","response":"right","rt":798.30000019073,"correct":true,"confidence":4},{"trial_n":188,"n_dots":2.65,"target":"right","response":"right","rt":624.5,"correct":true,"confidence":4},{"trial_n":189,"n_dots":2.55,"target":"left","response":"right","rt":1527.3000001907,"correct":false,"confidence":4},{"trial_n":190,"n_dots":2.65,"target":"right","response":"right","rt":886.2000002861,"correct":true,"confidence":4},{"trial_n":191,"n_dots":2.65,"target":"right","response":"right","rt":759.90000009537,"correct":true,"confidence":4},{"trial_n":192,"n_dots":2.55,"target":"right","response":"left","rt":869.40000009537,"correct":false,"confidence":4},{"trial_n":193,"n_dots":2.65,"target":"left","response":"right","rt":1059.1999998093,"correct":false,"confidence":3},{"trial_n":194,"n_dots":2.75,"target":"right","response":"right","rt":851.69999980927,"correct":true,"confidence":4}]