[{"trial_n":1,"n_dots":4.25,"target":"right","response":"right","rt":1987,"correct":true,"confidence":-1},{"trial_n":2,"n_dots":4.25,"target":"right","response":"left","rt":261.10000002384,"correct":false,"confidence":-1},{"trial_n":3,"n_dots":4.65,"target":"right","response":"right","rt":192.60000002384,"correct":true,"confidence":-1},{"trial_n":4,"n_dots":4.65,"target":"left","response":"left","rt":272.60000002384,"correct":true,"confidence":-1},{"trial_n":5,"n_dots":4.25,"target":"right","response":"right","rt":2.7999999523163,"correct":true,"confidence":-1},{"trial_n":6,"n_dots":4.25,"target":"left","response":"left","rt":285.20000004768,"correct":true,"confidence":-1},{"trial_n":7,"n_dots":3.85,"target":"left","response":"left","rt":242.89999997616,"correct":true,"confidence":-1},{"trial_n":8,"n_dots":3.85,"target":"left","response":"left","rt":34,"correct":true,"confidence":-1},{"trial_n":9,"n_dots":3.65,"target":"left","response":"left","rt":221.60000002384,"correct":true,"confidence":-1},{"trial_n":10,"n_dots":3.65,"target":"right","response":"right","rt":189.39999997616,"correct":true,"confidence":-1},{"trial_n":11,"n_dots":3.45,"target":"right","response":"right","rt":315.5,"correct":true,"confidence":-1},{"trial_n":12,"n_dots":3.45,"target":"right","response":"left","rt":367.80000007153,"correct":false,"confidence":-1},{"trial_n":13,"n_dots":3.55,"target":"left","response":"left","rt":317,"correct":true,"confidence":-1},{"trial_n":14,"n_dots":3.55,"target":"left","response":"left","rt":123.5,"correct":true,"confidence":-1},{"trial_n":15,"n_dots":3.45,"target":"left","response":"left","rt":312.70000004768,"correct":true,"confidence":-1},{"trial_n":16,"n_dots":3.45,"target":"left","response":"left","rt":203.70000004768,"correct":true,"confidence":-1},{"trial_n":17,"n_dots":3.35,"target":"right","response":"right","rt":52.799999952316,"correct":true,"confidence":-1},{"trial_n":18,"n_dots":3.35,"target":"right","response":"right","rt":194.5,"correct":true,"confidence":-1},{"trial_n":19,"n_dots":3.25,"target":"right","response":"right","rt":438.70000004768,"correct":true,"confidence":-1},{"trial_n":20,"n_dots":3.25,"target":"left","response":"left","rt":66.600000023842,"correct":true,"confidence":-1},{"trial_n":21,"n_dots":3.15,"target":"left","response":"left","rt":159.70000004768,"correct":true,"confidence":-1},{"trial_n":22,"n_dots":3.15,"target":"left","response":"left","rt":169.5,"correct":true,"confidence":-1},{"trial_n":23,"n_dots":3.05,"target":"left","response":"left","rt":465.30000007153,"correct":true,"confidence":-1},{"trial_n":24,"n_dots":3.05,"target":"left","response":"left","rt":156.89999997616,"correct":true,"confidence":-1},{"trial_n":25,"n_dots":2.95,"target":"right","response":"right","rt":339.30000007153,"correct":true,"confidence":-1},{"trial_n":26,"n_dots":2.95,"target":"left","response":"right","rt":312.89999997616,"correct":false,"confidence":-1},{"trial_n":27,"n_dots":3.05,"target":"left","response":"left","rt":369.60000002384,"correct":true,"confidence":6},{"trial_n":28,"n_dots":3.05,"target":"right","response":"right","rt":349.19999992847,"correct":true,"confidence":6},{"trial_n":29,"n_dots":2.95,"target":"right","response":"left","rt":394,"correct":false,"confidence":5},{"trial_n":30,"n_dots":3.05,"target":"right","response":"right","rt":304.30000007153,"correct":true,"confidence":6},{"trial_n":31,"n_dots":3.05,"target":"left","response":"left","rt":281,"correct":true,"confidence":6},{"trial_n":32,"n_dots":2.95,"target":"right","response":"left","rt":253.19999992847,"correct":false,"confidence":6},{"trial_n":33,"n_dots":3.05,"target":"right","response":"right","rt":72.700000047684,"correct":true,"confidence":6},{"trial_n":34,"n_dots":3.05,"target":"right","response":"left","rt":414,"correct":false,"confidence":5},{"trial_n":35,"n_dots":3.15,"target":"right","response":"right","rt":378.29999995232,"correct":true,"confidence":6},{"trial_n":36,"n_dots":3.15,"target":"left","response":"left","rt":380,"correct":true,"confidence":6},{"trial_n":37,"n_dots":3.05,"target":"right","response":"right","rt":1763.2000000477,"correct":true,"confidence":5},{"trial_n":38,"n_dots":3.05,"target":"right","response":"right","rt":433.79999995232,"correct":true,"confidence":4},{"trial_n":39,"n_dots":2.95,"target":"left","response":"left","rt":207.19999992847,"correct":true,"confidence":6},{"trial_n":40,"n_dots":2.95,"target":"right","response":"right","rt":113.39999997616,"correct":true,"confidence":6},{"trial_n":41,"n_dots":2.85,"target":"right","response":"left","rt":99.799999952316,"correct":false,"confidence":3},{"trial_n":42,"n_dots":2.95,"target":"left","response":"left","rt":274.70000004768,"correct":true,"confidence":6},{"trial_n":43,"n_dots":2.95,"target":"right","response":"right","rt":540.29999995232,"correct":true,"confidence":6},{"trial_n":44,"n_dots":2.85,"target":"right","response":"right","rt":385.79999995232,"correct":true,"confidence":5},{"trial_n":45,"n_dots":2.85,"target":"left","response":"left","rt":252.5,"correct":true,"confidence":6},{"trial_n":46,"n_dots":2.75,"target":"right","response":"right","rt":491.60000002384,"correct":true,"confidence":4},{"trial_n":47,"n_dots":2.75,"target":"right","response":"left","rt":561.10000002384,"correct":false,"confidence":3},{"trial_n":48,"n_dots":2.85,"target":"left","response":"left","rt":148.60000002384,"correct":true,"confidence":5},{"trial_n":49,"n_dots":2.85,"target":"left","response":"left","rt":422,"correct":true,"confidence":6},{"trial_n":50,"n_dots":2.75,"target":"left","response":"left","rt":443.39999997616,"correct":true,"confidence":6},{"trial_n":51,"n_dots":2.75,"target":"left","response":"left","rt":347.79999995232,"correct":true,"confidence":5},{"trial_n":52,"n_dots":2.65,"target":"right","response":"right","rt":507.10000002384,"correct":true,"confidence":6},{"trial_n":53,"n_dots":2.65,"target":"left","response":"left","rt":271,"correct":true,"confidence":5},{"trial_n":54,"n_dots":2.55,"target":"left","response":"left","rt":166.70000004768,"correct":true,"confidence":6},{"trial_n":55,"n_dots":2.55,"target":"left","response":"right","rt":186.39999997616,"correct":false,"confidence":6},{"trial_n":56,"n_dots":2.65,"target":"left","response":"left","rt":169.70000004768,"correct":true,"confidence":5},{"trial_n":57,"n_dots":2.65,"target":"left","response":"left","rt":109.19999992847,"correct":true,"confidence":6},{"trial_n":58,"n_dots":2.55,"target":"right","response":"right","rt":277.5,"correct":true,"confidence":5},{"trial_n":59,"n_dots":2.55,"target":"left","response":"left","rt":302.40000009537,"correct":true,"confidence":6},{"trial_n":60,"n_dots":2.45,"target":"left","response":"right","rt":623.39999997616,"correct":false,"confidence":3},{"trial_n":61,"n_dots":2.55,"target":"left","response":"left","rt":215.20000004768,"correct":true,"confidence":6},{"trial_n":62,"n_dots":2.55,"target":"left","response":"left","rt":442.10000002384,"correct":true,"confidence":5},{"trial_n":63,"n_dots":2.45,"target":"left","response":"left","rt":505.60000002384,"correct":true,"confidence":4},{"trial_n":64,"n_dots":2.45,"target":"right","response":"right","rt":377.39999997616,"correct":true,"confidence":5},{"trial_n":65,"n_dots":2.35,"target":"left","response":"left","rt":255.39999997616,"correct":true,"confidence":5},{"trial_n":66,"n_dots":2.35,"target":"right","response":"left","rt":270,"correct":false,"confidence":3},{"trial_n":67,"n_dots":2.45,"target":"left","response":"left","rt":251.29999995232,"correct":true,"confidence":5},{"trial_n":68,"n_dots":2.45,"target":"right","response":"left","rt":369.70000004768,"correct":false,"confidence":5},{"trial_n":69,"n_dots":2.55,"target":"left","response":"left","rt":234.79999995232,"correct":true,"confidence":5},{"trial_n":70,"n_dots":2.55,"target":"left","response":"left","rt":196,"correct":true,"confidence":5},{"trial_n":71,"n_dots":2.45,"target":"left","response":"left","rt":335.5,"correct":true,"confidence":6},{"trial_n":72,"n_dots":2.45,"target":"right","response":"right","rt":340.90000009537,"correct":true,"confidence":4},{"trial_n":73,"n_dots":2.35,"target":"left","response":"left","rt":253.39999997616,"correct":true,"confidence":4},{"trial_n":74,"n_dots":2.35,"target":"left","response":"left","rt":138.40000009537,"correct":true,"confidence":5},{"trial_n":75,"n_dots":2.25,"target":"left","response":"left","rt":285.29999995232,"correct":true,"confidence":3},{"trial_n":76,"n_dots":2.25,"target":"left","response":"left","rt":32.399999976158,"correct":true,"confidence":5},{"trial_n":77,"n_dots":2.15,"target":"left","response":"right","rt":469.10000002384,"correct":false,"confidence":3},{"trial_n":78,"n_dots":2.25,"target":"left","response":"left","rt":337.10000002384,"correct":true,"confidence":4},{"trial_n":79,"n_dots":2.25,"target":"right","response":"right","rt":137.80000007153,"correct":true,"confidence":5},{"trial_n":80,"n_dots":2.15,"target":"left","response":"right","rt":136,"correct":false,"confidence":6},{"trial_n":81,"n_dots":2.25,"target":"right","response":"right","rt":360.70000004768,"correct":true,"confidence":5},{"trial_n":82,"n_dots":2.25,"target":"left","response":"left","rt":308.79999995232,"correct":true,"confidence":5},{"trial_n":83,"n_dots":2.15,"target":"right","response":"right","rt":94.099999904633,"correct":true,"confidence":5},{"trial_n":84,"n_dots":2.15,"target":"left","response":"right","rt":518.80000007153,"correct":false,"confidence":3},{"trial_n":85,"n_dots":2.25,"target":"left","response":"left","rt":383.80000007153,"correct":true,"confidence":4},{"trial_n":86,"n_dots":2.25,"target":"right","response":"right","rt":348.60000002384,"correct":true,"confidence":5},{"trial_n":87,"n_dots":2.15,"target":"left","response":"left","rt":293,"correct":true,"confidence":2},{"trial_n":88,"n_dots":2.15,"target":"left","response":"left","rt":341.39999997616,"correct":true,"confidence":5},{"trial_n":89,"n_dots":2.05,"target":"right","response":"right","rt":484.5,"correct":true,"confidence":4},{"trial_n":90,"n_dots":2.05,"target":"right","response":"right","rt":329.10000002384,"correct":true,"confidence":3},{"trial_n":91,"n_dots":1.95,"target":"right","response":"right","rt":458.89999997616,"correct":true,"confidence":4},{"trial_n":92,"n_dots":1.95,"target":"right","response":"right","rt":278.79999995232,"correct":true,"confidence":5},{"trial_n":93,"n_dots":1.85,"target":"right","response":"left","rt":176.19999992847,"correct":false,"confidence":4},{"trial_n":94,"n_dots":1.95,"target":"right","response":"right","rt":255.70000004768,"correct":true,"confidence":5},{"trial_n":95,"n_dots":1.95,"target":"right","response":"right","rt":423.5,"correct":true,"confidence":4},{"trial_n":96,"n_dots":1.85,"target":"right","response":"left","rt":342.70000004768,"correct":false,"confidence":5},{"trial_n":97,"n_dots":1.95,"target":"right","response":"right","rt":504,"correct":true,"confidence":4},{"trial_n":98,"n_dots":1.95,"target":"left","response":"right","rt":370.09999990463,"correct":false,"confidence":4},{"trial_n":99,"n_dots":2.05,"target":"left","response":"left","rt":322.59999990463,"correct":true,"confidence":5},{"trial_n":100,"n_dots":2.05,"target":"right","response":"left","rt":376.5,"correct":false,"confidence":5},{"trial_n":101,"n_dots":2.15,"target":"left","response":"left","rt":514.09999990463,"correct":true,"confidence":6},{"trial_n":102,"n_dots":2.15,"target":"right","response":"left","rt":488.80000007153,"correct":false,"confidence":4},{"trial_n":103,"n_dots":2.25,"target":"right","response":"right","rt":282.39999997616,"correct":true,"confidence":5},{"trial_n":104,"n_dots":2.25,"target":"right","response":"right","rt":368.89999997616,"correct":true,"confidence":2},{"trial_n":105,"n_dots":2.15,"target":"right","response":"left","rt":335.89999997616,"correct":false,"confidence":4},{"trial_n":106,"n_dots":2.25,"target":"right","response":"right","rt":296.79999995232,"correct":true,"confidence":5},{"trial_n":107,"n_dots":2.25,"target":"left","response":"left","rt":323.39999997616,"correct":true,"confidence":4},{"trial_n":108,"n_dots":2.15,"target":"left","response":"left","rt":414.89999997616,"correct":true,"confidence":5},{"trial_n":109,"n_dots":2.15,"target":"left","response":"left","rt":385.69999992847,"correct":true,"confidence":6},{"trial_n":110,"n_dots":2.05,"target":"left","response":"left","rt":399,"correct":true,"confidence":4},{"trial_n":111,"n_dots":2.05,"target":"right","response":"right","rt":1430.2999999523,"correct":true,"confidence":4},{"trial_n":112,"n_dots":1.95,"target":"left","response":"left","rt":35.900000095367,"correct":true,"confidence":4},{"trial_n":113,"n_dots":1.95,"target":"left","response":"left","rt":228.89999997616,"correct":true,"confidence":5},{"trial_n":114,"n_dots":1.85,"target":"right","response":"right","rt":2036.2000000477,"correct":true,"confidence":5},{"trial_n":115,"n_dots":1.85,"target":"right","response":"left","rt":456.69999992847,"correct":false,"confidence":4},{"trial_n":116,"n_dots":1.95,"target":"left","response":"right","rt":1802.7000000477,"correct":false,"confidence":5},{"trial_n":117,"n_dots":2.05,"target":"left","response":"right","rt":514.39999997616,"correct":false,"confidence":6},{"trial_n":118,"n_dots":2.15,"target":"right","response":"left","rt":289.40000009537,"correct":false,"confidence":5},{"trial_n":119,"n_dots":2.25,"target":"left","response":"left","rt":385.69999992847,"correct":true,"confidence":4},{"trial_n":120,"n_dots":2.25,"target":"right","response":"right","rt":342.30000007153,"correct":true,"confidence":4},{"trial_n":121,"n_dots":2.15,"target":"right","response":"right","rt":229.79999995232,"correct":true,"confidence":5},{"trial_n":122,"n_dots":2.15,"target":"left","response":"right","rt":418.69999992847,"correct":false,"confidence":5},{"trial_n":123,"n_dots":2.25,"target":"left","response":"right","rt":570.39999997616,"correct":false,"confidence":3},{"trial_n":124,"n_dots":2.35,"target":"right","response":"right","rt":729.5,"correct":true,"confidence":5},{"trial_n":125,"n_dots":2.35,"target":"left","response":"left","rt":590,"correct":true,"confidence":4},{"trial_n":126,"n_dots":2.25,"target":"right","response":"right","rt":713.70000004768,"correct":true,"confidence":4},{"trial_n":127,"n_dots":2.25,"target":"left","response":"left","rt":839.29999995232,"correct":true,"confidence":3},{"trial_n":128,"n_dots":2.15,"target":"left","response":"right","rt":746.30000007153,"correct":false,"confidence":5},{"trial_n":129,"n_dots":2.25,"target":"right","response":"right","rt":291.80000007153,"correct":true,"confidence":3},{"trial_n":130,"n_dots":2.25,"target":"left","response":"left","rt":455.10000002384,"correct":true,"confidence":4},{"trial_n":131,"n_dots":2.15,"target":"right","response":"right","rt":585.90000009537,"correct":true,"confidence":2},{"trial_n":132,"n_dots":2.15,"target":"right","response":"right","rt":493.29999995232,"correct":true,"confidence":4},{"trial_n":133,"n_dots":2.05,"target":"right","response":"right","rt":784.10000002384,"correct":true,"confidence":5},{"trial_n":134,"n_dots":2.05,"target":"left","response":"right","rt":301.20000004768,"correct":false,"confidence":4},{"trial_n":135,"n_dots":2.15,"target":"right","response":"left","rt":467.39999997616,"correct":false,"confidence":2},{"trial_n":136,"n_dots":2.25,"target":"left","response":"left","rt":405.80000007153,"correct":true,"confidence":4},{"trial_n":137,"n_dots":2.25,"target":"left","response":"right","rt":448.79999995232,"correct":false,"confidence":3},{"trial_n":138,"n_dots":2.35,"target":"left","response":"left","rt":271,"correct":true,"confidence":5},{"trial_n":139,"n_dots":2.35,"target":"right","response":"right","rt":301.10000002384,"correct":true,"confidence":5},{"trial_n":140,"n_dots":2.25,"target":"right","response":"left","rt":343.59999990463,"correct":false,"confidence":6},{"trial_n":141,"n_dots":2.35,"target":"right","response":"right","rt":748.70000004768,"correct":true,"confidence":4},{"trial_n":142,"n_dots":2.35,"target":"left","response":"left","rt":396.10000002384,"correct":true,"confidence":3},{"trial_n":143,"n_dots":2.25,"target":"right","response":"left","rt":365.10000002384,"correct":false,"confidence":5},{"trial_n":144,"n_dots":2.35,"target":"left","response":"left","rt":109.30000007153,"correct":true,"confidence":5},{"trial_n":145,"n_dots":2.35,"target":"right","response":"right","rt":350.40000009537,"correct":true,"confidence":5},{"trial_n":146,"n_dots":2.25,"target":"right","response":"left","rt":128.80000007153,"correct":false,"confidence":6},{"trial_n":147,"n_dots":2.35,"target":"right","response":"left","rt":97.100000023842,"correct":false,"confidence":4},{"trial_n":148,"n_dots":2.45,"target":"right","response":"right","rt":625.10000002384,"correct":true,"confidence":3},{"trial_n":149,"n_dots":2.45,"target":"right","response":"right","rt":270.39999997616,"correct":true,"confidence":4},{"trial_n":150,"n_dots":2.35,"target":"right","response":"right","rt":374.89999997616,"correct":true,"confidence":4},{"trial_n":151,"n_dots":2.35,"target":"right","response":"right","rt":363.09999990463,"correct":true,"confidence":5},{"trial_n":152,"n_dots":2.25,"target":"left","response":"left","rt":312.5,"correct":true,"confidence":5},{"trial_n":153,"n_dots":2.25,"target":"left","response":"left","rt":25.100000023842,"correct":true,"confidence":5},{"trial_n":154,"n_dots":2.15,"target":"right","response":"right","rt":325.29999995232,"correct":true,"confidence":4},{"trial_n":155,"n_dots":2.15,"target":"left","response":"left","rt":498.20000004768,"correct":true,"confidence":5},{"trial_n":156,"n_dots":2.05,"target":"left","response":"right","rt":283.60000002384,"correct":false,"confidence":5},{"trial_n":157,"n_dots":2.15,"target":"left","response":"right","rt":407.70000004768,"correct":false,"confidence":4},{"trial_n":158,"n_dots":2.25,"target":"right","response":"right","rt":404.20000004768,"correct":true,"confidence":5},{"trial_n":159,"n_dots":2.25,"target":"right","response":"left","rt":353,"correct":false,"confidence":6},{"trial_n":160,"n_dots":2.35,"target":"left","response":"right","rt":527.79999995232,"correct":false,"confidence":4},{"trial_n":161,"n_dots":2.45,"target":"left","response":"left","rt":404.5,"correct":true,"confidence":5},{"trial_n":162,"n_dots":2.45,"target":"right","response":"right","rt":417.5,"correct":true,"confidence":4},{"trial_n":163,"n_dots":2.35,"target":"right","response":"right","rt":456.29999995232,"correct":true,"confidence":2},{"trial_n":164,"n_dots":2.35,"target":"right","response":"left","rt":396.69999992847,"correct":false,"confidence":4},{"trial_n":165,"n_dots":2.45,"target":"left","response":"left","rt":347.30000007153,"correct":true,"confidence":5},{"trial_n":166,"n_dots":2.45,"target":"right","response":"right","rt":287.79999995232,"correct":true,"confidence":4},{"trial_n":167,"n_dots":2.35,"target":"left","response":"left","rt":183.20000004768,"correct":true,"confidence":5},{"trial_n":168,"n_dots":2.35,"target":"left","response":"right","rt":460.39999997616,"correct":false,"confidence":5},{"trial_n":169,"n_dots":2.45,"target":"right","response":"right","rt":193.79999995232,"correct":true,"confidence":5},{"trial_n":170,"n_dots":2.45,"target":"right","response":"right","rt":652.89999997616,"correct":true,"confidence":3},{"trial_n":171,"n_dots":2.35,"target":"right","response":"left","rt":317.29999995232,"correct":false,"confidence":5},{"trial_n":172,"n_dots":2.45,"target":"right","response":"right","rt":148.89999997616,"correct":true,"confidence":4},{"trial_n":173,"n_dots":2.45,"target":"right","response":"left","rt":474.69999992847,"correct":false,"confidence":5},{"trial_n":174,"n_dots":2.55,"target":"left","response":"left","rt":121.20000004768,"correct":true,"confidence":5},{"trial_n":175,"n_dots":2.55,"target":"right","response":"left","rt":412.09999990463,"correct":false,"confidence":5},{"trial_n":176,"n_dots":2.65,"target":"right","response":"right","rt":243.20000004768,"correct":true,"confidence":5},{"trial_n":177,"n_dots":2.65,"target":"left","response":"left","rt":1158.2999999523,"correct":true,"confidence":5},{"trial_n":178,"n_dots":2.55,"target":"right","response":"left","rt":692.10000002384,"correct":false,"confidence":4},{"trial_n":179,"n_dots":2.65,"target":"right","response":"left","rt":308.29999995232,"correct":false,"confidence":5},{"trial_n":180,"n_dots":2.75,"target":"right","response":"right","rt":1949.8999999762,"correct":true,"confidence":5},{"trial_n":181,"n_dots":2.75,"target":"left","response":"left","rt":337.20000004768,"correct":true,"confidence":6},{"trial_n":182,"n_dots":2.65,"target":"left","response":"left","rt":229.5,"correct":true,"confidence":5},{"trial_n":183,"n_dots":2.65,"target":"right","response":"right","rt":349.10000002384,"correct":true,"confidence":5},{"trial_n":184,"n_dots":2.55,"target":"left","response":"left","rt":1965.6000000238,"correct":true,"confidence":4},{"trial_n":185,"n_dots":2.55,"target":"left","response":"left","rt":323.60000002384,"correct":true,"confidence":4},{"trial_n":186,"n_dots":2.45,"target":"left","response":"left","rt":355.89999997616,"correct":true,"confidence":5},{"trial_n":187,"n_dots":2.45,"target":"right","response":"right","rt":402.10000002384,"correct":true,"confidence":5},{"trial_n":188,"n_dots":2.35,"target":"left","response":"right","rt":649.70000004768,"correct":false,"confidence":5},{"trial_n":189,"n_dots":2.45,"target":"right","response":"right","rt":260.30000007153,"correct":true,"confidence":6},{"trial_n":190,"n_dots":2.45,"target":"right","response":"left","rt":458,"correct":false,"confidence":5},{"trial_n":191,"n_dots":2.55,"target":"left","response":"right","rt":356.10000002384,"correct":false,"confidence":5},{"trial_n":192,"n_dots":2.65,"target":"left","response":"left","rt":291.5,"correct":true,"confidence":6},{"trial_n":193,"n_dots":2.65,"target":"left","response":"left","rt":354.39999997616,"correct":true,"confidence":3},{"trial_n":194,"n_dots":2.55,"target":"right","response":"right","rt":557.90000009537,"correct":true,"confidence":4}]