[{"trial_n":1,"n_dots":4.25,"target":"right","response":"right","rt":7893.1999999881,"correct":true,"confidence":-1},{"trial_n":2,"n_dots":4.25,"target":"right","response":"right","rt":740.39999997616,"correct":true,"confidence":-1},{"trial_n":3,"n_dots":3.85,"target":"left","response":"left","rt":626.79999995232,"correct":true,"confidence":-1},{"trial_n":4,"n_dots":3.85,"target":"right","response":"right","rt":474.10000002384,"correct":true,"confidence":-1},{"trial_n":5,"n_dots":3.45,"target":"left","response":"left","rt":495.60000002384,"correct":true,"confidence":-1},{"trial_n":6,"n_dots":3.45,"target":"left","response":"right","rt":201.69999998808,"correct":false,"confidence":-1},{"trial_n":7,"n_dots":3.85,"target":"right","response":"left","rt":721.69999998808,"correct":false,"confidence":-1},{"trial_n":8,"n_dots":4.05,"target":"left","response":"right","rt":622.10000002384,"correct":false,"confidence":-1},{"trial_n":9,"n_dots":4.25,"target":"right","response":"right","rt":585.79999995232,"correct":true,"confidence":-1},{"trial_n":10,"n_dots":4.25,"target":"right","response":"right","rt":672.80000001192,"correct":true,"confidence":-1},{"trial_n":11,"n_dots":4.05,"target":"left","response":"left","rt":686.60000002384,"correct":true,"confidence":-1},{"trial_n":12,"n_dots":4.05,"target":"right","response":"left","rt":692.89999997616,"correct":false,"confidence":-1},{"trial_n":13,"n_dots":4.15,"target":"right","response":"left","rt":873.59999996424,"correct":false,"confidence":-1},{"trial_n":14,"n_dots":4.25,"target":"left","response":"left","rt":754.19999998808,"correct":true,"confidence":-1},{"trial_n":15,"n_dots":4.25,"target":"left","response":"left","rt":699.69999998808,"correct":true,"confidence":-1},{"trial_n":16,"n_dots":4.15,"target":"left","response":"right","rt":738,"correct":false,"confidence":-1},{"trial_n":17,"n_dots":4.25,"target":"left","response":"left","rt":660.80000001192,"correct":true,"confidence":-1},{"trial_n":18,"n_dots":4.25,"target":"right","response":"left","rt":730.10000002384,"correct":false,"confidence":-1},{"trial_n":19,"n_dots":4.35,"target":"right","response":"right","rt":652.20000004768,"correct":true,"confidence":-1},{"trial_n":20,"n_dots":4.35,"target":"right","response":"right","rt":285.69999998808,"correct":true,"confidence":-1},{"trial_n":21,"n_dots":4.25,"target":"right","response":"right","rt":321.5,"correct":true,"confidence":-1},{"trial_n":22,"n_dots":4.25,"target":"right","response":"right","rt":478,"correct":true,"confidence":-1},{"trial_n":23,"n_dots":4.15,"target":"right","response":"right","rt":521.70000004768,"correct":true,"confidence":-1},{"trial_n":24,"n_dots":4.15,"target":"right","response":"right","rt":533.30000001192,"correct":true,"confidence":-1},{"trial_n":25,"n_dots":4.05,"target":"left","response":"right","rt":985.89999997616,"correct":false,"confidence":-1},{"trial_n":26,"n_dots":4.15,"target":"right","response":"right","rt":506.30000001192,"correct":true,"confidence":-1},{"trial_n":27,"n_dots":4.15,"target":"right","response":"right","rt":402.10000002384,"correct":true,"confidence":3},{"trial_n":28,"n_dots":4.05,"target":"left","response":"left","rt":701.59999996424,"correct":true,"confidence":4},{"trial_n":29,"n_dots":4.05,"target":"right","response":"right","rt":405.19999998808,"correct":true,"confidence":3},{"trial_n":30,"n_dots":3.95,"target":"left","response":"left","rt":426.69999998808,"correct":true,"confidence":3},{"trial_n":31,"n_dots":3.95,"target":"right","response":"right","rt":469.29999995232,"correct":true,"confidence":4},{"trial_n":32,"n_dots":3.85,"target":"right","response":"right","rt":536,"correct":true,"confidence":4},{"trial_n":33,"n_dots":3.85,"target":"left","response":"left","rt":567.39999997616,"correct":true,"confidence":4},{"trial_n":34,"n_dots":3.75,"target":"left","response":"left","rt":264.19999998808,"correct":true,"confidence":4},{"trial_n":35,"n_dots":3.75,"target":"right","response":"right","rt":815.10000002384,"correct":true,"confidence":2},{"trial_n":36,"n_dots":3.65,"target":"left","response":"right","rt":495.19999998808,"correct":false,"confidence":2},{"trial_n":37,"n_dots":3.75,"target":"right","response":"right","rt":572.40000003576,"correct":true,"confidence":3},{"trial_n":38,"n_dots":3.75,"target":"left","response":"left","rt":491.19999998808,"correct":true,"confidence":1},{"trial_n":39,"n_dots":3.65,"target":"right","response":"right","rt":462.5,"correct":true,"confidence":3},{"trial_n":40,"n_dots":3.65,"target":"left","response":"right","rt":211.69999998808,"correct":false,"confidence":3},{"trial_n":41,"n_dots":3.75,"target":"left","response":"left","rt":102.30000001192,"correct":true,"confidence":3},{"trial_n":42,"n_dots":3.75,"target":"left","response":"right","rt":1011.2999999523,"correct":false,"confidence":2},{"trial_n":43,"n_dots":3.85,"target":"left","response":"left","rt":964.19999998808,"correct":true,"confidence":3},{"trial_n":44,"n_dots":3.85,"target":"right","response":"right","rt":637.90000003576,"correct":true,"confidence":3},{"trial_n":45,"n_dots":3.75,"target":"left","response":"left","rt":586.09999996424,"correct":true,"confidence":4},{"trial_n":46,"n_dots":3.75,"target":"left","response":"left","rt":1508.8000000119,"correct":true,"confidence":4},{"trial_n":47,"n_dots":3.65,"target":"right","response":"right","rt":731.59999996424,"correct":true,"confidence":3},{"trial_n":48,"n_dots":3.65,"target":"right","response":"right","rt":660.80000001192,"correct":true,"confidence":3},{"trial_n":49,"n_dots":3.55,"target":"right","response":"right","rt":606,"correct":true,"confidence":4},{"trial_n":50,"n_dots":3.55,"target":"left","response":"right","rt":378.80000001192,"correct":false,"confidence":4},{"trial_n":51,"n_dots":3.65,"target":"right","response":"right","rt":192.20000004768,"correct":true,"confidence":4},{"trial_n":52,"n_dots":3.65,"target":"right","response":"right","rt":1646.3000000119,"correct":true,"confidence":4},{"trial_n":53,"n_dots":3.55,"target":"left","response":"left","rt":558.09999996424,"correct":true,"confidence":4},{"trial_n":54,"n_dots":3.55,"target":"left","response":"left","rt":686.5,"correct":true,"confidence":1},{"trial_n":55,"n_dots":3.45,"target":"left","response":"right","rt":1619.5,"correct":false,"confidence":2},{"trial_n":56,"n_dots":3.55,"target":"right","response":"right","rt":780.69999998808,"correct":true,"confidence":3},{"trial_n":57,"n_dots":3.55,"target":"right","response":"left","rt":543.80000001192,"correct":false,"confidence":3},{"trial_n":58,"n_dots":3.65,"target":"right","response":"right","rt":619.89999997616,"correct":true,"confidence":4},{"trial_n":59,"n_dots":3.65,"target":"right","response":"right","rt":783.39999997616,"correct":true,"confidence":3},{"trial_n":60,"n_dots":3.55,"target":"right","response":"left","rt":622.90000003576,"correct":false,"confidence":2},{"trial_n":61,"n_dots":3.65,"target":"left","response":"left","rt":663.5,"correct":true,"confidence":3},{"trial_n":62,"n_dots":3.65,"target":"right","response":"right","rt":573,"correct":true,"confidence":3},{"trial_n":63,"n_dots":3.55,"target":"left","response":"left","rt":560.5,"correct":true,"confidence":3},{"trial_n":64,"n_dots":3.55,"target":"left","response":"left","rt":531.89999997616,"correct":true,"confidence":4},{"trial_n":65,"n_dots":3.45,"target":"left","response":"left","rt":713.30000001192,"correct":true,"confidence":1},{"trial_n":66,"n_dots":3.45,"target":"left","response":"left","rt":633.59999996424,"correct":true,"confidence":2},{"trial_n":67,"n_dots":3.35,"target":"left","response":"left","rt":1283.1000000238,"correct":true,"confidence":3},{"trial_n":68,"n_dots":3.35,"target":"right","response":"left","rt":841.59999996424,"correct":false,"confidence":2},{"trial_n":69,"n_dots":3.45,"target":"left","response":"left","rt":809.5,"correct":true,"confidence":2},{"trial_n":70,"n_dots":3.45,"target":"left","response":"left","rt":707.30000001192,"correct":true,"confidence":1},{"trial_n":71,"n_dots":3.35,"target":"left","response":"left","rt":1568.9000000358,"correct":true,"confidence":2},{"trial_n":72,"n_dots":3.35,"target":"right","response":"right","rt":1017.5,"correct":true,"confidence":2},{"trial_n":73,"n_dots":3.25,"target":"left","response":"right","rt":1800.5999999642,"correct":false,"confidence":1},{"trial_n":74,"n_dots":3.35,"target":"right","response":"right","rt":773.89999997616,"correct":true,"confidence":2},{"trial_n":75,"n_dots":3.35,"target":"right","response":"left","rt":712.39999997616,"correct":false,"confidence":2},{"trial_n":76,"n_dots":3.45,"target":"right","response":"right","rt":708.60000002384,"correct":true,"confidence":2},{"trial_n":77,"n_dots":3.45,"target":"left","response":"left","rt":1024,"correct":true,"confidence":2},{"trial_n":78,"n_dots":3.35,"target":"right","response":"right","rt":754.39999997616,"correct":true,"confidence":2},{"trial_n":79,"n_dots":3.35,"target":"right","response":"right","rt":783.5,"correct":true,"confidence":2},{"trial_n":80,"n_dots":3.25,"target":"right","response":"right","rt":726.59999996424,"correct":true,"confidence":3},{"trial_n":81,"n_dots":3.25,"target":"right","response":"right","rt":1492.8000000119,"correct":true,"confidence":1},{"trial_n":82,"n_dots":3.15,"target":"right","response":"left","rt":926.30000001192,"correct":false,"confidence":1},{"trial_n":83,"n_dots":3.25,"target":"left","response":"right","rt":880.09999996424,"correct":false,"confidence":1},{"trial_n":84,"n_dots":3.35,"target":"left","response":"left","rt":784.5,"correct":true,"confidence":1},{"trial_n":85,"n_dots":3.35,"target":"right","response":"right","rt":665.70000004768,"correct":true,"confidence":1},{"trial_n":86,"n_dots":3.25,"target":"left","response":"left","rt":662.60000002384,"correct":true,"confidence":1},{"trial_n":87,"n_dots":3.25,"target":"left","response":"left","rt":741.30000001192,"correct":true,"confidence":1},{"trial_n":88,"n_dots":3.15,"target":"right","response":"right","rt":441,"correct":true,"confidence":3},{"trial_n":89,"n_dots":3.15,"target":"left","response":"left","rt":811.80000001192,"correct":true,"confidence":1},{"trial_n":90,"n_dots":3.05,"target":"left","response":"right","rt":1393.5,"correct":false,"confidence":3},{"trial_n":91,"n_dots":3.15,"target":"right","response":"right","rt":856.89999997616,"correct":true,"confidence":1},{"trial_n":92,"n_dots":3.15,"target":"left","response":"left","rt":748.79999995232,"correct":true,"confidence":2},{"trial_n":93,"n_dots":3.05,"target":"left","response":"left","rt":908.39999997616,"correct":true,"confidence":2},{"trial_n":94,"n_dots":3.05,"target":"right","response":"right","rt":895.5,"correct":true,"confidence":2},{"trial_n":95,"n_dots":2.95,"target":"right","response":"right","rt":1181,"correct":true,"confidence":3},{"trial_n":96,"n_dots":2.95,"target":"right","response":"left","rt":816,"correct":false,"confidence":2},{"trial_n":97,"n_dots":3.05,"target":"left","response":"right","rt":296.80000001192,"correct":false,"confidence":2},{"trial_n":98,"n_dots":3.15,"target":"left","response":"left","rt":476.39999997616,"correct":true,"confidence":2},{"trial_n":99,"n_dots":3.15,"target":"left","response":"right","rt":422.90000003576,"correct":false,"confidence":2},{"trial_n":100,"n_dots":3.25,"target":"left","response":"left","rt":420.5,"correct":true,"confidence":3},{"trial_n":101,"n_dots":3.25,"target":"left","response":"left","rt":1844.3000000119,"correct":true,"confidence":3},{"trial_n":102,"n_dots":3.15,"target":"right","response":"right","rt":1330.3000000119,"correct":true,"confidence":2},{"trial_n":103,"n_dots":3.15,"target":"left","response":"left","rt":1965.1999999881,"correct":true,"confidence":1},{"trial_n":104,"n_dots":3.05,"target":"right","response":"right","rt":656.5,"correct":true,"confidence":2},{"trial_n":105,"n_dots":3.05,"target":"right","response":"left","rt":116.10000002384,"correct":false,"confidence":1},{"trial_n":106,"n_dots":3.15,"target":"right","response":"right","rt":709.39999997616,"correct":true,"confidence":1},{"trial_n":107,"n_dots":3.15,"target":"right","response":"left","rt":812,"correct":false,"confidence":1},{"trial_n":108,"n_dots":3.25,"target":"right","response":"right","rt":1353.6999999881,"correct":true,"confidence":1},{"trial_n":109,"n_dots":3.25,"target":"left","response":"left","rt":4400.9000000358,"correct":true,"confidence":1},{"trial_n":110,"n_dots":3.15,"target":"left","response":"left","rt":1757.6000000238,"correct":true,"confidence":1},{"trial_n":111,"n_dots":3.15,"target":"left","response":"right","rt":1633.5,"correct":false,"confidence":1},{"trial_n":112,"n_dots":3.25,"target":"left","response":"left","rt":790,"correct":true,"confidence":1},{"trial_n":113,"n_dots":3.25,"target":"left","response":"left","rt":1145.2999999523,"correct":true,"confidence":2},{"trial_n":114,"n_dots":3.15,"target":"right","response":"right","rt":2055.6999999881,"correct":true,"confidence":1},{"trial_n":115,"n_dots":3.15,"target":"right","response":"right","rt":707.5,"correct":true,"confidence":1},{"trial_n":116,"n_dots":3.05,"target":"left","response":"left","rt":1081.3000000119,"correct":true,"confidence":1},{"trial_n":117,"n_dots":3.05,"target":"right","response":"right","rt":789.39999997616,"correct":true,"confidence":1},{"trial_n":118,"n_dots":2.95,"target":"right","response":"left","rt":796.40000003576,"correct":false,"confidence":1},{"trial_n":119,"n_dots":3.05,"target":"right","response":"right","rt":575.10000002384,"correct":true,"confidence":1},{"trial_n":120,"n_dots":3.05,"target":"right","response":"left","rt":834.30000001192,"correct":false,"confidence":1},{"trial_n":121,"n_dots":3.15,"target":"left","response":"left","rt":929.89999997616,"correct":true,"confidence":1},{"trial_n":122,"n_dots":3.15,"target":"left","response":"right","rt":82,"correct":false,"confidence":1},{"trial_n":123,"n_dots":3.25,"target":"right","response":"left","rt":497.30000001192,"correct":false,"confidence":1},{"trial_n":124,"n_dots":3.35,"target":"left","response":"left","rt":552,"correct":true,"confidence":2},{"trial_n":125,"n_dots":3.35,"target":"right","response":"right","rt":1684,"correct":true,"confidence":1},{"trial_n":126,"n_dots":3.25,"target":"left","response":"left","rt":717.40000003576,"correct":true,"confidence":1},{"trial_n":127,"n_dots":3.25,"target":"right","response":"right","rt":297.19999998808,"correct":true,"confidence":1},{"trial_n":128,"n_dots":3.15,"target":"left","response":"left","rt":241.70000004768,"correct":true,"confidence":1},{"trial_n":129,"n_dots":3.15,"target":"right","response":"right","rt":124,"correct":true,"confidence":1},{"trial_n":130,"n_dots":3.05,"target":"left","response":"left","rt":463.60000002384,"correct":true,"confidence":1},{"trial_n":131,"n_dots":3.05,"target":"left","response":"left","rt":469.39999997616,"correct":true,"confidence":1},{"trial_n":132,"n_dots":2.95,"target":"right","response":"left","rt":377.89999997616,"correct":false,"confidence":1},{"trial_n":133,"n_dots":3.05,"target":"left","response":"right","rt":1339.5,"correct":false,"confidence":1},{"trial_n":134,"n_dots":3.15,"target":"left","response":"left","rt":332.5,"correct":true,"confidence":1},{"trial_n":135,"n_dots":3.15,"target":"right","response":"right","rt":314.10000002384,"correct":true,"confidence":2},{"trial_n":136,"n_dots":3.05,"target":"left","response":"left","rt":1160.2000000477,"correct":true,"confidence":1},{"trial_n":137,"n_dots":3.05,"target":"left","response":"left","rt":710.89999997616,"correct":true,"confidence":1},{"trial_n":138,"n_dots":2.95,"target":"left","response":"left","rt":457.5,"correct":true,"confidence":2},{"trial_n":139,"n_dots":2.95,"target":"left","response":"right","rt":1079.7999999523,"correct":false,"confidence":2},{"trial_n":140,"n_dots":3.05,"target":"right","response":"right","rt":988.39999997616,"correct":true,"confidence":3},{"trial_n":141,"n_dots":3.05,"target":"right","response":"right","rt":1324,"correct":true,"confidence":2},{"trial_n":142,"n_dots":2.95,"target":"left","response":"left","rt":950.59999996424,"correct":true,"confidence":2},{"trial_n":143,"n_dots":2.95,"target":"left","response":"left","rt":471,"correct":true,"confidence":2},{"trial_n":144,"n_dots":2.85,"target":"left","response":"right","rt":720.69999998808,"correct":false,"confidence":2},{"trial_n":145,"n_dots":2.95,"target":"right","response":"right","rt":579.80000001192,"correct":true,"confidence":2},{"trial_n":146,"n_dots":2.95,"target":"left","response":"right","rt":772.19999998808,"correct":false,"confidence":2},{"trial_n":147,"n_dots":3.05,"target":"right","response":"right","rt":1488.5,"correct":true,"confidence":2},{"trial_n":148,"n_dots":3.05,"target":"right","response":"left","rt":1381,"correct":false,"confidence":1},{"trial_n":149,"n_dots":3.15,"target":"left","response":"left","rt":557.30000001192,"correct":true,"confidence":2},{"trial_n":150,"n_dots":3.15,"target":"right","response":"right","rt":1215.8000000119,"correct":true,"confidence":2},{"trial_n":151,"n_dots":3.05,"target":"right","response":"left","rt":888.40000003576,"correct":false,"confidence":2},{"trial_n":152,"n_dots":3.15,"target":"left","response":"left","rt":1290,"correct":true,"confidence":1},{"trial_n":153,"n_dots":3.15,"target":"right","response":"right","rt":598.5,"correct":true,"confidence":1},{"trial_n":154,"n_dots":3.05,"target":"right","response":"right","rt":865.39999997616,"correct":true,"confidence":2},{"trial_n":155,"n_dots":3.05,"target":"left","response":"left","rt":600.5,"correct":true,"confidence":2},{"trial_n":156,"n_dots":2.95,"target":"left","response":"left","rt":279.59999996424,"correct":true,"confidence":2},{"trial_n":157,"n_dots":2.95,"target":"right","response":"right","rt":518,"correct":true,"confidence":2},{"trial_n":158,"n_dots":2.85,"target":"right","response":"right","rt":1397.6999999881,"correct":true,"confidence":1},{"trial_n":159,"n_dots":2.85,"target":"left","response":"left","rt":799.39999997616,"correct":true,"confidence":2},{"trial_n":160,"n_dots":2.75,"target":"left","response":"right","rt":892.59999996424,"correct":false,"confidence":1},{"trial_n":161,"n_dots":2.85,"target":"right","response":"left","rt":1016.5,"correct":false,"confidence":1},{"trial_n":162,"n_dots":2.95,"target":"left","response":"right","rt":515.09999996424,"correct":false,"confidence":2},{"trial_n":163,"n_dots":3.05,"target":"right","response":"left","rt":1416.1000000238,"correct":false,"confidence":1},{"trial_n":164,"n_dots":3.15,"target":"right","response":"right","rt":1552.5,"correct":true,"confidence":2},{"trial_n":165,"n_dots":3.15,"target":"left","response":"left","rt":937.5,"correct":true,"confidence":1},{"trial_n":166,"n_dots":3.05,"target":"right","response":"right","rt":916.5,"correct":true,"confidence":1},{"trial_n":167,"n_dots":3.05,"target":"right","response":"left","rt":1020.9000000358,"correct":false,"confidence":1},{"trial_n":168,"n_dots":3.15,"target":"right","response":"right","rt":735.60000002384,"correct":true,"confidence":1},{"trial_n":169,"n_dots":3.15,"target":"right","response":"left","rt":671,"correct":false,"confidence":1},{"trial_n":170,"n_dots":3.25,"target":"right","response":"left","rt":615.30000001192,"correct":false,"confidence":2},{"trial_n":171,"n_dots":3.35,"target":"left","response":"left","rt":1131.8000000119,"correct":true,"confidence":2},{"trial_n":172,"n_dots":3.35,"target":"right","response":"right","rt":682.80000001192,"correct":true,"confidence":2},{"trial_n":173,"n_dots":3.25,"target":"left","response":"left","rt":444.5,"correct":true,"confidence":2},{"trial_n":174,"n_dots":3.25,"target":"left","response":"left","rt":654.60000002384,"correct":true,"confidence":2},{"trial_n":175,"n_dots":3.15,"target":"right","response":"right","rt":438.89999997616,"correct":true,"confidence":2},{"trial_n":176,"n_dots":3.15,"target":"left","response":"left","rt":645.69999998808,"correct":true,"confidence":2},{"trial_n":177,"n_dots":3.05,"target":"left","response":"left","rt":675.5,"correct":true,"confidence":3},{"trial_n":178,"n_dots":3.05,"target":"left","response":"left","rt":871.69999998808,"correct":true,"confidence":3},{"trial_n":179,"n_dots":2.95,"target":"left","response":"left","rt":791.69999998808,"correct":true,"confidence":2},{"trial_n":180,"n_dots":2.95,"target":"right","response":"right","rt":1506,"correct":true,"confidence":2},{"trial_n":181,"n_dots":2.85,"target":"left","response":"left","rt":1312.3999999762,"correct":true,"confidence":1},{"trial_n":182,"n_dots":2.85,"target":"right","response":"right","rt":1849.6000000238,"correct":true,"confidence":3},{"trial_n":183,"n_dots":2.75,"target":"left","response":"left","rt":814.80000001192,"correct":true,"confidence":2},{"trial_n":184,"n_dots":2.75,"target":"left","response":"left","rt":1669.1999999881,"correct":true,"confidence":1},{"trial_n":185,"n_dots":2.65,"target":"right","response":"right","rt":3238.8000000119,"correct":true,"confidence":1},{"trial_n":186,"n_dots":2.65,"target":"left","response":"right","rt":2516.5,"correct":false,"confidence":1},{"trial_n":187,"n_dots":2.75,"target":"right","response":"right","rt":898.5,"correct":true,"confidence":2},{"trial_n":188,"n_dots":2.75,"target":"left","response":"left","rt":689.90000003576,"correct":true,"confidence":2},{"trial_n":189,"n_dots":2.65,"target":"right","response":"left","rt":646.40000003576,"correct":false,"confidence":2},{"trial_n":190,"n_dots":2.75,"target":"left","response":"left","rt":511.69999998808,"correct":true,"confidence":2},{"trial_n":191,"n_dots":2.75,"target":"right","response":"right","rt":712.40000003576,"correct":true,"confidence":1},{"trial_n":192,"n_dots":2.65,"target":"left","response":"right","rt":1324.8000000119,"correct":false,"confidence":1},{"trial_n":193,"n_dots":2.75,"target":"right","response":"left","rt":875.30000001192,"correct":false,"confidence":1},{"trial_n":194,"n_dots":2.85,"target":"left","response":"left","rt":717.39999997616,"correct":true,"confidence":1}]