[{"trial_n":1,"n_dots":4.25,"target":"right","response":"right","rt":1352.2000000179,"correct":true,"confidence":-1},{"trial_n":2,"n_dots":4.25,"target":"left","response":"left","rt":694.5,"correct":true,"confidence":-1},{"trial_n":3,"n_dots":3.85,"target":"right","response":"right","rt":1118.5,"correct":true,"confidence":-1},{"trial_n":4,"n_dots":3.85,"target":"left","response":"right","rt":590.90000000596,"correct":false,"confidence":-1},{"trial_n":5,"n_dots":4.25,"target":"right","response":"right","rt":405.09999999404,"correct":true,"confidence":-1},{"trial_n":6,"n_dots":4.25,"target":"left","response":"left","rt":510.5,"correct":true,"confidence":-1},{"trial_n":7,"n_dots":3.85,"target":"left","response":"left","rt":419.09999999404,"correct":true,"confidence":-1},{"trial_n":8,"n_dots":3.85,"target":"right","response":"right","rt":413.40000000596,"correct":true,"confidence":-1},{"trial_n":9,"n_dots":3.65,"target":"right","response":"right","rt":231.59999999404,"correct":true,"confidence":-1},{"trial_n":10,"n_dots":3.65,"target":"left","response":"right","rt":239.19999998808,"correct":false,"confidence":-1},{"trial_n":11,"n_dots":3.85,"target":"left","response":"right","rt":166.10000002384,"correct":false,"confidence":-1},{"trial_n":12,"n_dots":4.05,"target":"right","response":"right","rt":230.5,"correct":true,"confidence":-1},{"trial_n":13,"n_dots":4.05,"target":"left","response":"right","rt":482.5,"correct":false,"confidence":-1},{"trial_n":14,"n_dots":4.15,"target":"right","response":"right","rt":83.700000017881,"correct":true,"confidence":-1},{"trial_n":15,"n_dots":4.15,"target":"left","response":"right","rt":444.29999998212,"correct":false,"confidence":-1},{"trial_n":16,"n_dots":4.25,"target":"right","response":"right","rt":192,"correct":true,"confidence":-1},{"trial_n":17,"n_dots":4.25,"target":"right","response":"right","rt":414,"correct":true,"confidence":-1},{"trial_n":18,"n_dots":4.15,"target":"left","response":"right","rt":218.30000001192,"correct":false,"confidence":-1},{"trial_n":19,"n_dots":4.25,"target":"right","response":"right","rt":339.60000002384,"correct":true,"confidence":-1},{"trial_n":20,"n_dots":4.25,"target":"left","response":"left","rt":290,"correct":true,"confidence":-1},{"trial_n":21,"n_dots":4.15,"target":"left","response":"left","rt":304.40000000596,"correct":true,"confidence":-1},{"trial_n":22,"n_dots":4.15,"target":"right","response":"right","rt":280.20000001788,"correct":true,"confidence":-1},{"trial_n":23,"n_dots":4.05,"target":"left","response":"left","rt":295.90000000596,"correct":true,"confidence":-1},{"trial_n":24,"n_dots":4.05,"target":"right","response":"right","rt":571.19999998808,"correct":true,"confidence":-1},{"trial_n":25,"n_dots":3.95,"target":"left","response":"right","rt":437.09999999404,"correct":false,"confidence":-1},{"trial_n":26,"n_dots":4.05,"target":"left","response":"left","rt":198.90000000596,"correct":true,"confidence":-1},{"trial_n":27,"n_dots":4.05,"target":"right","response":"right","rt":467.19999998808,"correct":true,"confidence":5},{"trial_n":28,"n_dots":3.95,"target":"left","response":"left","rt":111.19999998808,"correct":true,"confidence":5},{"trial_n":29,"n_dots":3.95,"target":"left","response":"right","rt":564.70000001788,"correct":false,"confidence":3},{"trial_n":30,"n_dots":4.05,"target":"left","response":"left","rt":240.89999997616,"correct":true,"confidence":5},{"trial_n":31,"n_dots":4.05,"target":"right","response":"right","rt":662,"correct":true,"confidence":5},{"trial_n":32,"n_dots":3.95,"target":"right","response":"right","rt":389.09999999404,"correct":true,"confidence":5},{"trial_n":33,"n_dots":3.95,"target":"right","response":"right","rt":654.10000002384,"correct":true,"confidence":3},{"trial_n":34,"n_dots":3.85,"target":"right","response":"right","rt":624.80000001192,"correct":true,"confidence":3},{"trial_n":35,"n_dots":3.85,"target":"right","response":"right","rt":1558,"correct":true,"confidence":2},{"trial_n":36,"n_dots":3.75,"target":"left","response":"left","rt":1137.599999994,"correct":true,"confidence":2},{"trial_n":37,"n_dots":3.75,"target":"left","response":"left","rt":613.40000000596,"correct":true,"confidence":4},{"trial_n":38,"n_dots":3.65,"target":"right","response":"right","rt":780.59999999404,"correct":true,"confidence":2},{"trial_n":39,"n_dots":3.65,"target":"right","response":"left","rt":427.80000001192,"correct":false,"confidence":3},{"trial_n":40,"n_dots":3.75,"target":"right","response":"left","rt":903.80000001192,"correct":false,"confidence":3},{"trial_n":41,"n_dots":3.85,"target":"left","response":"right","rt":477.90000000596,"correct":false,"confidence":3},{"trial_n":42,"n_dots":3.95,"target":"right","response":"right","rt":624.5,"correct":true,"confidence":3},{"trial_n":43,"n_dots":3.95,"target":"left","response":"right","rt":1214.5,"correct":false,"confidence":3},{"trial_n":44,"n_dots":4.05,"target":"left","response":"left","rt":481,"correct":true,"confidence":5},{"trial_n":45,"n_dots":4.05,"target":"left","response":"left","rt":475.59999999404,"correct":true,"confidence":4},{"trial_n":46,"n_dots":3.95,"target":"left","response":"left","rt":329.59999999404,"correct":true,"confidence":4},{"trial_n":47,"n_dots":3.95,"target":"left","response":"left","rt":642.5,"correct":true,"confidence":4},{"trial_n":48,"n_dots":3.85,"target":"left","response":"left","rt":656.59999999404,"correct":true,"confidence":4},{"trial_n":49,"n_dots":3.85,"target":"left","response":"left","rt":580,"correct":true,"confidence":4},{"trial_n":50,"n_dots":3.75,"target":"left","response":"left","rt":684.90000000596,"correct":true,"confidence":4},{"trial_n":51,"n_dots":3.75,"target":"right","response":"right","rt":389.60000002384,"correct":true,"confidence":5},{"trial_n":52,"n_dots":3.65,"target":"left","response":"right","rt":1195.7000000179,"correct":false,"confidence":2},{"trial_n":53,"n_dots":3.75,"target":"left","response":"right","rt":1329.599999994,"correct":false,"confidence":2},{"trial_n":54,"n_dots":3.85,"target":"right","response":"right","rt":623.30000001192,"correct":true,"confidence":4},{"trial_n":55,"n_dots":3.85,"target":"left","response":"left","rt":704.20000001788,"correct":true,"confidence":3},{"trial_n":56,"n_dots":3.75,"target":"left","response":"left","rt":558.5,"correct":true,"confidence":2},{"trial_n":57,"n_dots":3.75,"target":"right","response":"left","rt":1315.400000006,"correct":false,"confidence":2},{"trial_n":58,"n_dots":3.85,"target":"right","response":"right","rt":717.59999999404,"correct":true,"confidence":2},{"trial_n":59,"n_dots":3.85,"target":"right","response":"right","rt":462,"correct":true,"confidence":5},{"trial_n":60,"n_dots":3.75,"target":"right","response":"right","rt":458.59999999404,"correct":true,"confidence":6},{"trial_n":61,"n_dots":3.75,"target":"right","response":"right","rt":287,"correct":true,"confidence":5},{"trial_n":62,"n_dots":3.65,"target":"left","response":"right","rt":666.09999999404,"correct":false,"confidence":3},{"trial_n":63,"n_dots":3.75,"target":"left","response":"right","rt":413,"correct":false,"confidence":2},{"trial_n":64,"n_dots":3.85,"target":"left","response":"left","rt":664.19999998808,"correct":true,"confidence":1},{"trial_n":65,"n_dots":3.85,"target":"left","response":"left","rt":854.59999999404,"correct":true,"confidence":1},{"trial_n":66,"n_dots":3.75,"target":"left","response":"left","rt":638.5,"correct":true,"confidence":1},{"trial_n":67,"n_dots":3.75,"target":"right","response":"right","rt":433.20000001788,"correct":true,"confidence":3},{"trial_n":68,"n_dots":3.65,"target":"left","response":"left","rt":1348.1000000238,"correct":true,"confidence":2},{"trial_n":69,"n_dots":3.65,"target":"left","response":"left","rt":714.19999998808,"correct":true,"confidence":2},{"trial_n":70,"n_dots":3.55,"target":"right","response":"right","rt":502.69999998808,"correct":true,"confidence":2},{"trial_n":71,"n_dots":3.55,"target":"left","response":"left","rt":400.69999998808,"correct":true,"confidence":2},{"trial_n":72,"n_dots":3.45,"target":"left","response":"left","rt":536,"correct":true,"confidence":1},{"trial_n":73,"n_dots":3.45,"target":"right","response":"left","rt":1538.900000006,"correct":false,"confidence":1},{"trial_n":74,"n_dots":3.55,"target":"left","response":"left","rt":685.40000000596,"correct":true,"confidence":2},{"trial_n":75,"n_dots":3.55,"target":"right","response":"left","rt":834.69999998808,"correct":false,"confidence":1},{"trial_n":76,"n_dots":3.65,"target":"right","response":"right","rt":551.90000000596,"correct":true,"confidence":2},{"trial_n":77,"n_dots":3.65,"target":"left","response":"left","rt":647.10000002384,"correct":true,"confidence":2},{"trial_n":78,"n_dots":3.55,"target":"right","response":"right","rt":641.5,"correct":true,"confidence":2},{"trial_n":79,"n_dots":3.55,"target":"left","response":"right","rt":658.79999998212,"correct":false,"confidence":2},{"trial_n":80,"n_dots":3.65,"target":"right","response":"right","rt":297.40000000596,"correct":true,"confidence":2},{"trial_n":81,"n_dots":3.65,"target":"right","response":"right","rt":628.5,"correct":true,"confidence":5},{"trial_n":82,"n_dots":3.55,"target":"right","response":"right","rt":517.09999999404,"correct":true,"confidence":1},{"trial_n":83,"n_dots":3.55,"target":"right","response":"right","rt":231.59999999404,"correct":true,"confidence":5},{"trial_n":84,"n_dots":3.45,"target":"left","response":"left","rt":1154.599999994,"correct":true,"confidence":1},{"trial_n":85,"n_dots":3.45,"target":"left","response":"right","rt":693.70000001788,"correct":false,"confidence":4},{"trial_n":86,"n_dots":3.55,"target":"left","response":"right","rt":678.80000001192,"correct":false,"confidence":4},{"trial_n":87,"n_dots":3.65,"target":"right","response":"right","rt":425.40000000596,"correct":true,"confidence":5},{"trial_n":88,"n_dots":3.65,"target":"left","response":"right","rt":866.30000001192,"correct":false,"confidence":3},{"trial_n":89,"n_dots":3.75,"target":"right","response":"right","rt":302.60000002384,"correct":true,"confidence":3},{"trial_n":90,"n_dots":3.75,"target":"left","response":"right","rt":710.5,"correct":false,"confidence":2},{"trial_n":91,"n_dots":3.85,"target":"left","response":"right","rt":444.69999998808,"correct":false,"confidence":1},{"trial_n":92,"n_dots":3.95,"target":"left","response":"right","rt":848.40000000596,"correct":false,"confidence":1},{"trial_n":93,"n_dots":4.05,"target":"right","response":"right","rt":318.40000000596,"correct":true,"confidence":4},{"trial_n":94,"n_dots":4.05,"target":"left","response":"right","rt":562.80000001192,"correct":false,"confidence":2},{"trial_n":95,"n_dots":4.15,"target":"left","response":"left","rt":223.30000001192,"correct":true,"confidence":2},{"trial_n":96,"n_dots":4.15,"target":"left","response":"left","rt":532.60000002384,"correct":true,"confidence":1},{"trial_n":97,"n_dots":4.05,"target":"left","response":"left","rt":499.19999998808,"correct":true,"confidence":1},{"trial_n":98,"n_dots":4.05,"target":"right","response":"right","rt":313.80000001192,"correct":true,"confidence":3},{"trial_n":99,"n_dots":3.95,"target":"right","response":"right","rt":650.80000001192,"correct":true,"confidence":2},{"trial_n":100,"n_dots":3.95,"target":"right","response":"right","rt":241.59999999404,"correct":true,"confidence":2},{"trial_n":101,"n_dots":3.85,"target":"left","response":"right","rt":168.19999998808,"correct":false,"confidence":1},{"trial_n":102,"n_dots":3.95,"target":"left","response":"right","rt":947,"correct":false,"confidence":1},{"trial_n":103,"n_dots":4.05,"target":"left","response":"right","rt":778.89999997616,"correct":false,"confidence":1},{"trial_n":104,"n_dots":4.15,"target":"left","response":"left","rt":709.5,"correct":true,"confidence":1},{"trial_n":105,"n_dots":4.15,"target":"left","response":"left","rt":650.80000001192,"correct":true,"confidence":1},{"trial_n":106,"n_dots":4.05,"target":"left","response":"right","rt":814.19999998808,"correct":false,"confidence":1},{"trial_n":107,"n_dots":4.15,"target":"left","response":"right","rt":553.5,"correct":false,"confidence":1},{"trial_n":108,"n_dots":4.25,"target":"left","response":"right","rt":485.20000001788,"correct":false,"confidence":1},{"trial_n":109,"n_dots":4.35,"target":"right","response":"right","rt":278.40000000596,"correct":true,"confidence":4},{"trial_n":110,"n_dots":4.35,"target":"left","response":"left","rt":399,"correct":true,"confidence":4},{"trial_n":111,"n_dots":4.25,"target":"right","response":"right","rt":393.20000001788,"correct":true,"confidence":4},{"trial_n":112,"n_dots":4.25,"target":"left","response":"left","rt":597.80000001192,"correct":true,"confidence":4},{"trial_n":113,"n_dots":4.15,"target":"right","response":"right","rt":850.10000002384,"correct":true,"confidence":1},{"trial_n":114,"n_dots":4.15,"target":"right","response":"right","rt":192.40000000596,"correct":true,"confidence":1},{"trial_n":115,"n_dots":4.05,"target":"right","response":"right","rt":184.5,"correct":true,"confidence":1},{"trial_n":116,"n_dots":4.05,"target":"left","response":"left","rt":781.40000000596,"correct":true,"confidence":3},{"trial_n":117,"n_dots":3.95,"target":"right","response":"right","rt":442.90000000596,"correct":true,"confidence":1},{"trial_n":118,"n_dots":3.95,"target":"right","response":"right","rt":162.59999999404,"correct":true,"confidence":3},{"trial_n":119,"n_dots":3.85,"target":"right","response":"right","rt":299,"correct":true,"confidence":4},{"trial_n":120,"n_dots":3.85,"target":"left","response":"left","rt":282.90000000596,"correct":true,"confidence":4},{"trial_n":121,"n_dots":3.75,"target":"left","response":"left","rt":394.19999998808,"correct":true,"confidence":3},{"trial_n":122,"n_dots":3.75,"target":"left","response":"left","rt":1302,"correct":true,"confidence":3},{"trial_n":123,"n_dots":3.65,"target":"right","response":"right","rt":583.69999998808,"correct":true,"confidence":5},{"trial_n":124,"n_dots":3.65,"target":"right","response":"right","rt":956.40000000596,"correct":true,"confidence":1},{"trial_n":125,"n_dots":3.55,"target":"left","response":"left","rt":662,"correct":true,"confidence":1},{"trial_n":126,"n_dots":3.55,"target":"right","response":"right","rt":366.79999998212,"correct":true,"confidence":4},{"trial_n":127,"n_dots":3.45,"target":"right","response":"right","rt":190.69999998808,"correct":true,"confidence":4},{"trial_n":128,"n_dots":3.45,"target":"right","response":"right","rt":551.40000000596,"correct":true,"confidence":3},{"trial_n":129,"n_dots":3.35,"target":"left","response":"right","rt":894.90000000596,"correct":false,"confidence":1},{"trial_n":130,"n_dots":3.45,"target":"left","response":"left","rt":669.5,"correct":true,"confidence":1},{"trial_n":131,"n_dots":3.45,"target":"left","response":"left","rt":397.89999997616,"correct":true,"confidence":1},{"trial_n":132,"n_dots":3.35,"target":"right","response":"right","rt":612.59999999404,"correct":true,"confidence":3},{"trial_n":133,"n_dots":3.35,"target":"right","response":"left","rt":4049.5,"correct":false,"confidence":1},{"trial_n":134,"n_dots":3.45,"target":"left","response":"right","rt":1003.5,"correct":false,"confidence":1},{"trial_n":135,"n_dots":3.55,"target":"right","response":"right","rt":386.69999998808,"correct":true,"confidence":2},{"trial_n":136,"n_dots":3.55,"target":"right","response":"right","rt":393,"correct":true,"confidence":3},{"trial_n":137,"n_dots":3.45,"target":"right","response":"right","rt":185.40000000596,"correct":true,"confidence":4},{"trial_n":138,"n_dots":3.45,"target":"left","response":"right","rt":711,"correct":false,"confidence":1},{"trial_n":139,"n_dots":3.55,"target":"right","response":"right","rt":699.20000001788,"correct":true,"confidence":1},{"trial_n":140,"n_dots":3.55,"target":"right","response":"right","rt":421.80000001192,"correct":true,"confidence":2},{"trial_n":141,"n_dots":3.45,"target":"left","response":"right","rt":913,"correct":false,"confidence":1},{"trial_n":142,"n_dots":3.55,"target":"right","response":"right","rt":572.60000002384,"correct":true,"confidence":1},{"trial_n":143,"n_dots":3.55,"target":"left","response":"right","rt":765,"correct":false,"confidence":1},{"trial_n":144,"n_dots":3.65,"target":"left","response":"left","rt":907.40000000596,"correct":true,"confidence":1},{"trial_n":145,"n_dots":3.65,"target":"right","response":"right","rt":619.80000001192,"correct":true,"confidence":1},{"trial_n":146,"n_dots":3.55,"target":"left","response":"left","rt":612.09999999404,"correct":true,"confidence":1},{"trial_n":147,"n_dots":3.55,"target":"right","response":"right","rt":433.20000001788,"correct":true,"confidence":1},{"trial_n":148,"n_dots":3.45,"target":"left","response":"left","rt":613.40000000596,"correct":true,"confidence":1},{"trial_n":149,"n_dots":3.45,"target":"right","response":"right","rt":282.89999997616,"correct":true,"confidence":1},{"trial_n":150,"n_dots":3.35,"target":"left","response":"right","rt":669.10000002384,"correct":false,"confidence":1},{"trial_n":151,"n_dots":3.45,"target":"left","response":"left","rt":555.09999999404,"correct":true,"confidence":1},{"trial_n":152,"n_dots":3.45,"target":"right","response":"left","rt":672.5,"correct":false,"confidence":1},{"trial_n":153,"n_dots":3.55,"target":"right","response":"right","rt":351.10000002384,"correct":true,"confidence":1},{"trial_n":154,"n_dots":3.55,"target":"right","response":"right","rt":690.70000001788,"correct":true,"confidence":1},{"trial_n":155,"n_dots":3.45,"target":"right","response":"right","rt":245.40000000596,"correct":true,"confidence":2},{"trial_n":156,"n_dots":3.45,"target":"right","response":"right","rt":443.5,"correct":true,"confidence":2},{"trial_n":157,"n_dots":3.35,"target":"right","response":"right","rt":494.80000001192,"correct":true,"confidence":2},{"trial_n":158,"n_dots":3.35,"target":"left","response":"left","rt":886.30000001192,"correct":true,"confidence":1},{"trial_n":159,"n_dots":3.25,"target":"left","response":"right","rt":534.5,"correct":false,"confidence":1},{"trial_n":160,"n_dots":3.35,"target":"right","response":"right","rt":343.40000000596,"correct":true,"confidence":1},{"trial_n":161,"n_dots":3.35,"target":"left","response":"right","rt":702.80000001192,"correct":false,"confidence":1},{"trial_n":162,"n_dots":3.45,"target":"right","response":"right","rt":375.80000001192,"correct":true,"confidence":1},{"trial_n":163,"n_dots":3.45,"target":"left","response":"right","rt":798,"correct":false,"confidence":1},{"trial_n":164,"n_dots":3.55,"target":"left","response":"right","rt":694.30000001192,"correct":false,"confidence":1},{"trial_n":165,"n_dots":3.65,"target":"right","response":"right","rt":492.19999998808,"correct":true,"confidence":1},{"trial_n":166,"n_dots":3.65,"target":"right","response":"right","rt":695.90000000596,"correct":true,"confidence":1},{"trial_n":167,"n_dots":3.55,"target":"right","response":"right","rt":507.60000002384,"correct":true,"confidence":1},{"trial_n":168,"n_dots":3.55,"target":"right","response":"right","rt":514.09999999404,"correct":true,"confidence":1},{"trial_n":169,"n_dots":3.45,"target":"left","response":"left","rt":773.09999999404,"correct":true,"confidence":1},{"trial_n":170,"n_dots":3.45,"target":"right","response":"right","rt":494.30000001192,"correct":true,"confidence":1},{"trial_n":171,"n_dots":3.35,"target":"left","response":"left","rt":732.59999999404,"correct":true,"confidence":1},{"trial_n":172,"n_dots":3.35,"target":"right","response":"right","rt":1473.2999999821,"correct":true,"confidence":1},{"trial_n":173,"n_dots":3.25,"target":"right","response":"right","rt":648.69999998808,"correct":true,"confidence":1},{"trial_n":174,"n_dots":3.25,"target":"left","response":"left","rt":465.5,"correct":true,"confidence":1},{"trial_n":175,"n_dots":3.15,"target":"right","response":"right","rt":370.5,"correct":true,"confidence":1},{"trial_n":176,"n_dots":3.15,"target":"left","response":"right","rt":321,"correct":false,"confidence":1},{"trial_n":177,"n_dots":3.25,"target":"left","response":"right","rt":268,"correct":false,"confidence":1},{"trial_n":178,"n_dots":3.35,"target":"right","response":"right","rt":452.40000000596,"correct":true,"confidence":1},{"trial_n":179,"n_dots":3.35,"target":"left","response":"left","rt":915.5,"correct":true,"confidence":1},{"trial_n":180,"n_dots":3.25,"target":"right","response":"left","rt":264.59999999404,"correct":false,"confidence":1},{"trial_n":181,"n_dots":3.35,"target":"right","response":"right","rt":1172.5,"correct":true,"confidence":1},{"trial_n":182,"n_dots":3.35,"target":"right","response":"right","rt":586.90000000596,"correct":true,"confidence":1},{"trial_n":183,"n_dots":3.25,"target":"left","response":"left","rt":13.200000017881,"correct":true,"confidence":1},{"trial_n":184,"n_dots":3.25,"target":"right","response":"right","rt":216.90000000596,"correct":true,"confidence":1},{"trial_n":185,"n_dots":3.15,"target":"right","response":"right","rt":493.20000001788,"correct":true,"confidence":1},{"trial_n":186,"n_dots":3.15,"target":"right","response":"left","rt":672.39999997616,"correct":false,"confidence":1},{"trial_n":187,"n_dots":3.25,"target":"left","response":"right","rt":495.40000000596,"correct":false,"confidence":1},{"trial_n":188,"n_dots":3.35,"target":"right","response":"right","rt":288.09999999404,"correct":true,"confidence":1},{"trial_n":189,"n_dots":3.35,"target":"left","response":"right","rt":447.5,"correct":false,"confidence":1},{"trial_n":190,"n_dots":3.45,"target":"right","response":"right","rt":464.5,"correct":true,"confidence":1},{"trial_n":191,"n_dots":3.45,"target":"right","response":"right","rt":338.5,"correct":true,"confidence":1},{"trial_n":192,"n_dots":3.35,"target":"right","response":"right","rt":470.79999998212,"correct":true,"confidence":1},{"trial_n":193,"n_dots":3.35,"target":"right","response":"right","rt":443.90000000596,"correct":true,"confidence":1},{"trial_n":194,"n_dots":3.25,"target":"left","response":"left","rt":728.90000000596,"correct":true,"confidence":1}]