[{"trial_n":1,"n_dots":4.25,"target":"left","response":"left","rt":1359.7000000477,"correct":true,"confidence":-1},{"trial_n":2,"n_dots":4.25,"target":"right","response":"right","rt":894.90000009537,"correct":true,"confidence":-1},{"trial_n":3,"n_dots":3.85,"target":"right","response":"left","rt":501.5,"correct":false,"confidence":-1},{"trial_n":4,"n_dots":4.25,"target":"left","response":"left","rt":521.90000009537,"correct":true,"confidence":-1},{"trial_n":5,"n_dots":4.25,"target":"right","response":"left","rt":572.39999985695,"correct":false,"confidence":-1},{"trial_n":6,"n_dots":4.65,"target":"right","response":"left","rt":573,"correct":false,"confidence":-1},{"trial_n":7,"n_dots":5.05,"target":"right","response":"left","rt":849.70000004768,"correct":false,"confidence":-1},{"trial_n":8,"n_dots":5.25,"target":"right","response":"left","rt":656.59999990463,"correct":false,"confidence":-1},{"trial_n":9,"n_dots":5.45,"target":"right","response":"right","rt":2610.2000000477,"correct":true,"confidence":-1},{"trial_n":10,"n_dots":5.45,"target":"right","response":"right","rt":405.79999995232,"correct":true,"confidence":-1},{"trial_n":11,"n_dots":5.25,"target":"right","response":"right","rt":301.29999995232,"correct":true,"confidence":-1},{"trial_n":12,"n_dots":5.25,"target":"left","response":"left","rt":367.39999985695,"correct":true,"confidence":-1},{"trial_n":13,"n_dots":5.15,"target":"right","response":"right","rt":298.40000009537,"correct":true,"confidence":-1},{"trial_n":14,"n_dots":5.15,"target":"left","response":"left","rt":118.89999985695,"correct":true,"confidence":-1},{"trial_n":15,"n_dots":5.05,"target":"left","response":"left","rt":593.70000004768,"correct":true,"confidence":-1},{"trial_n":16,"n_dots":5.05,"target":"left","response":"left","rt":253.5,"correct":true,"confidence":-1},{"trial_n":17,"n_dots":4.95,"target":"left","response":"left","rt":676.90000009537,"correct":true,"confidence":-1},{"trial_n":18,"n_dots":4.95,"target":"right","response":"right","rt":166,"correct":true,"confidence":-1},{"trial_n":19,"n_dots":4.85,"target":"right","response":"right","rt":601.79999995232,"correct":true,"confidence":-1},{"trial_n":20,"n_dots":4.85,"target":"left","response":"left","rt":491.40000009537,"correct":true,"confidence":-1},{"trial_n":21,"n_dots":4.75,"target":"right","response":"right","rt":585.39999985695,"correct":true,"confidence":-1},{"trial_n":22,"n_dots":4.75,"target":"left","response":"left","rt":748.79999995232,"correct":true,"confidence":-1},{"trial_n":23,"n_dots":4.65,"target":"left","response":"right","rt":813.60000014305,"correct":false,"confidence":-1},{"trial_n":24,"n_dots":4.75,"target":"right","response":"right","rt":456.20000004768,"correct":true,"confidence":-1},{"trial_n":25,"n_dots":4.75,"target":"right","response":"right","rt":663.79999995232,"correct":true,"confidence":-1},{"trial_n":26,"n_dots":4.65,"target":"left","response":"left","rt":596,"correct":true,"confidence":-1},{"trial_n":27,"n_dots":4.65,"target":"left","response":"left","rt":497.29999995232,"correct":true,"confidence":3},{"trial_n":28,"n_dots":4.55,"target":"left","response":"left","rt":1109,"correct":true,"confidence":4},{"trial_n":29,"n_dots":4.55,"target":"right","response":"right","rt":430.79999995232,"correct":true,"confidence":5},{"trial_n":30,"n_dots":4.45,"target":"right","response":"right","rt":556.5,"correct":true,"confidence":5},{"trial_n":31,"n_dots":4.45,"target":"right","response":"right","rt":626.09999990463,"correct":true,"confidence":5},{"trial_n":32,"n_dots":4.35,"target":"left","response":"left","rt":623.89999985695,"correct":true,"confidence":4},{"trial_n":33,"n_dots":4.35,"target":"left","response":"left","rt":708.90000009537,"correct":true,"confidence":3},{"trial_n":34,"n_dots":4.25,"target":"left","response":"left","rt":592.70000004768,"correct":true,"confidence":3},{"trial_n":35,"n_dots":4.25,"target":"right","response":"right","rt":667.70000004768,"correct":true,"confidence":4},{"trial_n":36,"n_dots":4.15,"target":"left","response":"left","rt":652.5,"correct":true,"confidence":5},{"trial_n":37,"n_dots":4.15,"target":"left","response":"left","rt":801.5,"correct":true,"confidence":5},{"trial_n":38,"n_dots":4.05,"target":"right","response":"right","rt":710.29999995232,"correct":true,"confidence":6},{"trial_n":39,"n_dots":4.05,"target":"left","response":"left","rt":1076.0999999046,"correct":true,"confidence":5},{"trial_n":40,"n_dots":3.95,"target":"left","response":"right","rt":837.79999995232,"correct":false,"confidence":5},{"trial_n":41,"n_dots":4.05,"target":"right","response":"right","rt":737.39999985695,"correct":true,"confidence":3},{"trial_n":42,"n_dots":4.05,"target":"left","response":"right","rt":1123.9000000954,"correct":false,"confidence":4},{"trial_n":43,"n_dots":4.15,"target":"right","response":"right","rt":763.29999995232,"correct":true,"confidence":4},{"trial_n":44,"n_dots":4.15,"target":"right","response":"right","rt":530.20000004768,"correct":true,"confidence":4},{"trial_n":45,"n_dots":4.05,"target":"right","response":"right","rt":461.70000004768,"correct":true,"confidence":4},{"trial_n":46,"n_dots":4.05,"target":"left","response":"left","rt":530.60000014305,"correct":true,"confidence":3},{"trial_n":47,"n_dots":3.95,"target":"left","response":"right","rt":1155.2999999523,"correct":false,"confidence":3},{"trial_n":48,"n_dots":4.05,"target":"left","response":"left","rt":620.60000014305,"correct":true,"confidence":5},{"trial_n":49,"n_dots":4.05,"target":"right","response":"right","rt":778.89999985695,"correct":true,"confidence":4},{"trial_n":50,"n_dots":3.95,"target":"right","response":"right","rt":1005.4000000954,"correct":true,"confidence":3},{"trial_n":51,"n_dots":3.95,"target":"right","response":"right","rt":385.70000004768,"correct":true,"confidence":6},{"trial_n":52,"n_dots":3.85,"target":"left","response":"left","rt":689.40000009537,"correct":true,"confidence":4},{"trial_n":53,"n_dots":3.85,"target":"right","response":"right","rt":751.29999995232,"correct":true,"confidence":4},{"trial_n":54,"n_dots":3.75,"target":"left","response":"left","rt":556.69999980927,"correct":true,"confidence":4},{"trial_n":55,"n_dots":3.75,"target":"left","response":"left","rt":553.79999995232,"correct":true,"confidence":6},{"trial_n":56,"n_dots":3.65,"target":"right","response":"right","rt":645.60000014305,"correct":true,"confidence":3},{"trial_n":57,"n_dots":3.65,"target":"left","response":"right","rt":1024.8999998569,"correct":false,"confidence":4},{"trial_n":58,"n_dots":3.75,"target":"right","response":"right","rt":526.20000004768,"correct":true,"confidence":5},{"trial_n":59,"n_dots":3.75,"target":"right","response":"right","rt":418.20000004768,"correct":true,"confidence":6},{"trial_n":60,"n_dots":3.65,"target":"right","response":"right","rt":519.70000004768,"correct":true,"confidence":6},{"trial_n":61,"n_dots":3.65,"target":"left","response":"right","rt":550.29999995232,"correct":false,"confidence":6},{"trial_n":62,"n_dots":3.75,"target":"right","response":"right","rt":630.40000009537,"correct":true,"confidence":6},{"trial_n":63,"n_dots":3.75,"target":"left","response":"left","rt":543.79999995232,"correct":true,"confidence":5},{"trial_n":64,"n_dots":3.65,"target":"left","response":"left","rt":631.79999995232,"correct":true,"confidence":6},{"trial_n":65,"n_dots":3.65,"target":"right","response":"right","rt":734.89999985695,"correct":true,"confidence":4},{"trial_n":66,"n_dots":3.55,"target":"left","response":"left","rt":694.70000004768,"correct":true,"confidence":4},{"trial_n":67,"n_dots":3.55,"target":"left","response":"left","rt":707.79999995232,"correct":true,"confidence":4},{"trial_n":68,"n_dots":3.45,"target":"left","response":"left","rt":711.10000014305,"correct":true,"confidence":4},{"trial_n":69,"n_dots":3.45,"target":"left","response":"left","rt":1073.2000000477,"correct":true,"confidence":3},{"trial_n":70,"n_dots":3.35,"target":"right","response":"right","rt":654.60000014305,"correct":true,"confidence":3},{"trial_n":71,"n_dots":3.35,"target":"left","response":"right","rt":931.39999985695,"correct":false,"confidence":3},{"trial_n":72,"n_dots":3.45,"target":"left","response":"left","rt":690.40000009537,"correct":true,"confidence":4},{"trial_n":73,"n_dots":3.45,"target":"right","response":"right","rt":445.70000004768,"correct":true,"confidence":5},{"trial_n":74,"n_dots":3.35,"target":"left","response":"right","rt":986.29999995232,"correct":false,"confidence":2},{"trial_n":75,"n_dots":3.45,"target":"left","response":"left","rt":1523.2999999523,"correct":true,"confidence":4},{"trial_n":76,"n_dots":3.45,"target":"right","response":"right","rt":617,"correct":true,"confidence":3},{"trial_n":77,"n_dots":3.35,"target":"left","response":"left","rt":677.90000009537,"correct":true,"confidence":4},{"trial_n":78,"n_dots":3.35,"target":"right","response":"right","rt":961,"correct":true,"confidence":4},{"trial_n":79,"n_dots":3.25,"target":"right","response":"right","rt":773.19999980927,"correct":true,"confidence":4},{"trial_n":80,"n_dots":3.25,"target":"left","response":"left","rt":933.79999995232,"correct":true,"confidence":4},{"trial_n":81,"n_dots":3.15,"target":"left","response":"left","rt":756.79999995232,"correct":true,"confidence":4},{"trial_n":82,"n_dots":3.15,"target":"right","response":"right","rt":546.10000014305,"correct":true,"confidence":4},{"trial_n":83,"n_dots":3.05,"target":"right","response":"right","rt":542.59999990463,"correct":true,"confidence":5},{"trial_n":84,"n_dots":3.05,"target":"left","response":"left","rt":943.5,"correct":true,"confidence":1},{"trial_n":85,"n_dots":2.95,"target":"left","response":"left","rt":556.89999985695,"correct":true,"confidence":4},{"trial_n":86,"n_dots":2.95,"target":"left","response":"left","rt":706.90000009537,"correct":true,"confidence":4},{"trial_n":87,"n_dots":2.85,"target":"right","response":"right","rt":916.20000004768,"correct":true,"confidence":2},{"trial_n":88,"n_dots":2.85,"target":"right","response":"left","rt":731.59999990463,"correct":false,"confidence":3},{"trial_n":89,"n_dots":2.95,"target":"right","response":"right","rt":873.40000009537,"correct":true,"confidence":3},{"trial_n":90,"n_dots":2.95,"target":"left","response":"left","rt":778.5,"correct":true,"confidence":4},{"trial_n":91,"n_dots":2.85,"target":"right","response":"right","rt":642,"correct":true,"confidence":4},{"trial_n":92,"n_dots":2.85,"target":"right","response":"right","rt":713.90000009537,"correct":true,"confidence":4},{"trial_n":93,"n_dots":2.75,"target":"right","response":"left","rt":692.79999995232,"correct":false,"confidence":4},{"trial_n":94,"n_dots":2.85,"target":"left","response":"right","rt":957,"correct":false,"confidence":4},{"trial_n":95,"n_dots":2.95,"target":"left","response":"right","rt":741.20000004768,"correct":false,"confidence":4},{"trial_n":96,"n_dots":3.05,"target":"left","response":"right","rt":594.29999995232,"correct":false,"confidence":3},{"trial_n":97,"n_dots":3.15,"target":"left","response":"left","rt":705.10000014305,"correct":true,"confidence":3},{"trial_n":98,"n_dots":3.15,"target":"right","response":"left","rt":891,"correct":false,"confidence":3},{"trial_n":99,"n_dots":3.25,"target":"left","response":"right","rt":528.79999995232,"correct":false,"confidence":4},{"trial_n":100,"n_dots":3.35,"target":"right","response":"left","rt":873.40000009537,"correct":false,"confidence":3},{"trial_n":101,"n_dots":3.45,"target":"left","response":"left","rt":597.59999990463,"correct":true,"confidence":5},{"trial_n":102,"n_dots":3.45,"target":"right","response":"left","rt":973.29999995232,"correct":false,"confidence":4},{"trial_n":103,"n_dots":3.55,"target":"right","response":"right","rt":769.20000004768,"correct":true,"confidence":4},{"trial_n":104,"n_dots":3.55,"target":"right","response":"right","rt":491,"correct":true,"confidence":4},{"trial_n":105,"n_dots":3.45,"target":"left","response":"left","rt":642.29999995232,"correct":true,"confidence":4},{"trial_n":106,"n_dots":3.45,"target":"left","response":"left","rt":691.70000004768,"correct":true,"confidence":4},{"trial_n":107,"n_dots":3.35,"target":"left","response":"right","rt":720.69999980927,"correct":false,"confidence":1},{"trial_n":108,"n_dots":3.45,"target":"left","response":"left","rt":474.29999995232,"correct":true,"confidence":4},{"trial_n":109,"n_dots":3.45,"target":"left","response":"left","rt":1108.9000000954,"correct":true,"confidence":5},{"trial_n":110,"n_dots":3.35,"target":"left","response":"right","rt":460.09999990463,"correct":false,"confidence":5},{"trial_n":111,"n_dots":3.45,"target":"right","response":"right","rt":555.5,"correct":true,"confidence":4},{"trial_n":112,"n_dots":3.45,"target":"left","response":"left","rt":439.70000004768,"correct":true,"confidence":5},{"trial_n":113,"n_dots":3.35,"target":"right","response":"right","rt":420.70000004768,"correct":true,"confidence":4},{"trial_n":114,"n_dots":3.35,"target":"left","response":"left","rt":428.09999990463,"correct":true,"confidence":4},{"trial_n":115,"n_dots":3.25,"target":"right","response":"right","rt":548.39999985695,"correct":true,"confidence":4},{"trial_n":116,"n_dots":3.25,"target":"left","response":"right","rt":501.60000014305,"correct":false,"confidence":4},{"trial_n":117,"n_dots":3.35,"target":"right","response":"right","rt":218.79999995232,"correct":true,"confidence":4},{"trial_n":118,"n_dots":3.35,"target":"right","response":"right","rt":487.79999995232,"correct":true,"confidence":4},{"trial_n":119,"n_dots":3.25,"target":"right","response":"right","rt":660.5,"correct":true,"confidence":4},{"trial_n":120,"n_dots":3.25,"target":"right","response":"right","rt":480.20000004768,"correct":true,"confidence":5},{"trial_n":121,"n_dots":3.15,"target":"right","response":"left","rt":635.90000009537,"correct":false,"confidence":4},{"trial_n":122,"n_dots":3.25,"target":"left","response":"left","rt":624.5,"correct":true,"confidence":4},{"trial_n":123,"n_dots":3.25,"target":"right","response":"left","rt":3170.0999999046,"correct":false,"confidence":1},{"trial_n":124,"n_dots":3.35,"target":"right","response":"right","rt":711.79999995232,"correct":true,"confidence":4},{"trial_n":125,"n_dots":3.35,"target":"right","response":"left","rt":1208.5999999046,"correct":false,"confidence":3},{"trial_n":126,"n_dots":3.45,"target":"left","response":"right","rt":713.20000004768,"correct":false,"confidence":3},{"trial_n":127,"n_dots":3.55,"target":"left","response":"left","rt":396.89999985695,"correct":true,"confidence":3},{"trial_n":128,"n_dots":3.55,"target":"right","response":"right","rt":620,"correct":true,"confidence":4},{"trial_n":129,"n_dots":3.45,"target":"left","response":"left","rt":333.20000004768,"correct":true,"confidence":3},{"trial_n":130,"n_dots":3.45,"target":"right","response":"right","rt":699,"correct":true,"confidence":4},{"trial_n":131,"n_dots":3.35,"target":"right","response":"right","rt":693.19999980927,"correct":true,"confidence":4},{"trial_n":132,"n_dots":3.35,"target":"left","response":"right","rt":500.70000004768,"correct":false,"confidence":4},{"trial_n":133,"n_dots":3.45,"target":"left","response":"left","rt":595.20000004768,"correct":true,"confidence":4},{"trial_n":134,"n_dots":3.45,"target":"right","response":"right","rt":209.29999995232,"correct":true,"confidence":4},{"trial_n":135,"n_dots":3.35,"target":"right","response":"right","rt":469.69999980927,"correct":true,"confidence":4},{"trial_n":136,"n_dots":3.35,"target":"right","response":"right","rt":489.59999990463,"correct":true,"confidence":4},{"trial_n":137,"n_dots":3.25,"target":"left","response":"left","rt":578.90000009537,"correct":true,"confidence":4},{"trial_n":138,"n_dots":3.25,"target":"right","response":"right","rt":463,"correct":true,"confidence":4},{"trial_n":139,"n_dots":3.15,"target":"left","response":"right","rt":880.40000009537,"correct":false,"confidence":4},{"trial_n":140,"n_dots":3.25,"target":"right","response":"left","rt":327.39999985695,"correct":false,"confidence":2},{"trial_n":141,"n_dots":3.35,"target":"left","response":"left","rt":1056.7000000477,"correct":true,"confidence":3},{"trial_n":142,"n_dots":3.35,"target":"left","response":"right","rt":661.29999995232,"correct":false,"confidence":3},{"trial_n":143,"n_dots":3.45,"target":"right","response":"right","rt":633.40000009537,"correct":true,"confidence":3},{"trial_n":144,"n_dots":3.45,"target":"left","response":"left","rt":605.80000019073,"correct":true,"confidence":3},{"trial_n":145,"n_dots":3.35,"target":"left","response":"right","rt":814.20000004768,"correct":false,"confidence":4},{"trial_n":146,"n_dots":3.45,"target":"left","response":"right","rt":655.79999995232,"correct":false,"confidence":4},{"trial_n":147,"n_dots":3.55,"target":"right","response":"right","rt":678.29999995232,"correct":true,"confidence":4},{"trial_n":148,"n_dots":3.55,"target":"right","response":"right","rt":472.60000014305,"correct":true,"confidence":4},{"trial_n":149,"n_dots":3.45,"target":"left","response":"left","rt":637.79999995232,"correct":true,"confidence":4},{"trial_n":150,"n_dots":3.45,"target":"right","response":"right","rt":600.5,"correct":true,"confidence":5},{"trial_n":151,"n_dots":3.35,"target":"left","response":"right","rt":635.5,"correct":false,"confidence":5},{"trial_n":152,"n_dots":3.45,"target":"right","response":"right","rt":469.70000004768,"correct":true,"confidence":5},{"trial_n":153,"n_dots":3.45,"target":"right","response":"right","rt":655,"correct":true,"confidence":5},{"trial_n":154,"n_dots":3.35,"target":"right","response":"right","rt":425,"correct":true,"confidence":5},{"trial_n":155,"n_dots":3.35,"target":"right","response":"right","rt":337.29999995232,"correct":true,"confidence":5},{"trial_n":156,"n_dots":3.25,"target":"right","response":"left","rt":469.89999985695,"correct":false,"confidence":4},{"trial_n":157,"n_dots":3.35,"target":"left","response":"left","rt":589.30000019073,"correct":true,"confidence":4},{"trial_n":158,"n_dots":3.35,"target":"right","response":"right","rt":415.90000009537,"correct":true,"confidence":6},{"trial_n":159,"n_dots":3.25,"target":"left","response":"left","rt":885,"correct":true,"confidence":5},{"trial_n":160,"n_dots":3.25,"target":"right","response":"right","rt":1064.9000000954,"correct":true,"confidence":4},{"trial_n":161,"n_dots":3.15,"target":"left","response":"left","rt":816.20000004768,"correct":true,"confidence":3},{"trial_n":162,"n_dots":3.15,"target":"left","response":"right","rt":714.79999995232,"correct":false,"confidence":3},{"trial_n":163,"n_dots":3.25,"target":"left","response":"left","rt":632.79999995232,"correct":true,"confidence":3},{"trial_n":164,"n_dots":3.25,"target":"right","response":"right","rt":475.70000004768,"correct":true,"confidence":3},{"trial_n":165,"n_dots":3.15,"target":"left","response":"left","rt":757.20000004768,"correct":true,"confidence":3},{"trial_n":166,"n_dots":3.15,"target":"left","response":"left","rt":418.20000004768,"correct":true,"confidence":4},{"trial_n":167,"n_dots":3.05,"target":"left","response":"left","rt":550.19999980927,"correct":true,"confidence":5},{"trial_n":168,"n_dots":3.05,"target":"left","response":"left","rt":873.70000004768,"correct":true,"confidence":4},{"trial_n":169,"n_dots":2.95,"target":"left","response":"right","rt":546,"correct":false,"confidence":4},{"trial_n":170,"n_dots":3.05,"target":"right","response":"right","rt":689.19999980927,"correct":true,"confidence":5},{"trial_n":171,"n_dots":3.05,"target":"left","response":"left","rt":750.70000004768,"correct":true,"confidence":4},{"trial_n":172,"n_dots":2.95,"target":"left","response":"left","rt":847.70000004768,"correct":true,"confidence":4},{"trial_n":173,"n_dots":2.95,"target":"left","response":"right","rt":758.29999995232,"correct":false,"confidence":4},{"trial_n":174,"n_dots":3.05,"target":"right","response":"right","rt":678.20000004768,"correct":true,"confidence":2},{"trial_n":175,"n_dots":3.05,"target":"right","response":"right","rt":490.70000004768,"correct":true,"confidence":5},{"trial_n":176,"n_dots":2.95,"target":"right","response":"right","rt":727.70000004768,"correct":true,"confidence":4},{"trial_n":177,"n_dots":2.95,"target":"right","response":"right","rt":688.60000014305,"correct":true,"confidence":5},{"trial_n":178,"n_dots":2.85,"target":"left","response":"left","rt":1289.4000000954,"correct":true,"confidence":5},{"trial_n":179,"n_dots":2.85,"target":"right","response":"right","rt":668.20000004768,"correct":true,"confidence":4},{"trial_n":180,"n_dots":2.75,"target":"left","response":"left","rt":721.59999990463,"correct":true,"confidence":4},{"trial_n":181,"n_dots":2.75,"target":"right","response":"right","rt":779.09999990463,"correct":true,"confidence":4},{"trial_n":182,"n_dots":2.65,"target":"right","response":"left","rt":892.39999985695,"correct":false,"confidence":4},{"trial_n":183,"n_dots":2.75,"target":"left","response":"left","rt":678.19999980927,"correct":true,"confidence":4},{"trial_n":184,"n_dots":2.75,"target":"left","response":"left","rt":1300.0999999046,"correct":true,"confidence":4},{"trial_n":185,"n_dots":2.65,"target":"right","response":"right","rt":584.59999990463,"correct":true,"confidence":1},{"trial_n":186,"n_dots":2.65,"target":"right","response":"right","rt":3194.8999998569,"correct":true,"confidence":4},{"trial_n":187,"n_dots":2.55,"target":"right","response":"right","rt":568,"correct":true,"confidence":4},{"trial_n":188,"n_dots":2.55,"target":"left","response":"left","rt":708.70000004768,"correct":true,"confidence":4},{"trial_n":189,"n_dots":2.45,"target":"left","response":"right","rt":389.40000009537,"correct":false,"confidence":4},{"trial_n":190,"n_dots":2.55,"target":"right","response":"right","rt":1377.8999998569,"correct":true,"confidence":4},{"trial_n":191,"n_dots":2.55,"target":"right","response":"right","rt":656.29999995232,"correct":true,"confidence":4},{"trial_n":192,"n_dots":2.45,"target":"right","response":"right","rt":777,"correct":true,"confidence":3},{"trial_n":193,"n_dots":2.45,"target":"left","response":"right","rt":943.20000004768,"correct":false,"confidence":4},{"trial_n":194,"n_dots":2.55,"target":"left","response":"left","rt":1109,"correct":true,"confidence":2}]