[{"trial_n":1,"n_dots":4.25,"target":"right","response":"left","rt":5485,"correct":false,"confidence":-1},{"trial_n":2,"n_dots":4.25,"target":"right","response":"left","rt":1466,"correct":false,"confidence":-1},{"trial_n":3,"n_dots":4.65,"target":"left","response":"left","rt":861.00000000003,"correct":true,"confidence":-1},{"trial_n":4,"n_dots":4.65,"target":"right","response":"right","rt":1036,"correct":true,"confidence":-1},{"trial_n":5,"n_dots":4.25,"target":"left","response":"left","rt":1341,"correct":true,"confidence":-1},{"trial_n":6,"n_dots":4.25,"target":"left","response":"left","rt":1094,"correct":true,"confidence":-1},{"trial_n":7,"n_dots":3.85,"target":"right","response":"right","rt":1053,"correct":true,"confidence":-1},{"trial_n":8,"n_dots":3.85,"target":"left","response":"left","rt":1006,"correct":true,"confidence":-1},{"trial_n":9,"n_dots":3.65,"target":"right","response":"right","rt":797,"correct":true,"confidence":-1},{"trial_n":10,"n_dots":3.65,"target":"left","response":"left","rt":946,"correct":true,"confidence":-1},{"trial_n":11,"n_dots":3.45,"target":"right","response":"left","rt":1021,"correct":false,"confidence":-1},{"trial_n":12,"n_dots":3.65,"target":"right","response":"right","rt":981,"correct":true,"confidence":-1},{"trial_n":13,"n_dots":3.65,"target":"right","response":"right","rt":958,"correct":true,"confidence":-1},{"trial_n":14,"n_dots":3.55,"target":"right","response":"left","rt":1166,"correct":false,"confidence":-1},{"trial_n":15,"n_dots":3.65,"target":"right","response":"right","rt":926.99999999997,"correct":true,"confidence":-1},{"trial_n":16,"n_dots":3.65,"target":"left","response":"left","rt":873,"correct":true,"confidence":-1},{"trial_n":17,"n_dots":3.55,"target":"right","response":"right","rt":816,"correct":true,"confidence":-1},{"trial_n":18,"n_dots":3.55,"target":"left","response":"left","rt":926.00000000003,"correct":true,"confidence":-1},{"trial_n":19,"n_dots":3.45,"target":"left","response":"right","rt":848,"correct":false,"confidence":-1},{"trial_n":20,"n_dots":3.55,"target":"right","response":"right","rt":1087,"correct":true,"confidence":-1},{"trial_n":21,"n_dots":3.55,"target":"left","response":"left","rt":984,"correct":true,"confidence":-1},{"trial_n":22,"n_dots":3.45,"target":"left","response":"right","rt":809,"correct":false,"confidence":-1},{"trial_n":23,"n_dots":3.55,"target":"left","response":"left","rt":720,"correct":true,"confidence":-1},{"trial_n":24,"n_dots":3.55,"target":"right","response":"left","rt":896,"correct":false,"confidence":-1},{"trial_n":25,"n_dots":3.65,"target":"left","response":"right","rt":768,"correct":false,"confidence":-1},{"trial_n":26,"n_dots":3.75,"target":"right","response":"right","rt":768,"correct":true,"confidence":-1},{"trial_n":27,"n_dots":3.75,"target":"right","response":"left","rt":926.00000000003,"correct":false,"confidence":3},{"trial_n":28,"n_dots":3.85,"target":"left","response":"left","rt":654,"correct":true,"confidence":2},{"trial_n":29,"n_dots":3.85,"target":"left","response":"left","rt":960,"correct":true,"confidence":4},{"trial_n":30,"n_dots":3.75,"target":"left","response":"right","rt":1519,"correct":false,"confidence":3},{"trial_n":31,"n_dots":3.85,"target":"right","response":"right","rt":777,"correct":true,"confidence":3},{"trial_n":32,"n_dots":3.85,"target":"right","response":"left","rt":712,"correct":false,"confidence":3},{"trial_n":33,"n_dots":3.95,"target":"left","response":"left","rt":719.99999999994,"correct":true,"confidence":4},{"trial_n":34,"n_dots":3.95,"target":"left","response":"right","rt":800,"correct":false,"confidence":3},{"trial_n":35,"n_dots":4.05,"target":"left","response":"left","rt":723.00000000006,"correct":true,"confidence":4},{"trial_n":36,"n_dots":4.05,"target":"left","response":"left","rt":857,"correct":true,"confidence":5},{"trial_n":37,"n_dots":3.95,"target":"left","response":"right","rt":1062,"correct":false,"confidence":2},{"trial_n":38,"n_dots":4.05,"target":"left","response":"left","rt":546,"correct":true,"confidence":4},{"trial_n":39,"n_dots":4.05,"target":"left","response":"right","rt":770,"correct":false,"confidence":5},{"trial_n":40,"n_dots":4.15,"target":"left","response":"left","rt":618,"correct":true,"confidence":5},{"trial_n":41,"n_dots":4.15,"target":"left","response":"left","rt":1049,"correct":true,"confidence":4},{"trial_n":42,"n_dots":4.05,"target":"left","response":"left","rt":754,"correct":true,"confidence":5},{"trial_n":43,"n_dots":4.05,"target":"left","response":"left","rt":818,"correct":true,"confidence":4},{"trial_n":44,"n_dots":3.95,"target":"left","response":"left","rt":664,"correct":true,"confidence":4},{"trial_n":45,"n_dots":3.95,"target":"right","response":"right","rt":763,"correct":true,"confidence":5},{"trial_n":46,"n_dots":3.85,"target":"right","response":"right","rt":995,"correct":true,"confidence":6},{"trial_n":47,"n_dots":3.85,"target":"right","response":"right","rt":816,"correct":true,"confidence":3},{"trial_n":48,"n_dots":3.75,"target":"left","response":"left","rt":843,"correct":true,"confidence":2},{"trial_n":49,"n_dots":3.75,"target":"right","response":"right","rt":699,"correct":true,"confidence":6},{"trial_n":50,"n_dots":3.65,"target":"right","response":"right","rt":844,"correct":true,"confidence":6},{"trial_n":51,"n_dots":3.65,"target":"right","response":"right","rt":837,"correct":true,"confidence":3},{"trial_n":52,"n_dots":3.55,"target":"left","response":"right","rt":772,"correct":false,"confidence":5},{"trial_n":53,"n_dots":3.65,"target":"left","response":"left","rt":581,"correct":true,"confidence":1},{"trial_n":54,"n_dots":3.65,"target":"right","response":"right","rt":748,"correct":true,"confidence":4},{"trial_n":55,"n_dots":3.55,"target":"left","response":"left","rt":866.00000000006,"correct":true,"confidence":4},{"trial_n":56,"n_dots":3.55,"target":"left","response":"left","rt":796.99999999994,"correct":true,"confidence":3},{"trial_n":57,"n_dots":3.45,"target":"right","response":"right","rt":613,"correct":true,"confidence":4},{"trial_n":58,"n_dots":3.45,"target":"right","response":"right","rt":716,"correct":true,"confidence":5},{"trial_n":59,"n_dots":3.35,"target":"right","response":"right","rt":558,"correct":true,"confidence":3},{"trial_n":60,"n_dots":3.35,"target":"right","response":"right","rt":718,"correct":true,"confidence":4},{"trial_n":61,"n_dots":3.25,"target":"right","response":"left","rt":734,"correct":false,"confidence":4},{"trial_n":62,"n_dots":3.35,"target":"left","response":"left","rt":797,"correct":true,"confidence":2},{"trial_n":63,"n_dots":3.35,"target":"right","response":"right","rt":756,"correct":true,"confidence":4},{"trial_n":64,"n_dots":3.25,"target":"right","response":"left","rt":661,"correct":false,"confidence":4},{"trial_n":65,"n_dots":3.35,"target":"right","response":"right","rt":712,"correct":true,"confidence":3},{"trial_n":66,"n_dots":3.35,"target":"left","response":"left","rt":630,"correct":true,"confidence":4},{"trial_n":67,"n_dots":3.25,"target":"right","response":"right","rt":942,"correct":true,"confidence":5},{"trial_n":68,"n_dots":3.25,"target":"left","response":"left","rt":713,"correct":true,"confidence":4},{"trial_n":69,"n_dots":3.15,"target":"left","response":"left","rt":806.99999999994,"correct":true,"confidence":2},{"trial_n":70,"n_dots":3.15,"target":"left","response":"left","rt":798,"correct":true,"confidence":1},{"trial_n":71,"n_dots":3.05,"target":"right","response":"right","rt":857,"correct":true,"confidence":1},{"trial_n":72,"n_dots":3.05,"target":"left","response":"left","rt":686.00000000006,"correct":true,"confidence":3},{"trial_n":73,"n_dots":2.95,"target":"right","response":"right","rt":554.00000000006,"correct":true,"confidence":3},{"trial_n":74,"n_dots":2.95,"target":"left","response":"right","rt":634,"correct":false,"confidence":4},{"trial_n":75,"n_dots":3.05,"target":"right","response":"left","rt":512,"correct":false,"confidence":4},{"trial_n":76,"n_dots":3.15,"target":"left","response":"right","rt":837.00000000006,"correct":false,"confidence":5},{"trial_n":77,"n_dots":3.25,"target":"left","response":"left","rt":596,"correct":true,"confidence":4},{"trial_n":78,"n_dots":3.25,"target":"right","response":"right","rt":629.99999999994,"correct":true,"confidence":2},{"trial_n":79,"n_dots":3.15,"target":"left","response":"left","rt":573,"correct":true,"confidence":3},{"trial_n":80,"n_dots":3.15,"target":"right","response":"right","rt":591,"correct":true,"confidence":5},{"trial_n":81,"n_dots":3.05,"target":"right","response":"left","rt":478,"correct":false,"confidence":3},{"trial_n":82,"n_dots":3.15,"target":"left","response":"left","rt":622,"correct":true,"confidence":3},{"trial_n":83,"n_dots":3.15,"target":"right","response":"right","rt":565,"correct":true,"confidence":4},{"trial_n":84,"n_dots":3.05,"target":"right","response":"left","rt":630.00000000006,"correct":false,"confidence":3},{"trial_n":85,"n_dots":3.15,"target":"right","response":"right","rt":772.00000000006,"correct":true,"confidence":4},{"trial_n":86,"n_dots":3.15,"target":"right","response":"left","rt":750,"correct":false,"confidence":4},{"trial_n":87,"n_dots":3.25,"target":"right","response":"right","rt":740.00000000006,"correct":true,"confidence":2},{"trial_n":88,"n_dots":3.25,"target":"left","response":"left","rt":587.99999999994,"correct":true,"confidence":4},{"trial_n":89,"n_dots":3.15,"target":"right","response":"right","rt":618.99999999994,"correct":true,"confidence":5},{"trial_n":90,"n_dots":3.15,"target":"left","response":"left","rt":613,"correct":true,"confidence":4},{"trial_n":91,"n_dots":3.05,"target":"right","response":"right","rt":572,"correct":true,"confidence":4},{"trial_n":92,"n_dots":3.05,"target":"right","response":"left","rt":573,"correct":false,"confidence":2},{"trial_n":93,"n_dots":3.15,"target":"right","response":"right","rt":677,"correct":true,"confidence":1},{"trial_n":94,"n_dots":3.15,"target":"right","response":"right","rt":655.00000000006,"correct":true,"confidence":4},{"trial_n":95,"n_dots":3.05,"target":"left","response":"left","rt":692,"correct":true,"confidence":5},{"trial_n":96,"n_dots":3.05,"target":"left","response":"left","rt":647,"correct":true,"confidence":3},{"trial_n":97,"n_dots":2.95,"target":"left","response":"right","rt":622,"correct":false,"confidence":4},{"trial_n":98,"n_dots":3.05,"target":"right","response":"left","rt":615,"correct":false,"confidence":4},{"trial_n":99,"n_dots":3.15,"target":"right","response":"right","rt":526,"correct":true,"confidence":3},{"trial_n":100,"n_dots":3.15,"target":"right","response":"right","rt":677,"correct":true,"confidence":4},{"trial_n":101,"n_dots":3.05,"target":"left","response":"left","rt":686,"correct":true,"confidence":4},{"trial_n":102,"n_dots":3.05,"target":"right","response":"right","rt":767,"correct":true,"confidence":3},{"trial_n":103,"n_dots":2.95,"target":"right","response":"right","rt":662.00000000012,"correct":true,"confidence":4},{"trial_n":104,"n_dots":2.95,"target":"left","response":"left","rt":511,"correct":true,"confidence":2},{"trial_n":105,"n_dots":2.85,"target":"right","response":"right","rt":625,"correct":true,"confidence":5},{"trial_n":106,"n_dots":2.85,"target":"left","response":"left","rt":599,"correct":true,"confidence":3},{"trial_n":107,"n_dots":2.75,"target":"right","response":"right","rt":583,"correct":true,"confidence":2},{"trial_n":108,"n_dots":2.75,"target":"right","response":"right","rt":736,"correct":true,"confidence":6},{"trial_n":109,"n_dots":2.65,"target":"left","response":"right","rt":791,"correct":false,"confidence":2},{"trial_n":110,"n_dots":2.75,"target":"left","response":"left","rt":677,"correct":true,"confidence":4},{"trial_n":111,"n_dots":2.75,"target":"left","response":"right","rt":712,"correct":false,"confidence":4},{"trial_n":112,"n_dots":2.85,"target":"left","response":"left","rt":648,"correct":true,"confidence":3},{"trial_n":113,"n_dots":2.85,"target":"right","response":"left","rt":647,"correct":false,"confidence":4},{"trial_n":114,"n_dots":2.95,"target":"right","response":"left","rt":726,"correct":false,"confidence":1},{"trial_n":115,"n_dots":3.05,"target":"left","response":"right","rt":894,"correct":false,"confidence":2},{"trial_n":116,"n_dots":3.15,"target":"right","response":"left","rt":966,"correct":false,"confidence":5},{"trial_n":117,"n_dots":3.25,"target":"right","response":"right","rt":674,"correct":true,"confidence":4},{"trial_n":118,"n_dots":3.25,"target":"right","response":"left","rt":656.99999999988,"correct":false,"confidence":4},{"trial_n":119,"n_dots":3.35,"target":"left","response":"left","rt":842,"correct":true,"confidence":5},{"trial_n":120,"n_dots":3.35,"target":"left","response":"left","rt":585,"correct":true,"confidence":5},{"trial_n":121,"n_dots":3.25,"target":"left","response":"left","rt":753,"correct":true,"confidence":3},{"trial_n":122,"n_dots":3.25,"target":"left","response":"left","rt":576,"correct":true,"confidence":5},{"trial_n":123,"n_dots":3.15,"target":"right","response":"right","rt":741,"correct":true,"confidence":3},{"trial_n":124,"n_dots":3.15,"target":"right","response":"left","rt":549.00000000012,"correct":false,"confidence":4},{"trial_n":125,"n_dots":3.25,"target":"left","response":"right","rt":2212,"correct":false,"confidence":4},{"trial_n":126,"n_dots":3.35,"target":"right","response":"left","rt":759.99999999988,"correct":false,"confidence":3},{"trial_n":127,"n_dots":3.45,"target":"left","response":"left","rt":2447,"correct":true,"confidence":3},{"trial_n":128,"n_dots":3.45,"target":"left","response":"left","rt":439.00000000012,"correct":true,"confidence":2},{"trial_n":129,"n_dots":3.35,"target":"left","response":"left","rt":738.99999999988,"correct":true,"confidence":5},{"trial_n":130,"n_dots":3.35,"target":"left","response":"left","rt":476,"correct":true,"confidence":4},{"trial_n":131,"n_dots":3.25,"target":"left","response":"left","rt":780,"correct":true,"confidence":3},{"trial_n":132,"n_dots":3.25,"target":"left","response":"right","rt":2784.9999999999,"correct":false,"confidence":3},{"trial_n":133,"n_dots":3.35,"target":"right","response":"left","rt":998,"correct":false,"confidence":2},{"trial_n":134,"n_dots":3.45,"target":"right","response":"right","rt":495,"correct":true,"confidence":4},{"trial_n":135,"n_dots":3.45,"target":"right","response":"right","rt":830,"correct":true,"confidence":4},{"trial_n":136,"n_dots":3.35,"target":"left","response":"left","rt":414.99999999988,"correct":true,"confidence":3},{"trial_n":137,"n_dots":3.35,"target":"left","response":"left","rt":726,"correct":true,"confidence":4},{"trial_n":138,"n_dots":3.25,"target":"right","response":"right","rt":613.00000000012,"correct":true,"confidence":5},{"trial_n":139,"n_dots":3.25,"target":"left","response":"left","rt":793,"correct":true,"confidence":5},{"trial_n":140,"n_dots":3.15,"target":"right","response":"right","rt":769,"correct":true,"confidence":5},{"trial_n":141,"n_dots":3.15,"target":"left","response":"left","rt":991.00000000012,"correct":true,"confidence":3},{"trial_n":142,"n_dots":3.05,"target":"left","response":"left","rt":669.99999999988,"correct":true,"confidence":4},{"trial_n":143,"n_dots":3.05,"target":"left","response":"left","rt":1001,"correct":true,"confidence":4},{"trial_n":144,"n_dots":2.95,"target":"right","response":"right","rt":376,"correct":true,"confidence":4},{"trial_n":145,"n_dots":2.95,"target":"right","response":"left","rt":823,"correct":false,"confidence":5},{"trial_n":146,"n_dots":3.05,"target":"right","response":"right","rt":434,"correct":true,"confidence":3},{"trial_n":147,"n_dots":3.05,"target":"right","response":"left","rt":502,"correct":false,"confidence":3},{"trial_n":148,"n_dots":3.15,"target":"left","response":"left","rt":424.99999999988,"correct":true,"confidence":5},{"trial_n":149,"n_dots":3.15,"target":"left","response":"left","rt":369,"correct":true,"confidence":3},{"trial_n":150,"n_dots":3.05,"target":"left","response":"right","rt":288,"correct":false,"confidence":5},{"trial_n":151,"n_dots":3.15,"target":"left","response":"left","rt":370,"correct":true,"confidence":3},{"trial_n":152,"n_dots":3.15,"target":"left","response":"right","rt":370,"correct":false,"confidence":4},{"trial_n":153,"n_dots":3.25,"target":"right","response":"right","rt":473,"correct":true,"confidence":5},{"trial_n":154,"n_dots":3.25,"target":"right","response":"left","rt":386,"correct":false,"confidence":3},{"trial_n":155,"n_dots":3.35,"target":"left","response":"left","rt":405.00000000012,"correct":true,"confidence":5},{"trial_n":156,"n_dots":3.35,"target":"left","response":"right","rt":889,"correct":false,"confidence":4},{"trial_n":157,"n_dots":3.45,"target":"left","response":"left","rt":387,"correct":true,"confidence":3},{"trial_n":158,"n_dots":3.45,"target":"right","response":"left","rt":377.00000000012,"correct":false,"confidence":4},{"trial_n":159,"n_dots":3.55,"target":"left","response":"left","rt":179,"correct":true,"confidence":4},{"trial_n":160,"n_dots":3.55,"target":"left","response":"left","rt":251,"correct":true,"confidence":3},{"trial_n":161,"n_dots":3.45,"target":"right","response":"right","rt":498,"correct":true,"confidence":4},{"trial_n":162,"n_dots":3.45,"target":"right","response":"left","rt":362,"correct":false,"confidence":3},{"trial_n":163,"n_dots":3.55,"target":"right","response":"right","rt":476,"correct":true,"confidence":4},{"trial_n":164,"n_dots":3.55,"target":"right","response":"right","rt":428,"correct":true,"confidence":5},{"trial_n":165,"n_dots":3.45,"target":"left","response":"left","rt":445.00000000012,"correct":true,"confidence":3},{"trial_n":166,"n_dots":3.45,"target":"left","response":"right","rt":377,"correct":false,"confidence":5},{"trial_n":167,"n_dots":3.55,"target":"right","response":"right","rt":530.99999999988,"correct":true,"confidence":3},{"trial_n":168,"n_dots":3.55,"target":"left","response":"left","rt":407,"correct":true,"confidence":3},{"trial_n":169,"n_dots":3.45,"target":"left","response":"left","rt":453,"correct":true,"confidence":5},{"trial_n":170,"n_dots":3.45,"target":"left","response":"left","rt":538,"correct":true,"confidence":4},{"trial_n":171,"n_dots":3.35,"target":"right","response":"right","rt":461.99999999988,"correct":true,"confidence":4},{"trial_n":172,"n_dots":3.35,"target":"right","response":"right","rt":421,"correct":true,"confidence":6},{"trial_n":173,"n_dots":3.25,"target":"left","response":"left","rt":314,"correct":true,"confidence":4},{"trial_n":174,"n_dots":3.25,"target":"right","response":"right","rt":741,"correct":true,"confidence":3},{"trial_n":175,"n_dots":3.15,"target":"right","response":"right","rt":452.99999999988,"correct":true,"confidence":5},{"trial_n":176,"n_dots":3.15,"target":"left","response":"left","rt":419.99999999988,"correct":true,"confidence":5},{"trial_n":177,"n_dots":3.05,"target":"left","response":"left","rt":1173,"correct":true,"confidence":2},{"trial_n":178,"n_dots":3.05,"target":"right","response":"right","rt":429,"correct":true,"confidence":4},{"trial_n":179,"n_dots":2.95,"target":"left","response":"left","rt":263.99999999988,"correct":true,"confidence":4},{"trial_n":180,"n_dots":2.95,"target":"right","response":"left","rt":364,"correct":false,"confidence":3},{"trial_n":181,"n_dots":3.05,"target":"left","response":"right","rt":1251.0000000002,"correct":false,"confidence":2},{"trial_n":182,"n_dots":3.15,"target":"right","response":"right","rt":494,"correct":true,"confidence":3},{"trial_n":183,"n_dots":3.15,"target":"left","response":"right","rt":1721,"correct":false,"confidence":3},{"trial_n":184,"n_dots":3.25,"target":"left","response":"left","rt":589,"correct":true,"confidence":2},{"trial_n":185,"n_dots":3.25,"target":"right","response":"right","rt":558,"correct":true,"confidence":1},{"trial_n":186,"n_dots":3.15,"target":"right","response":"left","rt":797,"correct":false,"confidence":1},{"trial_n":187,"n_dots":3.25,"target":"right","response":"right","rt":789,"correct":true,"confidence":3},{"trial_n":188,"n_dots":3.25,"target":"right","response":"right","rt":478,"correct":true,"confidence":4},{"trial_n":189,"n_dots":3.15,"target":"right","response":"left","rt":606,"correct":false,"confidence":1},{"trial_n":190,"n_dots":3.25,"target":"right","response":"right","rt":518,"correct":true,"confidence":2},{"trial_n":191,"n_dots":3.25,"target":"right","response":"right","rt":333,"correct":true,"confidence":3},{"trial_n":192,"n_dots":3.15,"target":"right","response":"right","rt":583,"correct":true,"confidence":4},{"trial_n":193,"n_dots":3.15,"target":"left","response":"left","rt":390,"correct":true,"confidence":1},{"trial_n":194,"n_dots":3.05,"target":"left","response":"right","rt":645,"correct":false,"confidence":2}]