[{"trial_n":1,"n_dots":4.25,"target":"left","response":"left","rt":9522.5999999046,"correct":true,"confidence":-1},{"trial_n":2,"n_dots":4.25,"target":"left","response":"left","rt":1185.5999999046,"correct":true,"confidence":-1},{"trial_n":3,"n_dots":3.85,"target":"left","response":"left","rt":358.29999995232,"correct":true,"confidence":-1},{"trial_n":4,"n_dots":3.85,"target":"right","response":"right","rt":7.9000000953674,"correct":true,"confidence":-1},{"trial_n":5,"n_dots":3.45,"target":"left","response":"left","rt":2607.5999999046,"correct":true,"confidence":-1},{"trial_n":6,"n_dots":3.45,"target":"left","response":"left","rt":290.59999990463,"correct":true,"confidence":-1},{"trial_n":7,"n_dots":3.05,"target":"right","response":"left","rt":1181.5,"correct":false,"confidence":-1},{"trial_n":8,"n_dots":3.25,"target":"left","response":"left","rt":417.20000004768,"correct":true,"confidence":-1},{"trial_n":9,"n_dots":3.25,"target":"right","response":"right","rt":307.59999990463,"correct":true,"confidence":-1},{"trial_n":10,"n_dots":3.05,"target":"right","response":"left","rt":503.5,"correct":false,"confidence":-1},{"trial_n":11,"n_dots":3.25,"target":"left","response":"right","rt":654.69999980927,"correct":false,"confidence":-1},{"trial_n":12,"n_dots":3.45,"target":"left","response":"right","rt":1269,"correct":false,"confidence":-1},{"trial_n":13,"n_dots":3.55,"target":"right","response":"left","rt":835.59999990463,"correct":false,"confidence":-1},{"trial_n":14,"n_dots":3.65,"target":"left","response":"left","rt":411.09999990463,"correct":true,"confidence":-1},{"trial_n":15,"n_dots":3.65,"target":"right","response":"right","rt":527.09999990463,"correct":true,"confidence":-1},{"trial_n":16,"n_dots":3.55,"target":"left","response":"left","rt":883,"correct":true,"confidence":-1},{"trial_n":17,"n_dots":3.55,"target":"left","response":"right","rt":704.40000009537,"correct":false,"confidence":-1},{"trial_n":18,"n_dots":3.65,"target":"right","response":"right","rt":880.90000009537,"correct":true,"confidence":-1},{"trial_n":19,"n_dots":3.65,"target":"right","response":"right","rt":396,"correct":true,"confidence":-1},{"trial_n":20,"n_dots":3.55,"target":"right","response":"left","rt":531.39999985695,"correct":false,"confidence":-1},{"trial_n":21,"n_dots":3.65,"target":"left","response":"right","rt":1219.6999998093,"correct":false,"confidence":-1},{"trial_n":22,"n_dots":3.75,"target":"right","response":"right","rt":347.90000009537,"correct":true,"confidence":-1},{"trial_n":23,"n_dots":3.75,"target":"right","response":"right","rt":277.79999995232,"correct":true,"confidence":-1},{"trial_n":24,"n_dots":3.65,"target":"left","response":"left","rt":447.79999995232,"correct":true,"confidence":-1},{"trial_n":25,"n_dots":3.65,"target":"left","response":"left","rt":530,"correct":true,"confidence":-1},{"trial_n":26,"n_dots":3.55,"target":"left","response":"left","rt":772.79999995232,"correct":true,"confidence":-1},{"trial_n":27,"n_dots":3.55,"target":"left","response":"left","rt":593.29999995232,"correct":true,"confidence":3},{"trial_n":28,"n_dots":3.45,"target":"left","response":"left","rt":1549.9000000954,"correct":true,"confidence":5},{"trial_n":29,"n_dots":3.45,"target":"right","response":"right","rt":1758.5999999046,"correct":true,"confidence":4},{"trial_n":30,"n_dots":3.35,"target":"left","response":"left","rt":1352,"correct":true,"confidence":3},{"trial_n":31,"n_dots":3.35,"target":"right","response":"right","rt":762,"correct":true,"confidence":5},{"trial_n":32,"n_dots":3.25,"target":"left","response":"left","rt":460.09999990463,"correct":true,"confidence":5},{"trial_n":33,"n_dots":3.25,"target":"right","response":"right","rt":1144.0999999046,"correct":true,"confidence":3},{"trial_n":34,"n_dots":3.15,"target":"left","response":"left","rt":1171.6999998093,"correct":true,"confidence":4},{"trial_n":35,"n_dots":3.15,"target":"left","response":"left","rt":912.40000009537,"correct":true,"confidence":4},{"trial_n":36,"n_dots":3.05,"target":"left","response":"left","rt":593.5,"correct":true,"confidence":5},{"trial_n":37,"n_dots":3.05,"target":"right","response":"right","rt":2151.8000001907,"correct":true,"confidence":5},{"trial_n":38,"n_dots":2.95,"target":"right","response":"left","rt":632.29999995232,"correct":false,"confidence":4},{"trial_n":39,"n_dots":3.05,"target":"right","response":"left","rt":1074.2999999523,"correct":false,"confidence":4},{"trial_n":40,"n_dots":3.15,"target":"right","response":"left","rt":412.29999995232,"correct":false,"confidence":5},{"trial_n":41,"n_dots":3.25,"target":"right","response":"left","rt":667.20000004768,"correct":false,"confidence":4},{"trial_n":42,"n_dots":3.35,"target":"left","response":"right","rt":2336.3000001907,"correct":false,"confidence":1},{"trial_n":43,"n_dots":3.45,"target":"right","response":"right","rt":385.90000009537,"correct":true,"confidence":5},{"trial_n":44,"n_dots":3.45,"target":"left","response":"left","rt":1024.3000001907,"correct":true,"confidence":4},{"trial_n":45,"n_dots":3.35,"target":"right","response":"right","rt":2752.2999999523,"correct":true,"confidence":4},{"trial_n":46,"n_dots":3.35,"target":"left","response":"left","rt":1743.2999999523,"correct":true,"confidence":2},{"trial_n":47,"n_dots":3.25,"target":"right","response":"right","rt":288.20000004768,"correct":true,"confidence":4},{"trial_n":48,"n_dots":3.25,"target":"left","response":"left","rt":2148.2000000477,"correct":true,"confidence":2},{"trial_n":49,"n_dots":3.15,"target":"right","response":"right","rt":443,"correct":true,"confidence":4},{"trial_n":50,"n_dots":3.15,"target":"right","response":"left","rt":2861.5999999046,"correct":false,"confidence":4},{"trial_n":51,"n_dots":3.25,"target":"left","response":"left","rt":255.39999985695,"correct":true,"confidence":5},{"trial_n":52,"n_dots":3.25,"target":"right","response":"right","rt":578.90000009537,"correct":true,"confidence":4},{"trial_n":53,"n_dots":3.15,"target":"right","response":"left","rt":4319.7999999523,"correct":false,"confidence":3},{"trial_n":54,"n_dots":3.25,"target":"left","response":"right","rt":3323.7999999523,"correct":false,"confidence":1},{"trial_n":55,"n_dots":3.35,"target":"left","response":"left","rt":767.79999995232,"correct":true,"confidence":4},{"trial_n":56,"n_dots":3.35,"target":"right","response":"right","rt":612.20000004768,"correct":true,"confidence":4},{"trial_n":57,"n_dots":3.25,"target":"left","response":"left","rt":1424.8999998569,"correct":true,"confidence":5},{"trial_n":58,"n_dots":3.25,"target":"left","response":"right","rt":1572.0999999046,"correct":false,"confidence":1},{"trial_n":59,"n_dots":3.35,"target":"right","response":"right","rt":1145.4000000954,"correct":true,"confidence":3},{"trial_n":60,"n_dots":3.35,"target":"right","response":"right","rt":2630.5,"correct":true,"confidence":2},{"trial_n":61,"n_dots":3.25,"target":"left","response":"left","rt":718.70000004768,"correct":true,"confidence":5},{"trial_n":62,"n_dots":3.25,"target":"right","response":"right","rt":690.79999995232,"correct":true,"confidence":3},{"trial_n":63,"n_dots":3.15,"target":"right","response":"left","rt":4086.9000000954,"correct":false,"confidence":1},{"trial_n":64,"n_dots":3.25,"target":"left","response":"right","rt":786.10000014305,"correct":false,"confidence":3},{"trial_n":65,"n_dots":3.35,"target":"left","response":"left","rt":330.59999990463,"correct":true,"confidence":5},{"trial_n":66,"n_dots":3.35,"target":"right","response":"left","rt":512.59999990463,"correct":false,"confidence":3},{"trial_n":67,"n_dots":3.45,"target":"right","response":"left","rt":2721.7999999523,"correct":false,"confidence":3},{"trial_n":68,"n_dots":3.55,"target":"right","response":"right","rt":313.09999990463,"correct":true,"confidence":6},{"trial_n":69,"n_dots":3.55,"target":"left","response":"left","rt":488.29999995232,"correct":true,"confidence":5},{"trial_n":70,"n_dots":3.45,"target":"left","response":"left","rt":698.10000014305,"correct":true,"confidence":4},{"trial_n":71,"n_dots":3.45,"target":"left","response":"left","rt":400.70000004768,"correct":true,"confidence":5},{"trial_n":72,"n_dots":3.35,"target":"right","response":"right","rt":898.60000014305,"correct":true,"confidence":3},{"trial_n":73,"n_dots":3.35,"target":"right","response":"right","rt":1533.9000000954,"correct":true,"confidence":3},{"trial_n":74,"n_dots":3.25,"target":"left","response":"left","rt":518.39999985695,"correct":true,"confidence":4},{"trial_n":75,"n_dots":3.25,"target":"left","response":"left","rt":478.40000009537,"correct":true,"confidence":5},{"trial_n":76,"n_dots":3.15,"target":"left","response":"left","rt":559.70000004768,"correct":true,"confidence":4},{"trial_n":77,"n_dots":3.15,"target":"left","response":"left","rt":374.29999995232,"correct":true,"confidence":4},{"trial_n":78,"n_dots":3.05,"target":"left","response":"left","rt":375.5,"correct":true,"confidence":5},{"trial_n":79,"n_dots":3.05,"target":"left","response":"left","rt":522,"correct":true,"confidence":4},{"trial_n":80,"n_dots":2.95,"target":"right","response":"right","rt":1332.5,"correct":true,"confidence":3},{"trial_n":81,"n_dots":2.95,"target":"left","response":"left","rt":1464.6000001431,"correct":true,"confidence":3},{"trial_n":82,"n_dots":2.85,"target":"left","response":"left","rt":1152.5999999046,"correct":true,"confidence":2},{"trial_n":83,"n_dots":2.85,"target":"right","response":"right","rt":541,"correct":true,"confidence":4},{"trial_n":84,"n_dots":2.75,"target":"left","response":"left","rt":406.90000009537,"correct":true,"confidence":5},{"trial_n":85,"n_dots":2.75,"target":"left","response":"left","rt":1172.1000001431,"correct":true,"confidence":3},{"trial_n":86,"n_dots":2.65,"target":"left","response":"left","rt":1176.5999999046,"correct":true,"confidence":2},{"trial_n":87,"n_dots":2.65,"target":"left","response":"left","rt":478.20000004768,"correct":true,"confidence":3},{"trial_n":88,"n_dots":2.55,"target":"left","response":"left","rt":1420.6999998093,"correct":true,"confidence":1},{"trial_n":89,"n_dots":2.55,"target":"left","response":"right","rt":576.09999990463,"correct":false,"confidence":3},{"trial_n":90,"n_dots":2.65,"target":"right","response":"right","rt":551.60000014305,"correct":true,"confidence":3},{"trial_n":91,"n_dots":2.65,"target":"right","response":"right","rt":1262.6999998093,"correct":true,"confidence":3},{"trial_n":92,"n_dots":2.55,"target":"right","response":"right","rt":663.90000009537,"correct":true,"confidence":4},{"trial_n":93,"n_dots":2.55,"target":"right","response":"right","rt":3085.5,"correct":true,"confidence":2},{"trial_n":94,"n_dots":2.45,"target":"left","response":"left","rt":519.10000014305,"correct":true,"confidence":4},{"trial_n":95,"n_dots":2.45,"target":"right","response":"right","rt":316.20000004768,"correct":true,"confidence":3},{"trial_n":96,"n_dots":2.35,"target":"left","response":"left","rt":1494.4000000954,"correct":true,"confidence":4},{"trial_n":97,"n_dots":2.35,"target":"right","response":"right","rt":352.90000009537,"correct":true,"confidence":5},{"trial_n":98,"n_dots":2.25,"target":"right","response":"left","rt":1157,"correct":false,"confidence":3},{"trial_n":99,"n_dots":2.35,"target":"right","response":"right","rt":1096.8999998569,"correct":true,"confidence":1},{"trial_n":100,"n_dots":2.35,"target":"right","response":"right","rt":393.79999995232,"correct":true,"confidence":3},{"trial_n":101,"n_dots":2.25,"target":"right","response":"right","rt":2082.3000001907,"correct":true,"confidence":1},{"trial_n":102,"n_dots":2.25,"target":"right","response":"left","rt":1787.9000000954,"correct":false,"confidence":2},{"trial_n":103,"n_dots":2.35,"target":"right","response":"left","rt":483.5,"correct":false,"confidence":3},{"trial_n":104,"n_dots":2.45,"target":"left","response":"left","rt":1218.2000000477,"correct":true,"confidence":3},{"trial_n":105,"n_dots":2.45,"target":"right","response":"left","rt":551.59999990463,"correct":false,"confidence":3},{"trial_n":106,"n_dots":2.55,"target":"left","response":"right","rt":1917.0999999046,"correct":false,"confidence":1},{"trial_n":107,"n_dots":2.65,"target":"right","response":"right","rt":729.40000009537,"correct":true,"confidence":3},{"trial_n":108,"n_dots":2.65,"target":"right","response":"right","rt":815.89999985695,"correct":true,"confidence":2},{"trial_n":109,"n_dots":2.55,"target":"left","response":"left","rt":1456.8999998569,"correct":true,"confidence":5},{"trial_n":110,"n_dots":2.55,"target":"left","response":"right","rt":1468.7999999523,"correct":false,"confidence":2},{"trial_n":111,"n_dots":2.65,"target":"left","response":"right","rt":1898.3999998569,"correct":false,"confidence":1},{"trial_n":112,"n_dots":2.75,"target":"right","response":"right","rt":641.90000009537,"correct":true,"confidence":3},{"trial_n":113,"n_dots":2.75,"target":"left","response":"left","rt":4155.8999998569,"correct":true,"confidence":1},{"trial_n":114,"n_dots":2.65,"target":"right","response":"right","rt":563,"correct":true,"confidence":4},{"trial_n":115,"n_dots":2.65,"target":"right","response":"right","rt":386.89999985695,"correct":true,"confidence":4},{"trial_n":116,"n_dots":2.55,"target":"right","response":"right","rt":302.29999995232,"correct":true,"confidence":5},{"trial_n":117,"n_dots":2.55,"target":"left","response":"right","rt":801,"correct":false,"confidence":2},{"trial_n":118,"n_dots":2.65,"target":"right","response":"left","rt":535.70000004768,"correct":false,"confidence":3},{"trial_n":119,"n_dots":2.75,"target":"left","response":"left","rt":2136.3999998569,"correct":true,"confidence":2},{"trial_n":120,"n_dots":2.75,"target":"left","response":"left","rt":1294,"correct":true,"confidence":4},{"trial_n":121,"n_dots":2.65,"target":"right","response":"right","rt":687,"correct":true,"confidence":2},{"trial_n":122,"n_dots":2.65,"target":"right","response":"right","rt":444.60000014305,"correct":true,"confidence":1},{"trial_n":123,"n_dots":2.55,"target":"left","response":"left","rt":171.39999985695,"correct":true,"confidence":4},{"trial_n":124,"n_dots":2.55,"target":"right","response":"left","rt":340.09999990463,"correct":false,"confidence":4},{"trial_n":125,"n_dots":2.65,"target":"right","response":"right","rt":354.20000004768,"correct":true,"confidence":3},{"trial_n":126,"n_dots":2.65,"target":"left","response":"left","rt":303.29999995232,"correct":true,"confidence":4},{"trial_n":127,"n_dots":2.55,"target":"left","response":"left","rt":147.20000004768,"correct":true,"confidence":5},{"trial_n":128,"n_dots":2.55,"target":"right","response":"right","rt":281.5,"correct":true,"confidence":4},{"trial_n":129,"n_dots":2.45,"target":"right","response":"right","rt":1360.5999999046,"correct":true,"confidence":3},{"trial_n":130,"n_dots":2.45,"target":"left","response":"left","rt":240.20000004768,"correct":true,"confidence":4},{"trial_n":131,"n_dots":2.35,"target":"right","response":"left","rt":920.39999985695,"correct":false,"confidence":2},{"trial_n":132,"n_dots":2.45,"target":"left","response":"left","rt":1085.2000000477,"correct":true,"confidence":2},{"trial_n":133,"n_dots":2.45,"target":"right","response":"right","rt":457.59999990463,"correct":true,"confidence":2},{"trial_n":134,"n_dots":2.35,"target":"right","response":"left","rt":901.20000004768,"correct":false,"confidence":1},{"trial_n":135,"n_dots":2.45,"target":"left","response":"right","rt":352.5,"correct":false,"confidence":3},{"trial_n":136,"n_dots":2.55,"target":"left","response":"right","rt":1014.2000000477,"correct":false,"confidence":2},{"trial_n":137,"n_dots":2.65,"target":"left","response":"left","rt":438,"correct":true,"confidence":4},{"trial_n":138,"n_dots":2.65,"target":"left","response":"left","rt":3059.5999999046,"correct":true,"confidence":2},{"trial_n":139,"n_dots":2.55,"target":"right","response":"left","rt":474.79999995232,"correct":false,"confidence":1},{"trial_n":140,"n_dots":2.65,"target":"left","response":"left","rt":499.79999995232,"correct":true,"confidence":1},{"trial_n":141,"n_dots":2.65,"target":"right","response":"right","rt":1086.1000001431,"correct":true,"confidence":3},{"trial_n":142,"n_dots":2.55,"target":"right","response":"left","rt":1214.6999998093,"correct":false,"confidence":1},{"trial_n":143,"n_dots":2.65,"target":"right","response":"right","rt":527.59999990463,"correct":true,"confidence":3},{"trial_n":144,"n_dots":2.65,"target":"right","response":"right","rt":344.39999985695,"correct":true,"confidence":4},{"trial_n":145,"n_dots":2.55,"target":"right","response":"left","rt":1123.2999999523,"correct":false,"confidence":3},{"trial_n":146,"n_dots":2.65,"target":"left","response":"left","rt":670.79999995232,"correct":true,"confidence":5},{"trial_n":147,"n_dots":2.65,"target":"left","response":"left","rt":537.29999995232,"correct":true,"confidence":2},{"trial_n":148,"n_dots":2.55,"target":"left","response":"left","rt":270.40000009537,"correct":true,"confidence":4},{"trial_n":149,"n_dots":2.55,"target":"left","response":"right","rt":359.20000004768,"correct":false,"confidence":1},{"trial_n":150,"n_dots":2.65,"target":"left","response":"left","rt":396.30000019073,"correct":true,"confidence":3},{"trial_n":151,"n_dots":2.65,"target":"right","response":"right","rt":441.5,"correct":true,"confidence":3},{"trial_n":152,"n_dots":2.55,"target":"left","response":"left","rt":1206.7000000477,"correct":true,"confidence":3},{"trial_n":153,"n_dots":2.55,"target":"left","response":"right","rt":483.90000009537,"correct":false,"confidence":4},{"trial_n":154,"n_dots":2.65,"target":"right","response":"left","rt":188.90000009537,"correct":false,"confidence":4},{"trial_n":155,"n_dots":2.75,"target":"right","response":"left","rt":959,"correct":false,"confidence":1},{"trial_n":156,"n_dots":2.85,"target":"left","response":"right","rt":4246.1000001431,"correct":false,"confidence":1},{"trial_n":157,"n_dots":2.95,"target":"right","response":"right","rt":530.10000014305,"correct":true,"confidence":1},{"trial_n":158,"n_dots":2.95,"target":"right","response":"left","rt":2178.2999999523,"correct":false,"confidence":3},{"trial_n":159,"n_dots":3.05,"target":"left","response":"left","rt":291.80000019073,"correct":true,"confidence":4},{"trial_n":160,"n_dots":3.05,"target":"right","response":"right","rt":330.59999990463,"correct":true,"confidence":3},{"trial_n":161,"n_dots":2.95,"target":"right","response":"left","rt":1590.7999999523,"correct":false,"confidence":2},{"trial_n":162,"n_dots":3.05,"target":"left","response":"left","rt":2835.0999999046,"correct":true,"confidence":4},{"trial_n":163,"n_dots":3.05,"target":"left","response":"left","rt":365.30000019073,"correct":true,"confidence":2},{"trial_n":164,"n_dots":2.95,"target":"left","response":"left","rt":1058.7999999523,"correct":true,"confidence":5},{"trial_n":165,"n_dots":2.95,"target":"left","response":"left","rt":802.90000009537,"correct":true,"confidence":5},{"trial_n":166,"n_dots":2.85,"target":"right","response":"right","rt":287.09999990463,"correct":true,"confidence":4},{"trial_n":167,"n_dots":2.85,"target":"left","response":"left","rt":354.80000019073,"correct":true,"confidence":5},{"trial_n":168,"n_dots":2.75,"target":"right","response":"right","rt":195.89999985695,"correct":true,"confidence":5},{"trial_n":169,"n_dots":2.75,"target":"right","response":"left","rt":1359.5999999046,"correct":false,"confidence":2},{"trial_n":170,"n_dots":2.85,"target":"right","response":"left","rt":2429.7000000477,"correct":false,"confidence":2},{"trial_n":171,"n_dots":2.95,"target":"left","response":"left","rt":420.5,"correct":true,"confidence":5},{"trial_n":172,"n_dots":2.95,"target":"left","response":"left","rt":1389.9000000954,"correct":true,"confidence":4},{"trial_n":173,"n_dots":2.85,"target":"left","response":"left","rt":506.80000019073,"correct":true,"confidence":4},{"trial_n":174,"n_dots":2.85,"target":"right","response":"right","rt":1942.5,"correct":true,"confidence":1},{"trial_n":175,"n_dots":2.75,"target":"right","response":"left","rt":1189.4000000954,"correct":false,"confidence":3},{"trial_n":176,"n_dots":2.85,"target":"left","response":"left","rt":2410.1000001431,"correct":true,"confidence":3},{"trial_n":177,"n_dots":2.85,"target":"left","response":"left","rt":378.59999990463,"correct":true,"confidence":4},{"trial_n":178,"n_dots":2.75,"target":"right","response":"right","rt":566.20000004768,"correct":true,"confidence":4},{"trial_n":179,"n_dots":2.75,"target":"right","response":"right","rt":441,"correct":true,"confidence":1},{"trial_n":180,"n_dots":2.65,"target":"left","response":"left","rt":1244.7999999523,"correct":true,"confidence":3},{"trial_n":181,"n_dots":2.65,"target":"right","response":"right","rt":811.89999985695,"correct":true,"confidence":2},{"trial_n":182,"n_dots":2.55,"target":"right","response":"right","rt":232.70000004768,"correct":true,"confidence":3},{"trial_n":183,"n_dots":2.55,"target":"right","response":"right","rt":60.900000095367,"correct":true,"confidence":4},{"trial_n":184,"n_dots":2.45,"target":"left","response":"left","rt":3890.8000001907,"correct":true,"confidence":3},{"trial_n":185,"n_dots":2.45,"target":"right","response":"right","rt":2944.2999999523,"correct":true,"confidence":1},{"trial_n":186,"n_dots":2.35,"target":"left","response":"left","rt":899.70000004768,"correct":true,"confidence":3},{"trial_n":187,"n_dots":2.35,"target":"right","response":"right","rt":920.70000004768,"correct":true,"confidence":1},{"trial_n":188,"n_dots":2.25,"target":"left","response":"left","rt":578.20000004768,"correct":true,"confidence":3},{"trial_n":189,"n_dots":2.25,"target":"left","response":"left","rt":478.10000014305,"correct":true,"confidence":3},{"trial_n":190,"n_dots":2.15,"target":"right","response":"right","rt":491,"correct":true,"confidence":1},{"trial_n":191,"n_dots":2.15,"target":"left","response":"left","rt":375.89999985695,"correct":true,"confidence":3},{"trial_n":192,"n_dots":2.05,"target":"right","response":"right","rt":441.20000004768,"correct":true,"confidence":3},{"trial_n":193,"n_dots":2.05,"target":"right","response":"left","rt":664.89999985695,"correct":false,"confidence":2},{"trial_n":194,"n_dots":2.15,"target":"right","response":"left","rt":389.79999995232,"correct":false,"confidence":2}]