[{"trial_n":1,"n_dots":4.25,"target":"right","response":"left","rt":6001.7000000477,"correct":false,"confidence":-1},{"trial_n":2,"n_dots":4.25,"target":"left","response":"left","rt":1022.8999998569,"correct":true,"confidence":-1},{"trial_n":3,"n_dots":4.25,"target":"right","response":"right","rt":390.59999990463,"correct":true,"confidence":-1},{"trial_n":4,"n_dots":3.85,"target":"left","response":"right","rt":415.79999995232,"correct":false,"confidence":-1},{"trial_n":5,"n_dots":4.25,"target":"left","response":"left","rt":487.59999990463,"correct":true,"confidence":-1},{"trial_n":6,"n_dots":4.25,"target":"right","response":"right","rt":327.20000004768,"correct":true,"confidence":-1},{"trial_n":7,"n_dots":3.85,"target":"right","response":"right","rt":634.20000004768,"correct":true,"confidence":-1},{"trial_n":8,"n_dots":3.85,"target":"left","response":"right","rt":579.20000004768,"correct":false,"confidence":-1},{"trial_n":9,"n_dots":4.05,"target":"left","response":"left","rt":391.79999995232,"correct":true,"confidence":-1},{"trial_n":10,"n_dots":4.05,"target":"left","response":"left","rt":340.10000014305,"correct":true,"confidence":-1},{"trial_n":11,"n_dots":3.85,"target":"left","response":"left","rt":484.79999995232,"correct":true,"confidence":-1},{"trial_n":12,"n_dots":3.85,"target":"left","response":"left","rt":292.20000004768,"correct":true,"confidence":-1},{"trial_n":13,"n_dots":3.75,"target":"left","response":"left","rt":337.09999990463,"correct":true,"confidence":-1},{"trial_n":14,"n_dots":3.75,"target":"left","response":"left","rt":310.09999990463,"correct":true,"confidence":-1},{"trial_n":15,"n_dots":3.65,"target":"right","response":"right","rt":286,"correct":true,"confidence":-1},{"trial_n":16,"n_dots":3.65,"target":"right","response":"right","rt":228.70000004768,"correct":true,"confidence":-1},{"trial_n":17,"n_dots":3.55,"target":"right","response":"left","rt":308.79999995232,"correct":false,"confidence":-1},{"trial_n":18,"n_dots":3.65,"target":"right","response":"right","rt":291.39999985695,"correct":true,"confidence":-1},{"trial_n":19,"n_dots":3.65,"target":"left","response":"left","rt":327.5,"correct":true,"confidence":-1},{"trial_n":20,"n_dots":3.55,"target":"left","response":"right","rt":597.29999995232,"correct":false,"confidence":-1},{"trial_n":21,"n_dots":3.65,"target":"right","response":"right","rt":278.70000004768,"correct":true,"confidence":-1},{"trial_n":22,"n_dots":3.65,"target":"left","response":"right","rt":604,"correct":false,"confidence":-1},{"trial_n":23,"n_dots":3.75,"target":"left","response":"left","rt":363.20000004768,"correct":true,"confidence":-1},{"trial_n":24,"n_dots":3.75,"target":"left","response":"right","rt":639.30000019073,"correct":false,"confidence":-1},{"trial_n":25,"n_dots":3.85,"target":"left","response":"left","rt":899.09999990463,"correct":true,"confidence":-1},{"trial_n":26,"n_dots":3.85,"target":"right","response":"right","rt":268,"correct":true,"confidence":-1},{"trial_n":27,"n_dots":3.75,"target":"right","response":"right","rt":444.29999995232,"correct":true,"confidence":6},{"trial_n":28,"n_dots":3.75,"target":"left","response":"right","rt":1054.3000001907,"correct":false,"confidence":4},{"trial_n":29,"n_dots":3.85,"target":"left","response":"left","rt":495.20000004768,"correct":true,"confidence":6},{"trial_n":30,"n_dots":3.85,"target":"left","response":"left","rt":549.90000009537,"correct":true,"confidence":5},{"trial_n":31,"n_dots":3.75,"target":"left","response":"left","rt":555.39999985695,"correct":true,"confidence":5},{"trial_n":32,"n_dots":3.75,"target":"right","response":"right","rt":484.70000004768,"correct":true,"confidence":6},{"trial_n":33,"n_dots":3.65,"target":"right","response":"right","rt":763.70000004768,"correct":true,"confidence":6},{"trial_n":34,"n_dots":3.65,"target":"right","response":"right","rt":507.39999985695,"correct":true,"confidence":5},{"trial_n":35,"n_dots":3.55,"target":"left","response":"left","rt":1083.2999999523,"correct":true,"confidence":2},{"trial_n":36,"n_dots":3.55,"target":"right","response":"right","rt":479.59999990463,"correct":true,"confidence":4},{"trial_n":37,"n_dots":3.45,"target":"left","response":"left","rt":451.30000019073,"correct":true,"confidence":3},{"trial_n":38,"n_dots":3.45,"target":"right","response":"right","rt":505.10000014305,"correct":true,"confidence":4},{"trial_n":39,"n_dots":3.35,"target":"left","response":"left","rt":452.10000014305,"correct":true,"confidence":3},{"trial_n":40,"n_dots":3.35,"target":"left","response":"left","rt":553.60000014305,"correct":true,"confidence":4},{"trial_n":41,"n_dots":3.25,"target":"right","response":"right","rt":454.70000004768,"correct":true,"confidence":5},{"trial_n":42,"n_dots":3.25,"target":"right","response":"right","rt":563.29999995232,"correct":true,"confidence":3},{"trial_n":43,"n_dots":3.15,"target":"left","response":"right","rt":1257.7000000477,"correct":false,"confidence":3},{"trial_n":44,"n_dots":3.25,"target":"right","response":"right","rt":447.5,"correct":true,"confidence":3},{"trial_n":45,"n_dots":3.25,"target":"left","response":"left","rt":612,"correct":true,"confidence":5},{"trial_n":46,"n_dots":3.15,"target":"right","response":"right","rt":642.89999985695,"correct":true,"confidence":5},{"trial_n":47,"n_dots":3.15,"target":"right","response":"right","rt":539.29999995232,"correct":true,"confidence":4},{"trial_n":48,"n_dots":3.05,"target":"left","response":"left","rt":544.70000004768,"correct":true,"confidence":4},{"trial_n":49,"n_dots":3.05,"target":"right","response":"left","rt":802,"correct":false,"confidence":3},{"trial_n":50,"n_dots":3.15,"target":"left","response":"left","rt":567.09999990463,"correct":true,"confidence":3},{"trial_n":51,"n_dots":3.15,"target":"right","response":"right","rt":800.09999990463,"correct":true,"confidence":3},{"trial_n":52,"n_dots":3.05,"target":"right","response":"right","rt":594.10000014305,"correct":true,"confidence":4},{"trial_n":53,"n_dots":3.05,"target":"left","response":"right","rt":566.79999995232,"correct":false,"confidence":4},{"trial_n":54,"n_dots":3.15,"target":"right","response":"right","rt":448.09999990463,"correct":true,"confidence":4},{"trial_n":55,"n_dots":3.15,"target":"right","response":"right","rt":496.60000014305,"correct":true,"confidence":4},{"trial_n":56,"n_dots":3.05,"target":"left","response":"right","rt":555.40000009537,"correct":false,"confidence":4},{"trial_n":57,"n_dots":3.15,"target":"left","response":"right","rt":609.79999995232,"correct":false,"confidence":4},{"trial_n":58,"n_dots":3.25,"target":"right","response":"right","rt":671.29999995232,"correct":true,"confidence":3},{"trial_n":59,"n_dots":3.25,"target":"right","response":"right","rt":1058.2000000477,"correct":true,"confidence":3},{"trial_n":60,"n_dots":3.15,"target":"left","response":"left","rt":490.30000019073,"correct":true,"confidence":5},{"trial_n":61,"n_dots":3.15,"target":"left","response":"left","rt":558.79999995232,"correct":true,"confidence":6},{"trial_n":62,"n_dots":3.05,"target":"left","response":"left","rt":613.70000004768,"correct":true,"confidence":4},{"trial_n":63,"n_dots":3.05,"target":"left","response":"left","rt":535.5,"correct":true,"confidence":6},{"trial_n":64,"n_dots":2.95,"target":"right","response":"right","rt":420.80000019073,"correct":true,"confidence":4},{"trial_n":65,"n_dots":2.95,"target":"right","response":"left","rt":427.10000014305,"correct":false,"confidence":3},{"trial_n":66,"n_dots":3.05,"target":"left","response":"left","rt":397.20000004768,"correct":true,"confidence":3},{"trial_n":67,"n_dots":3.05,"target":"left","response":"left","rt":687.40000009537,"correct":true,"confidence":3},{"trial_n":68,"n_dots":2.95,"target":"left","response":"right","rt":1102.0999999046,"correct":false,"confidence":3},{"trial_n":69,"n_dots":3.05,"target":"left","response":"left","rt":576.60000014305,"correct":true,"confidence":6},{"trial_n":70,"n_dots":3.05,"target":"left","response":"left","rt":517.19999980927,"correct":true,"confidence":4},{"trial_n":71,"n_dots":2.95,"target":"left","response":"right","rt":436.40000009537,"correct":false,"confidence":5},{"trial_n":72,"n_dots":3.05,"target":"left","response":"right","rt":455.10000014305,"correct":false,"confidence":4},{"trial_n":73,"n_dots":3.15,"target":"right","response":"right","rt":292.29999995232,"correct":true,"confidence":4},{"trial_n":74,"n_dots":3.15,"target":"left","response":"right","rt":438.29999995232,"correct":false,"confidence":3},{"trial_n":75,"n_dots":3.25,"target":"left","response":"right","rt":656.10000014305,"correct":false,"confidence":3},{"trial_n":76,"n_dots":3.35,"target":"left","response":"right","rt":783.40000009537,"correct":false,"confidence":3},{"trial_n":77,"n_dots":3.45,"target":"right","response":"right","rt":1051.5,"correct":true,"confidence":5},{"trial_n":78,"n_dots":3.45,"target":"left","response":"right","rt":421.90000009537,"correct":false,"confidence":4},{"trial_n":79,"n_dots":3.55,"target":"right","response":"right","rt":346.79999995232,"correct":true,"confidence":5},{"trial_n":80,"n_dots":3.55,"target":"left","response":"right","rt":390.09999990463,"correct":false,"confidence":5},{"trial_n":81,"n_dots":3.65,"target":"left","response":"left","rt":4308,"correct":true,"confidence":6},{"trial_n":82,"n_dots":3.65,"target":"right","response":"right","rt":267.60000014305,"correct":true,"confidence":6},{"trial_n":83,"n_dots":3.55,"target":"right","response":"right","rt":441.19999980927,"correct":true,"confidence":6},{"trial_n":84,"n_dots":3.55,"target":"right","response":"right","rt":416,"correct":true,"confidence":6},{"trial_n":85,"n_dots":3.45,"target":"right","response":"right","rt":430.90000009537,"correct":true,"confidence":6},{"trial_n":86,"n_dots":3.45,"target":"right","response":"right","rt":317.29999995232,"correct":true,"confidence":6},{"trial_n":87,"n_dots":3.35,"target":"left","response":"left","rt":630.90000009537,"correct":true,"confidence":4},{"trial_n":88,"n_dots":3.35,"target":"left","response":"left","rt":471.70000004768,"correct":true,"confidence":2},{"trial_n":89,"n_dots":3.25,"target":"left","response":"left","rt":539.79999995232,"correct":true,"confidence":1},{"trial_n":90,"n_dots":3.25,"target":"right","response":"right","rt":392,"correct":true,"confidence":5},{"trial_n":91,"n_dots":3.15,"target":"right","response":"right","rt":657.59999990463,"correct":true,"confidence":4},{"trial_n":92,"n_dots":3.15,"target":"left","response":"right","rt":801.39999985695,"correct":false,"confidence":1},{"trial_n":93,"n_dots":3.25,"target":"right","response":"right","rt":361.09999990463,"correct":true,"confidence":5},{"trial_n":94,"n_dots":3.25,"target":"left","response":"left","rt":592.5,"correct":true,"confidence":5},{"trial_n":95,"n_dots":3.15,"target":"left","response":"left","rt":447.29999995232,"correct":true,"confidence":4},{"trial_n":96,"n_dots":3.15,"target":"right","response":"left","rt":652.29999995232,"correct":false,"confidence":4},{"trial_n":97,"n_dots":3.25,"target":"right","response":"right","rt":319.89999985695,"correct":true,"confidence":6},{"trial_n":98,"n_dots":3.25,"target":"left","response":"left","rt":770.29999995232,"correct":true,"confidence":5},{"trial_n":99,"n_dots":3.15,"target":"right","response":"right","rt":975.79999995232,"correct":true,"confidence":3},{"trial_n":100,"n_dots":3.15,"target":"right","response":"right","rt":306.90000009537,"correct":true,"confidence":6},{"trial_n":101,"n_dots":3.05,"target":"right","response":"right","rt":469.89999985695,"correct":true,"confidence":6},{"trial_n":102,"n_dots":3.05,"target":"left","response":"left","rt":410.19999980927,"correct":true,"confidence":4},{"trial_n":103,"n_dots":2.95,"target":"left","response":"left","rt":517.29999995232,"correct":true,"confidence":5},{"trial_n":104,"n_dots":2.95,"target":"right","response":"right","rt":898.69999980927,"correct":true,"confidence":2},{"trial_n":105,"n_dots":2.85,"target":"right","response":"right","rt":478.5,"correct":true,"confidence":5},{"trial_n":106,"n_dots":2.85,"target":"left","response":"left","rt":607.79999995232,"correct":true,"confidence":5},{"trial_n":107,"n_dots":2.75,"target":"left","response":"left","rt":434.59999990463,"correct":true,"confidence":6},{"trial_n":108,"n_dots":2.75,"target":"right","response":"right","rt":659.20000004768,"correct":true,"confidence":2},{"trial_n":109,"n_dots":2.65,"target":"right","response":"right","rt":420.20000004768,"correct":true,"confidence":3},{"trial_n":110,"n_dots":2.65,"target":"right","response":"right","rt":422.19999980927,"correct":true,"confidence":4},{"trial_n":111,"n_dots":2.55,"target":"right","response":"right","rt":550.10000014305,"correct":true,"confidence":3},{"trial_n":112,"n_dots":2.55,"target":"left","response":"right","rt":354.29999995232,"correct":false,"confidence":4},{"trial_n":113,"n_dots":2.65,"target":"right","response":"right","rt":283.59999990463,"correct":true,"confidence":5},{"trial_n":114,"n_dots":2.65,"target":"right","response":"right","rt":412.39999985695,"correct":true,"confidence":4},{"trial_n":115,"n_dots":2.55,"target":"right","response":"right","rt":430.59999990463,"correct":true,"confidence":4},{"trial_n":116,"n_dots":2.55,"target":"left","response":"right","rt":550.59999990463,"correct":false,"confidence":4},{"trial_n":117,"n_dots":2.65,"target":"right","response":"right","rt":418.5,"correct":true,"confidence":5},{"trial_n":118,"n_dots":2.65,"target":"left","response":"right","rt":401.5,"correct":false,"confidence":4},{"trial_n":119,"n_dots":2.75,"target":"left","response":"right","rt":337.69999980927,"correct":false,"confidence":5},{"trial_n":120,"n_dots":2.85,"target":"right","response":"right","rt":521.29999995232,"correct":true,"confidence":4},{"trial_n":121,"n_dots":2.85,"target":"left","response":"right","rt":740,"correct":false,"confidence":5},{"trial_n":122,"n_dots":2.95,"target":"left","response":"left","rt":323.40000009537,"correct":true,"confidence":2},{"trial_n":123,"n_dots":2.95,"target":"left","response":"right","rt":543.59999990463,"correct":false,"confidence":3},{"trial_n":124,"n_dots":3.05,"target":"left","response":"left","rt":411.90000009537,"correct":true,"confidence":5},{"trial_n":125,"n_dots":3.05,"target":"left","response":"left","rt":491.30000019073,"correct":true,"confidence":6},{"trial_n":126,"n_dots":2.95,"target":"left","response":"left","rt":432.70000004768,"correct":true,"confidence":4},{"trial_n":127,"n_dots":2.95,"target":"left","response":"left","rt":578.29999995232,"correct":true,"confidence":5},{"trial_n":128,"n_dots":2.85,"target":"right","response":"left","rt":475,"correct":false,"confidence":3},{"trial_n":129,"n_dots":2.95,"target":"left","response":"right","rt":512.20000004768,"correct":false,"confidence":4},{"trial_n":130,"n_dots":3.05,"target":"right","response":"right","rt":591.70000004768,"correct":true,"confidence":5},{"trial_n":131,"n_dots":3.05,"target":"left","response":"right","rt":735.40000009537,"correct":false,"confidence":4},{"trial_n":132,"n_dots":3.15,"target":"right","response":"right","rt":480.09999990463,"correct":true,"confidence":2},{"trial_n":133,"n_dots":3.15,"target":"left","response":"left","rt":687.60000014305,"correct":true,"confidence":4},{"trial_n":134,"n_dots":3.05,"target":"left","response":"left","rt":455,"correct":true,"confidence":6},{"trial_n":135,"n_dots":3.05,"target":"left","response":"left","rt":514.5,"correct":true,"confidence":2},{"trial_n":136,"n_dots":2.95,"target":"left","response":"right","rt":1428.5999999046,"correct":false,"confidence":1},{"trial_n":137,"n_dots":3.05,"target":"right","response":"right","rt":403.59999990463,"correct":true,"confidence":5},{"trial_n":138,"n_dots":3.05,"target":"left","response":"left","rt":738.79999995232,"correct":true,"confidence":2},{"trial_n":139,"n_dots":2.95,"target":"right","response":"right","rt":370.19999980927,"correct":true,"confidence":5},{"trial_n":140,"n_dots":2.95,"target":"right","response":"left","rt":2451.5,"correct":false,"confidence":1},{"trial_n":141,"n_dots":3.05,"target":"right","response":"right","rt":355.5,"correct":true,"confidence":4},{"trial_n":142,"n_dots":3.05,"target":"right","response":"right","rt":381.29999995232,"correct":true,"confidence":5},{"trial_n":143,"n_dots":2.95,"target":"left","response":"left","rt":549.40000009537,"correct":true,"confidence":5},{"trial_n":144,"n_dots":2.95,"target":"right","response":"right","rt":347.69999980927,"correct":true,"confidence":5},{"trial_n":145,"n_dots":2.85,"target":"left","response":"right","rt":462.39999985695,"correct":false,"confidence":5},{"trial_n":146,"n_dots":2.95,"target":"left","response":"left","rt":581.20000004768,"correct":true,"confidence":5},{"trial_n":147,"n_dots":2.95,"target":"right","response":"right","rt":454.39999985695,"correct":true,"confidence":5},{"trial_n":148,"n_dots":2.85,"target":"left","response":"right","rt":631.20000004768,"correct":false,"confidence":5},{"trial_n":149,"n_dots":2.95,"target":"right","response":"right","rt":592.09999990463,"correct":true,"confidence":5},{"trial_n":150,"n_dots":2.95,"target":"left","response":"left","rt":593.20000004768,"correct":true,"confidence":4},{"trial_n":151,"n_dots":2.85,"target":"right","response":"right","rt":340.20000004768,"correct":true,"confidence":5},{"trial_n":152,"n_dots":2.85,"target":"left","response":"right","rt":937.20000004768,"correct":false,"confidence":3},{"trial_n":153,"n_dots":2.95,"target":"right","response":"right","rt":448.20000004768,"correct":true,"confidence":2},{"trial_n":154,"n_dots":2.95,"target":"right","response":"right","rt":318.70000004768,"correct":true,"confidence":4},{"trial_n":155,"n_dots":2.85,"target":"right","response":"right","rt":922.09999990463,"correct":true,"confidence":3},{"trial_n":156,"n_dots":2.85,"target":"left","response":"right","rt":595.60000014305,"correct":false,"confidence":5},{"trial_n":157,"n_dots":2.95,"target":"left","response":"left","rt":670.40000009537,"correct":true,"confidence":2},{"trial_n":158,"n_dots":2.95,"target":"right","response":"right","rt":289.90000009537,"correct":true,"confidence":5},{"trial_n":159,"n_dots":2.85,"target":"right","response":"right","rt":340.5,"correct":true,"confidence":5},{"trial_n":160,"n_dots":2.85,"target":"right","response":"right","rt":331.20000004768,"correct":true,"confidence":6},{"trial_n":161,"n_dots":2.75,"target":"left","response":"left","rt":411.90000009537,"correct":true,"confidence":4},{"trial_n":162,"n_dots":2.75,"target":"right","response":"right","rt":304.39999985695,"correct":true,"confidence":4},{"trial_n":163,"n_dots":2.65,"target":"right","response":"right","rt":210.89999985695,"correct":true,"confidence":3},{"trial_n":164,"n_dots":2.65,"target":"right","response":"right","rt":518.5,"correct":true,"confidence":3},{"trial_n":165,"n_dots":2.55,"target":"right","response":"right","rt":375.29999995232,"correct":true,"confidence":4},{"trial_n":166,"n_dots":2.55,"target":"left","response":"right","rt":348.40000009537,"correct":false,"confidence":4},{"trial_n":167,"n_dots":2.65,"target":"right","response":"right","rt":537.20000004768,"correct":true,"confidence":3},{"trial_n":168,"n_dots":2.65,"target":"right","response":"right","rt":512.19999980927,"correct":true,"confidence":4},{"trial_n":169,"n_dots":2.55,"target":"right","response":"right","rt":399.29999995232,"correct":true,"confidence":4},{"trial_n":170,"n_dots":2.55,"target":"right","response":"right","rt":325.5,"correct":true,"confidence":4},{"trial_n":171,"n_dots":2.45,"target":"right","response":"right","rt":422.70000004768,"correct":true,"confidence":3},{"trial_n":172,"n_dots":2.45,"target":"right","response":"right","rt":401.09999990463,"correct":true,"confidence":2},{"trial_n":173,"n_dots":2.35,"target":"right","response":"right","rt":399.89999985695,"correct":true,"confidence":3},{"trial_n":174,"n_dots":2.35,"target":"right","response":"right","rt":351.19999980927,"correct":true,"confidence":4},{"trial_n":175,"n_dots":2.25,"target":"left","response":"left","rt":664.69999980927,"correct":true,"confidence":4},{"trial_n":176,"n_dots":2.25,"target":"right","response":"right","rt":470.69999980927,"correct":true,"confidence":4},{"trial_n":177,"n_dots":2.15,"target":"left","response":"right","rt":465.79999995232,"correct":false,"confidence":5},{"trial_n":178,"n_dots":2.25,"target":"left","response":"right","rt":403.09999990463,"correct":false,"confidence":5},{"trial_n":179,"n_dots":2.35,"target":"right","response":"right","rt":352,"correct":true,"confidence":5},{"trial_n":180,"n_dots":2.35,"target":"left","response":"right","rt":538.19999980927,"correct":false,"confidence":2},{"trial_n":181,"n_dots":2.45,"target":"right","response":"right","rt":594.79999995232,"correct":true,"confidence":4},{"trial_n":182,"n_dots":2.45,"target":"right","response":"right","rt":407.90000009537,"correct":true,"confidence":4},{"trial_n":183,"n_dots":2.35,"target":"right","response":"right","rt":361.70000004768,"correct":true,"confidence":4},{"trial_n":184,"n_dots":2.35,"target":"left","response":"right","rt":717.79999995232,"correct":false,"confidence":2},{"trial_n":185,"n_dots":2.45,"target":"right","response":"right","rt":337.70000004768,"correct":true,"confidence":4},{"trial_n":186,"n_dots":2.45,"target":"right","response":"right","rt":387.5,"correct":true,"confidence":4},{"trial_n":187,"n_dots":2.35,"target":"left","response":"right","rt":286.40000009537,"correct":false,"confidence":5},{"trial_n":188,"n_dots":2.45,"target":"left","response":"left","rt":320.69999980927,"correct":true,"confidence":5},{"trial_n":189,"n_dots":2.45,"target":"left","response":"right","rt":367,"correct":false,"confidence":3},{"trial_n":190,"n_dots":2.55,"target":"right","response":"left","rt":664.39999985695,"correct":false,"confidence":3},{"trial_n":191,"n_dots":2.65,"target":"right","response":"right","rt":356.59999990463,"correct":true,"confidence":4},{"trial_n":192,"n_dots":2.65,"target":"left","response":"right","rt":371.79999995232,"correct":false,"confidence":5},{"trial_n":193,"n_dots":2.75,"target":"left","response":"left","rt":375.30000019073,"correct":true,"confidence":5},{"trial_n":194,"n_dots":2.75,"target":"right","response":"right","rt":400.29999995232,"correct":true,"confidence":5}]