[{"trial_n":1,"n_dots":4.25,"target":"right","response":"right","rt":1615.6000000015,"correct":true,"confidence":-1},{"trial_n":2,"n_dots":4.25,"target":"left","response":"left","rt":587.5,"correct":true,"confidence":-1},{"trial_n":3,"n_dots":3.85,"target":"right","response":"right","rt":493.09999999404,"correct":true,"confidence":-1},{"trial_n":4,"n_dots":3.85,"target":"left","response":"left","rt":573.70000000298,"correct":true,"confidence":-1},{"trial_n":5,"n_dots":3.45,"target":"left","response":"left","rt":489.39999999851,"correct":true,"confidence":-1},{"trial_n":6,"n_dots":3.45,"target":"right","response":"right","rt":503,"correct":true,"confidence":-1},{"trial_n":7,"n_dots":3.05,"target":"left","response":"left","rt":534.5,"correct":true,"confidence":-1},{"trial_n":8,"n_dots":3.05,"target":"right","response":"right","rt":530.5,"correct":true,"confidence":-1},{"trial_n":9,"n_dots":2.85,"target":"right","response":"right","rt":401.5,"correct":true,"confidence":-1},{"trial_n":10,"n_dots":2.85,"target":"left","response":"left","rt":444,"correct":true,"confidence":-1},{"trial_n":11,"n_dots":2.65,"target":"right","response":"right","rt":419.79999999702,"correct":true,"confidence":-1},{"trial_n":12,"n_dots":2.65,"target":"right","response":"right","rt":514.60000000149,"correct":true,"confidence":-1},{"trial_n":13,"n_dots":2.55,"target":"right","response":"right","rt":580,"correct":true,"confidence":-1},{"trial_n":14,"n_dots":2.55,"target":"right","response":"right","rt":489.19999999553,"correct":true,"confidence":-1},{"trial_n":15,"n_dots":2.45,"target":"right","response":"right","rt":569,"correct":true,"confidence":-1},{"trial_n":16,"n_dots":2.45,"target":"right","response":"right","rt":688.60000000149,"correct":true,"confidence":-1},{"trial_n":17,"n_dots":2.35,"target":"left","response":"left","rt":1009.900000006,"correct":true,"confidence":-1},{"trial_n":18,"n_dots":2.35,"target":"left","response":"right","rt":750.60000000149,"correct":false,"confidence":-1},{"trial_n":19,"n_dots":2.45,"target":"right","response":"right","rt":382.5,"correct":true,"confidence":-1},{"trial_n":20,"n_dots":2.45,"target":"right","response":"left","rt":747.5,"correct":false,"confidence":-1},{"trial_n":21,"n_dots":2.55,"target":"right","response":"right","rt":522.70000000298,"correct":true,"confidence":-1},{"trial_n":22,"n_dots":2.55,"target":"left","response":"right","rt":491.79999999702,"correct":false,"confidence":-1},{"trial_n":23,"n_dots":2.65,"target":"right","response":"right","rt":479,"correct":true,"confidence":-1},{"trial_n":24,"n_dots":2.65,"target":"left","response":"left","rt":557.60000000149,"correct":true,"confidence":-1},{"trial_n":25,"n_dots":2.55,"target":"left","response":"left","rt":526.29999999702,"correct":true,"confidence":-1},{"trial_n":26,"n_dots":2.55,"target":"left","response":"right","rt":749,"correct":false,"confidence":-1},{"trial_n":27,"n_dots":2.65,"target":"right","response":"right","rt":622.70000000298,"correct":true,"confidence":2},{"trial_n":28,"n_dots":2.65,"target":"left","response":"right","rt":440.10000000149,"correct":false,"confidence":2},{"trial_n":29,"n_dots":2.75,"target":"left","response":"right","rt":492.29999999702,"correct":false,"confidence":2},{"trial_n":30,"n_dots":2.85,"target":"right","response":"right","rt":924.80000000447,"correct":true,"confidence":2},{"trial_n":31,"n_dots":2.85,"target":"left","response":"right","rt":1375.299999997,"correct":false,"confidence":2},{"trial_n":32,"n_dots":2.95,"target":"right","response":"left","rt":758.20000000298,"correct":false,"confidence":2},{"trial_n":33,"n_dots":3.05,"target":"right","response":"left","rt":1542.5,"correct":false,"confidence":2},{"trial_n":34,"n_dots":3.15,"target":"left","response":"left","rt":640.5,"correct":true,"confidence":3},{"trial_n":35,"n_dots":3.15,"target":"right","response":"right","rt":64944.099999994,"correct":true,"confidence":1},{"trial_n":36,"n_dots":3.05,"target":"left","response":"right","rt":2165,"correct":false,"confidence":1},{"trial_n":37,"n_dots":3.15,"target":"right","response":"right","rt":661,"correct":true,"confidence":3},{"trial_n":38,"n_dots":3.15,"target":"left","response":"left","rt":498.70000000298,"correct":true,"confidence":2},{"trial_n":39,"n_dots":3.05,"target":"left","response":"right","rt":2566.3999999985,"correct":false,"confidence":1},{"trial_n":40,"n_dots":3.15,"target":"left","response":"right","rt":735.89999999851,"correct":false,"confidence":2},{"trial_n":41,"n_dots":3.25,"target":"right","response":"right","rt":665.39999999851,"correct":true,"confidence":2},{"trial_n":42,"n_dots":3.25,"target":"left","response":"left","rt":859.10000000149,"correct":true,"confidence":2},{"trial_n":43,"n_dots":3.15,"target":"left","response":"right","rt":1318.1999999955,"correct":false,"confidence":2},{"trial_n":44,"n_dots":3.25,"target":"right","response":"right","rt":661.89999999851,"correct":true,"confidence":2},{"trial_n":45,"n_dots":3.25,"target":"left","response":"left","rt":1388.799999997,"correct":true,"confidence":2},{"trial_n":46,"n_dots":3.15,"target":"left","response":"right","rt":734.5,"correct":false,"confidence":3},{"trial_n":47,"n_dots":3.25,"target":"left","response":"right","rt":2974.5,"correct":false,"confidence":2},{"trial_n":48,"n_dots":3.35,"target":"left","response":"right","rt":1249.6000000015,"correct":false,"confidence":3},{"trial_n":49,"n_dots":3.45,"target":"left","response":"left","rt":1309.6999999955,"correct":true,"confidence":1},{"trial_n":50,"n_dots":3.45,"target":"right","response":"right","rt":514,"correct":true,"confidence":3},{"trial_n":51,"n_dots":3.35,"target":"left","response":"right","rt":767,"correct":false,"confidence":3},{"trial_n":52,"n_dots":3.45,"target":"right","response":"right","rt":782.39999999851,"correct":true,"confidence":4},{"trial_n":53,"n_dots":3.45,"target":"left","response":"left","rt":675.69999999553,"correct":true,"confidence":2},{"trial_n":54,"n_dots":3.35,"target":"right","response":"right","rt":638.69999999553,"correct":true,"confidence":3},{"trial_n":55,"n_dots":3.35,"target":"left","response":"right","rt":1016.1000000015,"correct":false,"confidence":1},{"trial_n":56,"n_dots":3.45,"target":"left","response":"left","rt":593.29999999702,"correct":true,"confidence":4},{"trial_n":57,"n_dots":3.45,"target":"left","response":"right","rt":580.80000000447,"correct":false,"confidence":3},{"trial_n":58,"n_dots":3.55,"target":"right","response":"right","rt":536,"correct":true,"confidence":3},{"trial_n":59,"n_dots":3.55,"target":"right","response":"right","rt":519.89999999851,"correct":true,"confidence":4},{"trial_n":60,"n_dots":3.45,"target":"left","response":"left","rt":627,"correct":true,"confidence":2},{"trial_n":61,"n_dots":3.45,"target":"left","response":"left","rt":1079.700000003,"correct":true,"confidence":1},{"trial_n":62,"n_dots":3.35,"target":"left","response":"left","rt":668.70000000298,"correct":true,"confidence":2},{"trial_n":63,"n_dots":3.35,"target":"right","response":"right","rt":503.30000000447,"correct":true,"confidence":3},{"trial_n":64,"n_dots":3.25,"target":"left","response":"left","rt":435.20000000298,"correct":true,"confidence":3},{"trial_n":65,"n_dots":3.25,"target":"right","response":"right","rt":754,"correct":true,"confidence":4},{"trial_n":66,"n_dots":3.15,"target":"right","response":"right","rt":803.39999999851,"correct":true,"confidence":3},{"trial_n":67,"n_dots":3.15,"target":"left","response":"left","rt":995.40000000596,"correct":true,"confidence":4},{"trial_n":68,"n_dots":3.05,"target":"right","response":"right","rt":601.5,"correct":true,"confidence":4},{"trial_n":69,"n_dots":3.05,"target":"right","response":"right","rt":510.59999999404,"correct":true,"confidence":4},{"trial_n":70,"n_dots":2.95,"target":"right","response":"right","rt":456.10000000149,"correct":true,"confidence":4},{"trial_n":71,"n_dots":2.95,"target":"right","response":"right","rt":466.30000000447,"correct":true,"confidence":3},{"trial_n":72,"n_dots":2.85,"target":"right","response":"left","rt":600.19999999553,"correct":false,"confidence":4},{"trial_n":73,"n_dots":2.95,"target":"left","response":"left","rt":570.39999999851,"correct":true,"confidence":2},{"trial_n":74,"n_dots":2.95,"target":"right","response":"right","rt":459.5,"correct":true,"confidence":3},{"trial_n":75,"n_dots":2.85,"target":"right","response":"right","rt":640.5,"correct":true,"confidence":4},{"trial_n":76,"n_dots":2.85,"target":"left","response":"right","rt":492.90000000596,"correct":false,"confidence":3},{"trial_n":77,"n_dots":2.95,"target":"right","response":"right","rt":505.39999999851,"correct":true,"confidence":4},{"trial_n":78,"n_dots":2.95,"target":"right","response":"right","rt":973.70000000298,"correct":true,"confidence":4},{"trial_n":79,"n_dots":2.85,"target":"left","response":"right","rt":611.09999999404,"correct":false,"confidence":3},{"trial_n":80,"n_dots":2.95,"target":"left","response":"left","rt":1447.700000003,"correct":true,"confidence":2},{"trial_n":81,"n_dots":2.95,"target":"right","response":"right","rt":414.20000000298,"correct":true,"confidence":4},{"trial_n":82,"n_dots":2.85,"target":"right","response":"right","rt":394.60000000149,"correct":true,"confidence":3},{"trial_n":83,"n_dots":2.85,"target":"left","response":"left","rt":632.39999999851,"correct":true,"confidence":2},{"trial_n":84,"n_dots":2.75,"target":"left","response":"left","rt":2348.6000000015,"correct":true,"confidence":1},{"trial_n":85,"n_dots":2.75,"target":"left","response":"left","rt":592.69999999553,"correct":true,"confidence":4},{"trial_n":86,"n_dots":2.65,"target":"right","response":"right","rt":631.20000000298,"correct":true,"confidence":3},{"trial_n":87,"n_dots":2.65,"target":"right","response":"right","rt":613.29999999702,"correct":true,"confidence":2},{"trial_n":88,"n_dots":2.55,"target":"left","response":"left","rt":576.39999999851,"correct":true,"confidence":2},{"trial_n":89,"n_dots":2.55,"target":"left","response":"left","rt":649.79999999702,"correct":true,"confidence":2},{"trial_n":90,"n_dots":2.45,"target":"left","response":"left","rt":582.89999999851,"correct":true,"confidence":3},{"trial_n":91,"n_dots":2.45,"target":"left","response":"right","rt":542.39999999851,"correct":false,"confidence":3},{"trial_n":92,"n_dots":2.55,"target":"left","response":"right","rt":812.39999999851,"correct":false,"confidence":4},{"trial_n":93,"n_dots":2.65,"target":"right","response":"right","rt":707.10000000149,"correct":true,"confidence":3},{"trial_n":94,"n_dots":2.65,"target":"right","response":"right","rt":631.40000000596,"correct":true,"confidence":2},{"trial_n":95,"n_dots":2.55,"target":"left","response":"right","rt":591.10000000149,"correct":false,"confidence":3},{"trial_n":96,"n_dots":2.65,"target":"right","response":"right","rt":676.79999999702,"correct":true,"confidence":2},{"trial_n":97,"n_dots":2.65,"target":"right","response":"right","rt":622.29999999702,"correct":true,"confidence":2},{"trial_n":98,"n_dots":2.55,"target":"right","response":"right","rt":546.10000000149,"correct":true,"confidence":3},{"trial_n":99,"n_dots":2.55,"target":"left","response":"right","rt":597.5,"correct":false,"confidence":2},{"trial_n":100,"n_dots":2.65,"target":"left","response":"right","rt":590.79999999702,"correct":false,"confidence":2},{"trial_n":101,"n_dots":2.75,"target":"left","response":"left","rt":887.80000000447,"correct":true,"confidence":1},{"trial_n":102,"n_dots":2.75,"target":"right","response":"right","rt":658.10000000149,"correct":true,"confidence":1},{"trial_n":103,"n_dots":2.65,"target":"left","response":"right","rt":727.80000000447,"correct":false,"confidence":1},{"trial_n":104,"n_dots":2.75,"target":"right","response":"right","rt":858.39999999851,"correct":true,"confidence":3},{"trial_n":105,"n_dots":2.75,"target":"left","response":"left","rt":1535.3000000045,"correct":true,"confidence":3},{"trial_n":106,"n_dots":2.65,"target":"right","response":"right","rt":1049.6000000015,"correct":true,"confidence":1},{"trial_n":107,"n_dots":2.65,"target":"right","response":"left","rt":663,"correct":false,"confidence":2},{"trial_n":108,"n_dots":2.75,"target":"right","response":"left","rt":631.79999999702,"correct":false,"confidence":2},{"trial_n":109,"n_dots":2.85,"target":"left","response":"left","rt":702,"correct":true,"confidence":3},{"trial_n":110,"n_dots":2.85,"target":"left","response":"left","rt":670.60000000149,"correct":true,"confidence":2},{"trial_n":111,"n_dots":2.75,"target":"left","response":"right","rt":721.39999999851,"correct":false,"confidence":1},{"trial_n":112,"n_dots":2.85,"target":"right","response":"left","rt":1090.1000000015,"correct":false,"confidence":1},{"trial_n":113,"n_dots":2.95,"target":"right","response":"right","rt":886.89999999851,"correct":true,"confidence":2},{"trial_n":114,"n_dots":2.95,"target":"right","response":"right","rt":656.80000000447,"correct":true,"confidence":3},{"trial_n":115,"n_dots":2.85,"target":"right","response":"right","rt":654.60000000149,"correct":true,"confidence":2},{"trial_n":116,"n_dots":2.85,"target":"left","response":"left","rt":622.60000000149,"correct":true,"confidence":2},{"trial_n":117,"n_dots":2.75,"target":"left","response":"right","rt":611.70000000298,"correct":false,"confidence":3},{"trial_n":118,"n_dots":2.85,"target":"left","response":"left","rt":561.10000000149,"correct":true,"confidence":4},{"trial_n":119,"n_dots":2.85,"target":"right","response":"right","rt":1136.5,"correct":true,"confidence":2},{"trial_n":120,"n_dots":2.75,"target":"left","response":"left","rt":527.5,"correct":true,"confidence":3},{"trial_n":121,"n_dots":2.75,"target":"right","response":"right","rt":740.89999999851,"correct":true,"confidence":3},{"trial_n":122,"n_dots":2.65,"target":"left","response":"left","rt":521.29999999702,"correct":true,"confidence":2},{"trial_n":123,"n_dots":2.65,"target":"left","response":"right","rt":820.79999999702,"correct":false,"confidence":4},{"trial_n":124,"n_dots":2.75,"target":"right","response":"left","rt":688.5,"correct":false,"confidence":2},{"trial_n":125,"n_dots":2.85,"target":"right","response":"right","rt":670,"correct":true,"confidence":2},{"trial_n":126,"n_dots":2.85,"target":"left","response":"left","rt":764.80000000447,"correct":true,"confidence":2},{"trial_n":127,"n_dots":2.75,"target":"right","response":"right","rt":564.60000000149,"correct":true,"confidence":1},{"trial_n":128,"n_dots":2.75,"target":"left","response":"left","rt":600.5,"correct":true,"confidence":2},{"trial_n":129,"n_dots":2.65,"target":"left","response":"right","rt":826.79999999702,"correct":false,"confidence":3},{"trial_n":130,"n_dots":2.75,"target":"right","response":"left","rt":1407.6999999955,"correct":false,"confidence":1},{"trial_n":131,"n_dots":2.85,"target":"right","response":"right","rt":891.39999999851,"correct":true,"confidence":1},{"trial_n":132,"n_dots":2.85,"target":"right","response":"right","rt":769.20000000298,"correct":true,"confidence":2},{"trial_n":133,"n_dots":2.75,"target":"left","response":"left","rt":1765.8999999985,"correct":true,"confidence":1},{"trial_n":134,"n_dots":2.75,"target":"left","response":"left","rt":644.20000000298,"correct":true,"confidence":1},{"trial_n":135,"n_dots":2.65,"target":"left","response":"left","rt":509.80000000447,"correct":true,"confidence":3},{"trial_n":136,"n_dots":2.65,"target":"right","response":"left","rt":1510.299999997,"correct":false,"confidence":2},{"trial_n":137,"n_dots":2.75,"target":"left","response":"right","rt":836,"correct":false,"confidence":2},{"trial_n":138,"n_dots":2.85,"target":"right","response":"right","rt":662.30000000447,"correct":true,"confidence":3},{"trial_n":139,"n_dots":2.85,"target":"right","response":"right","rt":547.39999999851,"correct":true,"confidence":2},{"trial_n":140,"n_dots":2.75,"target":"right","response":"right","rt":78610.5,"correct":true,"confidence":1},{"trial_n":141,"n_dots":2.75,"target":"right","response":"left","rt":567.30000000447,"correct":false,"confidence":1},{"trial_n":142,"n_dots":2.85,"target":"right","response":"right","rt":406.10000000149,"correct":true,"confidence":4},{"trial_n":143,"n_dots":2.85,"target":"right","response":"right","rt":396.5,"correct":true,"confidence":2},{"trial_n":144,"n_dots":2.75,"target":"left","response":"left","rt":349.70000000298,"correct":true,"confidence":4},{"trial_n":145,"n_dots":2.75,"target":"right","response":"left","rt":416.69999999553,"correct":false,"confidence":3},{"trial_n":146,"n_dots":2.85,"target":"right","response":"right","rt":385.89999999851,"correct":true,"confidence":3},{"trial_n":147,"n_dots":2.85,"target":"right","response":"left","rt":452.89999999851,"correct":false,"confidence":4},{"trial_n":148,"n_dots":2.95,"target":"left","response":"right","rt":590,"correct":false,"confidence":4},{"trial_n":149,"n_dots":3.05,"target":"left","response":"left","rt":400.80000000447,"correct":true,"confidence":4},{"trial_n":150,"n_dots":3.05,"target":"left","response":"left","rt":531.79999999702,"correct":true,"confidence":2},{"trial_n":151,"n_dots":2.95,"target":"left","response":"right","rt":604.79999999702,"correct":false,"confidence":3},{"trial_n":152,"n_dots":3.05,"target":"left","response":"left","rt":566.60000000149,"correct":true,"confidence":4},{"trial_n":153,"n_dots":3.05,"target":"right","response":"right","rt":501.79999999702,"correct":true,"confidence":4},{"trial_n":154,"n_dots":2.95,"target":"left","response":"left","rt":302.5,"correct":true,"confidence":5},{"trial_n":155,"n_dots":2.95,"target":"right","response":"left","rt":672.5,"correct":false,"confidence":3},{"trial_n":156,"n_dots":3.05,"target":"right","response":"right","rt":452.90000000596,"correct":true,"confidence":4},{"trial_n":157,"n_dots":3.05,"target":"right","response":"right","rt":366.89999999851,"correct":true,"confidence":5},{"trial_n":158,"n_dots":2.95,"target":"left","response":"right","rt":528.30000000447,"correct":false,"confidence":3},{"trial_n":159,"n_dots":3.05,"target":"right","response":"right","rt":425.29999999702,"correct":true,"confidence":4},{"trial_n":160,"n_dots":3.05,"target":"left","response":"left","rt":661.29999999702,"correct":true,"confidence":3},{"trial_n":161,"n_dots":2.95,"target":"right","response":"right","rt":354.69999999553,"correct":true,"confidence":4},{"trial_n":162,"n_dots":2.95,"target":"left","response":"left","rt":452.89999999851,"correct":true,"confidence":4},{"trial_n":163,"n_dots":2.85,"target":"right","response":"right","rt":409.80000000447,"correct":true,"confidence":4},{"trial_n":164,"n_dots":2.85,"target":"right","response":"right","rt":385.89999999851,"correct":true,"confidence":4},{"trial_n":165,"n_dots":2.75,"target":"left","response":"left","rt":1366.5,"correct":true,"confidence":2},{"trial_n":166,"n_dots":2.75,"target":"left","response":"left","rt":466.39999999851,"correct":true,"confidence":4},{"trial_n":167,"n_dots":2.65,"target":"left","response":"right","rt":577.60000000149,"correct":false,"confidence":3},{"trial_n":168,"n_dots":2.75,"target":"right","response":"right","rt":512.60000000149,"correct":true,"confidence":4},{"trial_n":169,"n_dots":2.75,"target":"right","response":"right","rt":299.39999999851,"correct":true,"confidence":4},{"trial_n":170,"n_dots":2.65,"target":"left","response":"right","rt":714.20000000298,"correct":false,"confidence":2},{"trial_n":171,"n_dots":2.75,"target":"right","response":"left","rt":1416.8999999985,"correct":false,"confidence":1},{"trial_n":172,"n_dots":2.85,"target":"left","response":"right","rt":951.5,"correct":false,"confidence":2},{"trial_n":173,"n_dots":2.95,"target":"right","response":"right","rt":550.40000000596,"correct":true,"confidence":3},{"trial_n":174,"n_dots":2.95,"target":"right","response":"right","rt":597.20000000298,"correct":true,"confidence":4},{"trial_n":175,"n_dots":2.85,"target":"right","response":"right","rt":405.39999999851,"correct":true,"confidence":4},{"trial_n":176,"n_dots":2.85,"target":"right","response":"right","rt":491.89999999851,"correct":true,"confidence":3},{"trial_n":177,"n_dots":2.75,"target":"left","response":"left","rt":746.39999999851,"correct":true,"confidence":2},{"trial_n":178,"n_dots":2.75,"target":"left","response":"right","rt":488.20000000298,"correct":false,"confidence":4},{"trial_n":179,"n_dots":2.85,"target":"left","response":"right","rt":848.89999999851,"correct":false,"confidence":3},{"trial_n":180,"n_dots":2.95,"target":"left","response":"left","rt":654.70000000298,"correct":true,"confidence":5},{"trial_n":181,"n_dots":2.95,"target":"left","response":"right","rt":429.80000000447,"correct":false,"confidence":4},{"trial_n":182,"n_dots":3.05,"target":"left","response":"left","rt":397,"correct":true,"confidence":3},{"trial_n":183,"n_dots":3.05,"target":"left","response":"left","rt":431.59999999404,"correct":true,"confidence":4},{"trial_n":184,"n_dots":2.95,"target":"left","response":"left","rt":608.39999999851,"correct":true,"confidence":4},{"trial_n":185,"n_dots":2.95,"target":"right","response":"right","rt":587.70000000298,"correct":true,"confidence":4},{"trial_n":186,"n_dots":2.85,"target":"right","response":"right","rt":569.60000000149,"correct":true,"confidence":3},{"trial_n":187,"n_dots":2.85,"target":"left","response":"left","rt":564,"correct":true,"confidence":4},{"trial_n":188,"n_dots":2.75,"target":"left","response":"right","rt":1255.1000000015,"correct":false,"confidence":3},{"trial_n":189,"n_dots":2.85,"target":"right","response":"right","rt":418,"correct":true,"confidence":4},{"trial_n":190,"n_dots":2.85,"target":"left","response":"right","rt":617.29999999702,"correct":false,"confidence":3},{"trial_n":191,"n_dots":2.95,"target":"left","response":"left","rt":1029.8999999985,"correct":true,"confidence":2},{"trial_n":192,"n_dots":2.95,"target":"right","response":"right","rt":477.60000000149,"correct":true,"confidence":2},{"trial_n":193,"n_dots":2.85,"target":"right","response":"right","rt":558.09999999404,"correct":true,"confidence":1},{"trial_n":194,"n_dots":2.85,"target":"right","response":"right","rt":597.09999999404,"correct":true,"confidence":3}]