[{"trial_n":1,"n_dots":4.25,"target":"right","response":"right","rt":813,"correct":true,"confidence":-1},{"trial_n":2,"n_dots":4.25,"target":"left","response":"right","rt":2023.6999999993,"correct":false,"confidence":-1},{"trial_n":3,"n_dots":4.65,"target":"right","response":"right","rt":52,"correct":true,"confidence":-1},{"trial_n":4,"n_dots":4.65,"target":"right","response":"right","rt":49.5,"correct":true,"confidence":-1},{"trial_n":5,"n_dots":4.25,"target":"left","response":"left","rt":115.70000000112,"correct":true,"confidence":-1},{"trial_n":6,"n_dots":4.25,"target":"right","response":"right","rt":36.099999999627,"correct":true,"confidence":-1},{"trial_n":7,"n_dots":3.85,"target":"right","response":"right","rt":11.199999999255,"correct":true,"confidence":-1},{"trial_n":8,"n_dots":3.85,"target":"left","response":"left","rt":184,"correct":true,"confidence":-1},{"trial_n":9,"n_dots":3.65,"target":"right","response":"right","rt":328.30000000075,"correct":true,"confidence":-1},{"trial_n":10,"n_dots":3.65,"target":"left","response":"left","rt":234.90000000037,"correct":true,"confidence":-1},{"trial_n":11,"n_dots":3.45,"target":"left","response":"right","rt":316.29999999888,"correct":false,"confidence":-1},{"trial_n":12,"n_dots":3.65,"target":"left","response":"right","rt":632.09999999963,"correct":false,"confidence":-1},{"trial_n":13,"n_dots":3.75,"target":"right","response":"right","rt":26.599999999627,"correct":true,"confidence":-1},{"trial_n":14,"n_dots":3.75,"target":"left","response":"left","rt":364.29999999888,"correct":true,"confidence":-1},{"trial_n":15,"n_dots":3.65,"target":"left","response":"left","rt":183.69999999925,"correct":true,"confidence":-1},{"trial_n":16,"n_dots":3.65,"target":"left","response":"left","rt":38.799999998882,"correct":true,"confidence":-1},{"trial_n":17,"n_dots":3.55,"target":"right","response":"left","rt":847.69999999925,"correct":false,"confidence":-1},{"trial_n":18,"n_dots":3.65,"target":"right","response":"right","rt":36.700000001118,"correct":true,"confidence":-1},{"trial_n":19,"n_dots":3.65,"target":"right","response":"left","rt":352.59999999963,"correct":false,"confidence":-1},{"trial_n":20,"n_dots":3.75,"target":"left","response":"left","rt":309,"correct":true,"confidence":-1},{"trial_n":21,"n_dots":3.75,"target":"left","response":"left","rt":503.20000000112,"correct":true,"confidence":-1},{"trial_n":22,"n_dots":3.65,"target":"left","response":"left","rt":720,"correct":true,"confidence":-1},{"trial_n":23,"n_dots":3.65,"target":"left","response":"left","rt":292.5,"correct":true,"confidence":-1},{"trial_n":24,"n_dots":3.55,"target":"right","response":"right","rt":583.30000000075,"correct":true,"confidence":-1},{"trial_n":25,"n_dots":3.55,"target":"right","response":"right","rt":235.30000000075,"correct":true,"confidence":-1},{"trial_n":26,"n_dots":3.45,"target":"right","response":"right","rt":749.80000000075,"correct":true,"confidence":-1},{"trial_n":27,"n_dots":3.45,"target":"right","response":"left","rt":16028.4,"correct":false,"confidence":3},{"trial_n":28,"n_dots":3.55,"target":"left","response":"left","rt":2620.5,"correct":true,"confidence":3},{"trial_n":29,"n_dots":3.55,"target":"left","response":"right","rt":2909.7000000011,"correct":false,"confidence":3},{"trial_n":30,"n_dots":3.65,"target":"right","response":"right","rt":2631.5,"correct":true,"confidence":4},{"trial_n":31,"n_dots":3.65,"target":"right","response":"right","rt":2040,"correct":true,"confidence":4},{"trial_n":32,"n_dots":3.55,"target":"right","response":"right","rt":2081.5,"correct":true,"confidence":3},{"trial_n":33,"n_dots":3.55,"target":"right","response":"right","rt":1926.3000000007,"correct":true,"confidence":3},{"trial_n":34,"n_dots":3.45,"target":"left","response":"left","rt":1662,"correct":true,"confidence":3},{"trial_n":35,"n_dots":3.45,"target":"right","response":"right","rt":1305.9000000004,"correct":true,"confidence":4},{"trial_n":36,"n_dots":3.35,"target":"right","response":"left","rt":1273.3000000007,"correct":false,"confidence":3},{"trial_n":37,"n_dots":3.45,"target":"right","response":"right","rt":3665.5,"correct":true,"confidence":3},{"trial_n":38,"n_dots":3.45,"target":"left","response":"left","rt":1739.5999999996,"correct":true,"confidence":4},{"trial_n":39,"n_dots":3.35,"target":"left","response":"right","rt":1461.5,"correct":false,"confidence":3},{"trial_n":40,"n_dots":3.45,"target":"left","response":"left","rt":1112.2999999989,"correct":true,"confidence":3},{"trial_n":41,"n_dots":3.45,"target":"right","response":"right","rt":1568.4000000004,"correct":true,"confidence":4},{"trial_n":42,"n_dots":3.35,"target":"left","response":"left","rt":1081.9000000004,"correct":true,"confidence":4},{"trial_n":43,"n_dots":3.35,"target":"right","response":"left","rt":1258.2999999989,"correct":false,"confidence":3},{"trial_n":44,"n_dots":3.45,"target":"right","response":"right","rt":1586.5,"correct":true,"confidence":3},{"trial_n":45,"n_dots":3.45,"target":"left","response":"left","rt":3418.9000000004,"correct":true,"confidence":3},{"trial_n":46,"n_dots":3.35,"target":"right","response":"right","rt":1315.3000000007,"correct":true,"confidence":3},{"trial_n":47,"n_dots":3.35,"target":"right","response":"left","rt":1427.5999999996,"correct":false,"confidence":3},{"trial_n":48,"n_dots":3.45,"target":"right","response":"right","rt":1368.1999999993,"correct":true,"confidence":3},{"trial_n":49,"n_dots":3.45,"target":"right","response":"right","rt":1280.1999999993,"correct":true,"confidence":3},{"trial_n":50,"n_dots":3.35,"target":"left","response":"left","rt":1400.4000000004,"correct":true,"confidence":3},{"trial_n":51,"n_dots":3.35,"target":"left","response":"left","rt":1419.3000000007,"correct":true,"confidence":3},{"trial_n":52,"n_dots":3.25,"target":"left","response":"left","rt":1279.3000000007,"correct":true,"confidence":3},{"trial_n":53,"n_dots":3.25,"target":"left","response":"right","rt":2834.7000000011,"correct":false,"confidence":3},{"trial_n":54,"n_dots":3.35,"target":"left","response":"left","rt":4803.5,"correct":true,"confidence":3},{"trial_n":55,"n_dots":3.35,"target":"right","response":"left","rt":54328,"correct":false,"confidence":3},{"trial_n":56,"n_dots":3.45,"target":"right","response":"right","rt":1103.1999999993,"correct":true,"confidence":3},{"trial_n":57,"n_dots":3.45,"target":"right","response":"right","rt":1052.5999999996,"correct":true,"confidence":3},{"trial_n":58,"n_dots":3.35,"target":"left","response":"left","rt":908.89999999851,"correct":true,"confidence":3},{"trial_n":59,"n_dots":3.35,"target":"left","response":"left","rt":1795.5,"correct":true,"confidence":3},{"trial_n":60,"n_dots":3.25,"target":"left","response":"left","rt":778.09999999963,"correct":true,"confidence":4},{"trial_n":61,"n_dots":3.25,"target":"left","response":"left","rt":1015,"correct":true,"confidence":3},{"trial_n":62,"n_dots":3.15,"target":"left","response":"left","rt":873.19999999925,"correct":true,"confidence":3},{"trial_n":63,"n_dots":3.15,"target":"left","response":"left","rt":1088.0999999996,"correct":true,"confidence":3},{"trial_n":64,"n_dots":3.05,"target":"left","response":"left","rt":815.19999999925,"correct":true,"confidence":3},{"trial_n":65,"n_dots":3.05,"target":"right","response":"left","rt":1497,"correct":false,"confidence":3},{"trial_n":66,"n_dots":3.15,"target":"left","response":"left","rt":1287.4000000004,"correct":true,"confidence":3},{"trial_n":67,"n_dots":3.15,"target":"right","response":"right","rt":1383.0999999996,"correct":true,"confidence":3},{"trial_n":68,"n_dots":3.05,"target":"left","response":"left","rt":898.59999999963,"correct":true,"confidence":3},{"trial_n":69,"n_dots":3.05,"target":"right","response":"right","rt":1271.0999999996,"correct":true,"confidence":3},{"trial_n":70,"n_dots":2.95,"target":"right","response":"right","rt":3301.9000000004,"correct":true,"confidence":3},{"trial_n":71,"n_dots":2.95,"target":"right","response":"right","rt":2181.5999999996,"correct":true,"confidence":3},{"trial_n":72,"n_dots":2.85,"target":"right","response":"left","rt":953.5,"correct":false,"confidence":3},{"trial_n":73,"n_dots":2.95,"target":"right","response":"left","rt":920,"correct":false,"confidence":3},{"trial_n":74,"n_dots":3.05,"target":"left","response":"left","rt":971.30000000075,"correct":true,"confidence":3},{"trial_n":75,"n_dots":3.05,"target":"left","response":"left","rt":556.90000000037,"correct":true,"confidence":3},{"trial_n":76,"n_dots":2.95,"target":"left","response":"right","rt":2284.0999999996,"correct":false,"confidence":3},{"trial_n":77,"n_dots":3.05,"target":"right","response":"left","rt":1670.1999999993,"correct":false,"confidence":3},{"trial_n":78,"n_dots":3.15,"target":"right","response":"right","rt":1641.2999999989,"correct":true,"confidence":3},{"trial_n":79,"n_dots":3.15,"target":"left","response":"left","rt":3696.8000000007,"correct":true,"confidence":3},{"trial_n":80,"n_dots":3.05,"target":"right","response":"right","rt":1329,"correct":true,"confidence":3},{"trial_n":81,"n_dots":3.05,"target":"right","response":"right","rt":1339.2000000011,"correct":true,"confidence":4},{"trial_n":82,"n_dots":2.95,"target":"left","response":"right","rt":1245.5999999996,"correct":false,"confidence":3},{"trial_n":83,"n_dots":3.05,"target":"right","response":"right","rt":2067.6999999993,"correct":true,"confidence":3},{"trial_n":84,"n_dots":3.05,"target":"right","response":"right","rt":1532.1999999993,"correct":true,"confidence":3},{"trial_n":85,"n_dots":2.95,"target":"left","response":"left","rt":1295,"correct":true,"confidence":3},{"trial_n":86,"n_dots":2.95,"target":"left","response":"left","rt":49.400000000373,"correct":true,"confidence":3},{"trial_n":87,"n_dots":2.85,"target":"left","response":"right","rt":3280.0999999996,"correct":false,"confidence":3},{"trial_n":88,"n_dots":2.95,"target":"left","response":"right","rt":1237.7999999989,"correct":false,"confidence":3},{"trial_n":89,"n_dots":3.05,"target":"left","response":"left","rt":147.5,"correct":true,"confidence":3},{"trial_n":90,"n_dots":3.05,"target":"right","response":"left","rt":1492.5999999996,"correct":false,"confidence":3},{"trial_n":91,"n_dots":3.15,"target":"right","response":"right","rt":2378.7999999989,"correct":true,"confidence":3},{"trial_n":92,"n_dots":3.15,"target":"left","response":"left","rt":772.20000000112,"correct":true,"confidence":4},{"trial_n":93,"n_dots":3.05,"target":"left","response":"left","rt":709.29999999888,"correct":true,"confidence":4},{"trial_n":94,"n_dots":3.05,"target":"left","response":"left","rt":1139.1999999993,"correct":true,"confidence":4},{"trial_n":95,"n_dots":2.95,"target":"left","response":"left","rt":806.5,"correct":true,"confidence":3},{"trial_n":96,"n_dots":2.95,"target":"right","response":"left","rt":1089.1999999993,"correct":false,"confidence":3},{"trial_n":97,"n_dots":3.05,"target":"left","response":"left","rt":1381.0999999996,"correct":true,"confidence":3},{"trial_n":98,"n_dots":3.05,"target":"right","response":"right","rt":1145.2999999989,"correct":true,"confidence":3},{"trial_n":99,"n_dots":2.95,"target":"right","response":"right","rt":1693.7000000011,"correct":true,"confidence":3},{"trial_n":100,"n_dots":2.95,"target":"left","response":"right","rt":978.70000000112,"correct":false,"confidence":3},{"trial_n":101,"n_dots":3.05,"target":"left","response":"right","rt":1091.9000000004,"correct":false,"confidence":3},{"trial_n":102,"n_dots":3.15,"target":"left","response":"left","rt":2120.0999999996,"correct":true,"confidence":3},{"trial_n":103,"n_dots":3.15,"target":"right","response":"right","rt":947.79999999888,"correct":true,"confidence":3},{"trial_n":104,"n_dots":3.05,"target":"left","response":"left","rt":1102.4000000004,"correct":true,"confidence":3},{"trial_n":105,"n_dots":3.05,"target":"left","response":"right","rt":848.19999999925,"correct":false,"confidence":3},{"trial_n":106,"n_dots":3.15,"target":"right","response":"left","rt":1628.1999999993,"correct":false,"confidence":3},{"trial_n":107,"n_dots":3.25,"target":"left","response":"left","rt":533.20000000112,"correct":true,"confidence":3},{"trial_n":108,"n_dots":3.25,"target":"right","response":"right","rt":796.60000000149,"correct":true,"confidence":3},{"trial_n":109,"n_dots":3.15,"target":"right","response":"right","rt":1080.6999999993,"correct":true,"confidence":3},{"trial_n":110,"n_dots":3.15,"target":"left","response":"left","rt":1615.4000000004,"correct":true,"confidence":3},{"trial_n":111,"n_dots":3.05,"target":"right","response":"left","rt":10538.6,"correct":false,"confidence":3},{"trial_n":112,"n_dots":3.15,"target":"left","response":"left","rt":2373.2999999989,"correct":true,"confidence":4},{"trial_n":113,"n_dots":3.15,"target":"left","response":"left","rt":1295.8000000007,"correct":true,"confidence":3},{"trial_n":114,"n_dots":3.05,"target":"right","response":"left","rt":946.90000000037,"correct":false,"confidence":3},{"trial_n":115,"n_dots":3.15,"target":"right","response":"left","rt":354.59999999963,"correct":false,"confidence":3},{"trial_n":116,"n_dots":3.25,"target":"right","response":"right","rt":1470.6999999993,"correct":true,"confidence":3},{"trial_n":117,"n_dots":3.25,"target":"left","response":"left","rt":681.80000000075,"correct":true,"confidence":3},{"trial_n":118,"n_dots":3.15,"target":"left","response":"left","rt":694.29999999888,"correct":true,"confidence":3},{"trial_n":119,"n_dots":3.15,"target":"left","response":"left","rt":1468,"correct":true,"confidence":3},{"trial_n":120,"n_dots":3.05,"target":"right","response":"left","rt":858.60000000149,"correct":false,"confidence":3},{"trial_n":121,"n_dots":3.15,"target":"left","response":"left","rt":1214.799999997,"correct":true,"confidence":3},{"trial_n":122,"n_dots":3.15,"target":"right","response":"right","rt":998.70000000298,"correct":true,"confidence":3},{"trial_n":123,"n_dots":3.05,"target":"left","response":"left","rt":2150.8999999985,"correct":true,"confidence":3},{"trial_n":124,"n_dots":3.05,"target":"left","response":"right","rt":672.30000000447,"correct":false,"confidence":4},{"trial_n":125,"n_dots":3.15,"target":"right","response":"left","rt":1588.700000003,"correct":false,"confidence":3},{"trial_n":126,"n_dots":3.25,"target":"right","response":"right","rt":635.29999999702,"correct":true,"confidence":4},{"trial_n":127,"n_dots":3.25,"target":"right","response":"right","rt":680.5,"correct":true,"confidence":4},{"trial_n":128,"n_dots":3.15,"target":"left","response":"left","rt":2122.799999997,"correct":true,"confidence":3},{"trial_n":129,"n_dots":3.15,"target":"left","response":"right","rt":1342.8000000045,"correct":false,"confidence":3},{"trial_n":130,"n_dots":3.25,"target":"right","response":"right","rt":1389.099999994,"correct":true,"confidence":3},{"trial_n":131,"n_dots":3.25,"target":"right","response":"right","rt":274.40000000596,"correct":true,"confidence":3},{"trial_n":132,"n_dots":3.15,"target":"left","response":"left","rt":438.5,"correct":true,"confidence":1},{"trial_n":133,"n_dots":3.15,"target":"left","response":"right","rt":283.79999999702,"correct":false,"confidence":3},{"trial_n":134,"n_dots":3.25,"target":"right","response":"right","rt":70.09999999404,"correct":true,"confidence":2},{"trial_n":135,"n_dots":3.25,"target":"right","response":"right","rt":226.10000000894,"correct":true,"confidence":3},{"trial_n":136,"n_dots":3.15,"target":"right","response":"right","rt":65.09999999404,"correct":true,"confidence":3},{"trial_n":137,"n_dots":3.15,"target":"left","response":"right","rt":117.5,"correct":false,"confidence":2},{"trial_n":138,"n_dots":3.25,"target":"left","response":"right","rt":55.20000000298,"correct":false,"confidence":3},{"trial_n":139,"n_dots":3.35,"target":"right","response":"right","rt":208.40000000596,"correct":true,"confidence":3},{"trial_n":140,"n_dots":3.35,"target":"left","response":"right","rt":554.10000000894,"correct":false,"confidence":1},{"trial_n":141,"n_dots":3.45,"target":"right","response":"right","rt":209.09999999404,"correct":true,"confidence":3},{"trial_n":142,"n_dots":3.45,"target":"left","response":"left","rt":609.09999999404,"correct":true,"confidence":3},{"trial_n":143,"n_dots":3.35,"target":"left","response":"right","rt":389.5,"correct":false,"confidence":4},{"trial_n":144,"n_dots":3.45,"target":"left","response":"left","rt":280.80000001192,"correct":true,"confidence":3},{"trial_n":145,"n_dots":3.45,"target":"left","response":"right","rt":130.59999999404,"correct":false,"confidence":3},{"trial_n":146,"n_dots":3.55,"target":"left","response":"right","rt":266.59999999404,"correct":false,"confidence":3},{"trial_n":147,"n_dots":3.65,"target":"right","response":"right","rt":309,"correct":true,"confidence":3},{"trial_n":148,"n_dots":3.65,"target":"right","response":"left","rt":1608.299999997,"correct":false,"confidence":1},{"trial_n":149,"n_dots":3.75,"target":"right","response":"right","rt":5,"correct":true,"confidence":4},{"trial_n":150,"n_dots":3.75,"target":"left","response":"left","rt":410.80000001192,"correct":true,"confidence":4},{"trial_n":151,"n_dots":3.65,"target":"right","response":"right","rt":47.5,"correct":true,"confidence":4},{"trial_n":152,"n_dots":3.65,"target":"right","response":"left","rt":1069.200000003,"correct":false,"confidence":1},{"trial_n":153,"n_dots":3.75,"target":"left","response":"left","rt":448.5,"correct":true,"confidence":3},{"trial_n":154,"n_dots":3.75,"target":"right","response":"right","rt":287.29999999702,"correct":true,"confidence":4},{"trial_n":155,"n_dots":3.65,"target":"right","response":"right","rt":190.70000000298,"correct":true,"confidence":3},{"trial_n":156,"n_dots":3.65,"target":"left","response":"left","rt":538.60000000894,"correct":true,"confidence":3},{"trial_n":157,"n_dots":3.55,"target":"left","response":"right","rt":953.39999999106,"correct":false,"confidence":1},{"trial_n":158,"n_dots":3.65,"target":"right","response":"right","rt":1546.400000006,"correct":true,"confidence":1},{"trial_n":159,"n_dots":3.65,"target":"right","response":"right","rt":829.70000000298,"correct":true,"confidence":2},{"trial_n":160,"n_dots":3.55,"target":"right","response":"right","rt":0.6000000089407,"correct":true,"confidence":3},{"trial_n":161,"n_dots":3.55,"target":"right","response":"right","rt":320.20000000298,"correct":true,"confidence":3},{"trial_n":162,"n_dots":3.45,"target":"right","response":"right","rt":898.59999999404,"correct":true,"confidence":2},{"trial_n":163,"n_dots":3.45,"target":"left","response":"right","rt":270.90000000596,"correct":false,"confidence":3},{"trial_n":164,"n_dots":3.55,"target":"left","response":"left","rt":277.09999999404,"correct":true,"confidence":5},{"trial_n":165,"n_dots":3.55,"target":"left","response":"left","rt":426,"correct":true,"confidence":3},{"trial_n":166,"n_dots":3.45,"target":"left","response":"left","rt":760.40000000596,"correct":true,"confidence":4},{"trial_n":167,"n_dots":3.45,"target":"right","response":"left","rt":331.59999999404,"correct":false,"confidence":1},{"trial_n":168,"n_dots":3.55,"target":"right","response":"right","rt":305.89999999106,"correct":true,"confidence":4},{"trial_n":169,"n_dots":3.55,"target":"right","response":"right","rt":785.09999999404,"correct":true,"confidence":1},{"trial_n":170,"n_dots":3.45,"target":"left","response":"left","rt":1287.8999999911,"correct":true,"confidence":1},{"trial_n":171,"n_dots":3.45,"target":"left","response":"left","rt":464.5,"correct":true,"confidence":4},{"trial_n":172,"n_dots":3.35,"target":"right","response":"right","rt":927,"correct":true,"confidence":1},{"trial_n":173,"n_dots":3.35,"target":"left","response":"left","rt":349.60000000894,"correct":true,"confidence":3},{"trial_n":174,"n_dots":3.25,"target":"left","response":"left","rt":1057.799999997,"correct":true,"confidence":4},{"trial_n":175,"n_dots":3.25,"target":"right","response":"right","rt":82.40000000596,"correct":true,"confidence":4},{"trial_n":176,"n_dots":3.15,"target":"right","response":"right","rt":545.20000000298,"correct":true,"confidence":4},{"trial_n":177,"n_dots":3.15,"target":"right","response":"right","rt":90.79999999702,"correct":true,"confidence":4},{"trial_n":178,"n_dots":3.05,"target":"left","response":"right","rt":404.20000000298,"correct":false,"confidence":4},{"trial_n":179,"n_dots":3.15,"target":"right","response":"right","rt":2.6999999880791,"correct":true,"confidence":4},{"trial_n":180,"n_dots":3.15,"target":"right","response":"right","rt":349.29999999702,"correct":true,"confidence":4},{"trial_n":181,"n_dots":3.05,"target":"left","response":"left","rt":351,"correct":true,"confidence":4},{"trial_n":182,"n_dots":3.05,"target":"left","response":"left","rt":983.89999999106,"correct":true,"confidence":3},{"trial_n":183,"n_dots":2.95,"target":"left","response":"left","rt":477.5,"correct":true,"confidence":3},{"trial_n":184,"n_dots":2.95,"target":"left","response":"left","rt":383.5,"correct":true,"confidence":4},{"trial_n":185,"n_dots":2.85,"target":"right","response":"right","rt":199.09999999404,"correct":true,"confidence":2},{"trial_n":186,"n_dots":2.85,"target":"right","response":"left","rt":994.40000000596,"correct":false,"confidence":1},{"trial_n":187,"n_dots":2.95,"target":"right","response":"right","rt":365.70000000298,"correct":true,"confidence":3},{"trial_n":188,"n_dots":2.95,"target":"left","response":"right","rt":900.29999999702,"correct":false,"confidence":4},{"trial_n":189,"n_dots":3.05,"target":"right","response":"right","rt":757.70000000298,"correct":true,"confidence":4},{"trial_n":190,"n_dots":3.05,"target":"right","response":"right","rt":777.89999999106,"correct":true,"confidence":4},{"trial_n":191,"n_dots":2.95,"target":"right","response":"left","rt":327,"correct":false,"confidence":4},{"trial_n":192,"n_dots":3.05,"target":"right","response":"right","rt":471.79999999702,"correct":true,"confidence":3},{"trial_n":193,"n_dots":3.05,"target":"left","response":"right","rt":1578,"correct":false,"confidence":1},{"trial_n":194,"n_dots":3.15,"target":"left","response":"right","rt":738.39999999106,"correct":false,"confidence":2}]