[{"trial_n":1,"n_dots":4.25,"target":"left","response":"right","rt":6991.6000000238,"correct":false,"confidence":-1},{"trial_n":2,"n_dots":4.25,"target":"left","response":"right","rt":2247.3000000119,"correct":false,"confidence":-1},{"trial_n":3,"n_dots":4.65,"target":"right","response":"left","rt":783.80000001192,"correct":false,"confidence":-1},{"trial_n":4,"n_dots":5.05,"target":"right","response":"right","rt":500.69999998808,"correct":true,"confidence":-1},{"trial_n":5,"n_dots":5.05,"target":"right","response":"right","rt":489,"correct":true,"confidence":-1},{"trial_n":6,"n_dots":4.65,"target":"right","response":"right","rt":399.5,"correct":true,"confidence":-1},{"trial_n":7,"n_dots":4.65,"target":"left","response":"left","rt":286.20000001788,"correct":true,"confidence":-1},{"trial_n":8,"n_dots":4.45,"target":"right","response":"right","rt":521.69999998808,"correct":true,"confidence":-1},{"trial_n":9,"n_dots":4.45,"target":"right","response":"right","rt":180.59999999404,"correct":true,"confidence":-1},{"trial_n":10,"n_dots":4.25,"target":"right","response":"right","rt":253.5,"correct":true,"confidence":-1},{"trial_n":11,"n_dots":4.25,"target":"right","response":"right","rt":572.80000001192,"correct":true,"confidence":-1},{"trial_n":12,"n_dots":4.05,"target":"right","response":"right","rt":288.69999998808,"correct":true,"confidence":-1},{"trial_n":13,"n_dots":4.05,"target":"right","response":"right","rt":3995.1999999881,"correct":true,"confidence":-1},{"trial_n":14,"n_dots":3.95,"target":"right","response":"right","rt":257.40000000596,"correct":true,"confidence":-1},{"trial_n":15,"n_dots":3.95,"target":"right","response":"right","rt":847.5,"correct":true,"confidence":-1},{"trial_n":16,"n_dots":3.85,"target":"left","response":"left","rt":280.59999999404,"correct":true,"confidence":-1},{"trial_n":17,"n_dots":3.85,"target":"right","response":"right","rt":3382.3000000119,"correct":true,"confidence":-1},{"trial_n":18,"n_dots":3.75,"target":"left","response":"left","rt":549,"correct":true,"confidence":-1},{"trial_n":19,"n_dots":3.75,"target":"right","response":"left","rt":600.09999999404,"correct":false,"confidence":-1},{"trial_n":20,"n_dots":3.85,"target":"left","response":"left","rt":744,"correct":true,"confidence":-1},{"trial_n":21,"n_dots":3.85,"target":"left","response":"right","rt":1136.1999999881,"correct":false,"confidence":-1},{"trial_n":22,"n_dots":3.95,"target":"right","response":"right","rt":418.20000001788,"correct":true,"confidence":-1},{"trial_n":23,"n_dots":3.95,"target":"left","response":"left","rt":129.19999998808,"correct":true,"confidence":-1},{"trial_n":24,"n_dots":3.85,"target":"left","response":"left","rt":74.5,"correct":true,"confidence":-1},{"trial_n":25,"n_dots":3.85,"target":"left","response":"left","rt":113,"correct":true,"confidence":-1},{"trial_n":26,"n_dots":3.75,"target":"right","response":"right","rt":377.59999999404,"correct":true,"confidence":-1},{"trial_n":27,"n_dots":3.75,"target":"left","response":"left","rt":1383.099999994,"correct":true,"confidence":5},{"trial_n":28,"n_dots":3.65,"target":"right","response":"right","rt":421.09999999404,"correct":true,"confidence":2},{"trial_n":29,"n_dots":3.65,"target":"left","response":"left","rt":483.09999999404,"correct":true,"confidence":5},{"trial_n":30,"n_dots":3.55,"target":"right","response":"right","rt":468.80000001192,"correct":true,"confidence":6},{"trial_n":31,"n_dots":3.55,"target":"right","response":"right","rt":175.30000001192,"correct":true,"confidence":6},{"trial_n":32,"n_dots":3.45,"target":"right","response":"right","rt":204.60000002384,"correct":true,"confidence":6},{"trial_n":33,"n_dots":3.45,"target":"left","response":"right","rt":891.69999998808,"correct":false,"confidence":6},{"trial_n":34,"n_dots":3.55,"target":"left","response":"right","rt":655,"correct":false,"confidence":6},{"trial_n":35,"n_dots":3.65,"target":"right","response":"right","rt":439.80000001192,"correct":true,"confidence":6},{"trial_n":36,"n_dots":3.65,"target":"right","response":"right","rt":298.29999998212,"correct":true,"confidence":6},{"trial_n":37,"n_dots":3.55,"target":"left","response":"right","rt":491.09999999404,"correct":false,"confidence":4},{"trial_n":38,"n_dots":3.65,"target":"right","response":"right","rt":479.90000000596,"correct":true,"confidence":5},{"trial_n":39,"n_dots":3.65,"target":"right","response":"right","rt":521.5,"correct":true,"confidence":6},{"trial_n":40,"n_dots":3.55,"target":"right","response":"right","rt":743.5,"correct":true,"confidence":4},{"trial_n":41,"n_dots":3.55,"target":"left","response":"left","rt":4377.099999994,"correct":true,"confidence":2},{"trial_n":42,"n_dots":3.45,"target":"left","response":"right","rt":701.19999998808,"correct":false,"confidence":5},{"trial_n":43,"n_dots":3.55,"target":"right","response":"right","rt":530.90000000596,"correct":true,"confidence":5},{"trial_n":44,"n_dots":3.55,"target":"left","response":"left","rt":652.69999998808,"correct":true,"confidence":4},{"trial_n":45,"n_dots":3.45,"target":"left","response":"right","rt":69,"correct":false,"confidence":1},{"trial_n":46,"n_dots":3.55,"target":"right","response":"right","rt":977.5,"correct":true,"confidence":1},{"trial_n":47,"n_dots":3.55,"target":"right","response":"right","rt":46.59999999404,"correct":true,"confidence":3},{"trial_n":48,"n_dots":3.45,"target":"right","response":"right","rt":12836.599999994,"correct":true,"confidence":2},{"trial_n":49,"n_dots":3.45,"target":"left","response":"left","rt":329.19999998808,"correct":true,"confidence":2},{"trial_n":50,"n_dots":3.35,"target":"right","response":"right","rt":924,"correct":true,"confidence":4},{"trial_n":51,"n_dots":3.35,"target":"right","response":"right","rt":746.20000001788,"correct":true,"confidence":3},{"trial_n":52,"n_dots":3.25,"target":"right","response":"right","rt":5.5,"correct":true,"confidence":5},{"trial_n":53,"n_dots":3.25,"target":"left","response":"left","rt":507.09999999404,"correct":true,"confidence":3},{"trial_n":54,"n_dots":3.15,"target":"left","response":"left","rt":391.90000000596,"correct":true,"confidence":4},{"trial_n":55,"n_dots":3.15,"target":"right","response":"right","rt":458,"correct":true,"confidence":5},{"trial_n":56,"n_dots":3.05,"target":"right","response":"right","rt":238.90000000596,"correct":true,"confidence":4},{"trial_n":57,"n_dots":3.05,"target":"right","response":"right","rt":694.90000000596,"correct":true,"confidence":4},{"trial_n":58,"n_dots":2.95,"target":"right","response":"right","rt":566,"correct":true,"confidence":3},{"trial_n":59,"n_dots":2.95,"target":"right","response":"right","rt":551.69999998808,"correct":true,"confidence":1},{"trial_n":60,"n_dots":2.85,"target":"right","response":"left","rt":260.79999998212,"correct":false,"confidence":1},{"trial_n":61,"n_dots":2.95,"target":"left","response":"right","rt":309,"correct":false,"confidence":2},{"trial_n":62,"n_dots":3.05,"target":"right","response":"right","rt":150.79999998212,"correct":true,"confidence":4},{"trial_n":63,"n_dots":3.05,"target":"left","response":"left","rt":1690.599999994,"correct":true,"confidence":1},{"trial_n":64,"n_dots":2.95,"target":"left","response":"left","rt":3168.2999999821,"correct":true,"confidence":1},{"trial_n":65,"n_dots":2.95,"target":"left","response":"right","rt":339.89999997616,"correct":false,"confidence":3},{"trial_n":66,"n_dots":3.05,"target":"left","response":"right","rt":3257.099999994,"correct":false,"confidence":3},{"trial_n":67,"n_dots":3.15,"target":"right","response":"left","rt":1825.3999999762,"correct":false,"confidence":2},{"trial_n":68,"n_dots":3.25,"target":"left","response":"right","rt":9659,"correct":false,"confidence":3},{"trial_n":69,"n_dots":3.35,"target":"left","response":"right","rt":58.800000011921,"correct":false,"confidence":3},{"trial_n":70,"n_dots":3.45,"target":"left","response":"right","rt":421.10000002384,"correct":false,"confidence":2},{"trial_n":71,"n_dots":3.55,"target":"right","response":"right","rt":239.69999998808,"correct":true,"confidence":4},{"trial_n":72,"n_dots":3.55,"target":"right","response":"right","rt":323.40000000596,"correct":true,"confidence":3},{"trial_n":73,"n_dots":3.45,"target":"right","response":"right","rt":758.60000002384,"correct":true,"confidence":5},{"trial_n":74,"n_dots":3.45,"target":"left","response":"right","rt":7608.099999994,"correct":false,"confidence":3},{"trial_n":75,"n_dots":3.55,"target":"right","response":"left","rt":2706.400000006,"correct":false,"confidence":3},{"trial_n":76,"n_dots":3.65,"target":"left","response":"left","rt":169.79999998212,"correct":true,"confidence":4},{"trial_n":77,"n_dots":3.65,"target":"left","response":"left","rt":517.70000001788,"correct":true,"confidence":4},{"trial_n":78,"n_dots":3.55,"target":"right","response":"right","rt":2254.400000006,"correct":true,"confidence":1},{"trial_n":79,"n_dots":3.55,"target":"left","response":"left","rt":3.5999999940395,"correct":true,"confidence":3},{"trial_n":80,"n_dots":3.45,"target":"left","response":"right","rt":310.20000001788,"correct":false,"confidence":3},{"trial_n":81,"n_dots":3.55,"target":"right","response":"right","rt":339.5,"correct":true,"confidence":4},{"trial_n":82,"n_dots":3.55,"target":"right","response":"right","rt":2398.2000000179,"correct":true,"confidence":4},{"trial_n":83,"n_dots":3.45,"target":"right","response":"left","rt":6357.8000000119,"correct":false,"confidence":3},{"trial_n":84,"n_dots":3.55,"target":"left","response":"left","rt":759.30000001192,"correct":true,"confidence":3},{"trial_n":85,"n_dots":3.55,"target":"right","response":"right","rt":425.89999997616,"correct":true,"confidence":4},{"trial_n":86,"n_dots":3.45,"target":"left","response":"left","rt":46.200000017881,"correct":true,"confidence":3},{"trial_n":87,"n_dots":3.45,"target":"left","response":"right","rt":605.10000002384,"correct":false,"confidence":4},{"trial_n":88,"n_dots":3.55,"target":"left","response":"right","rt":877.40000000596,"correct":false,"confidence":4},{"trial_n":89,"n_dots":3.65,"target":"left","response":"left","rt":500.40000000596,"correct":true,"confidence":4},{"trial_n":90,"n_dots":3.65,"target":"right","response":"left","rt":6422.5,"correct":false,"confidence":3},{"trial_n":91,"n_dots":3.75,"target":"right","response":"right","rt":930.40000000596,"correct":true,"confidence":4},{"trial_n":92,"n_dots":3.75,"target":"right","response":"left","rt":2755.8000000119,"correct":false,"confidence":4},{"trial_n":93,"n_dots":3.85,"target":"right","response":"right","rt":786.39999997616,"correct":true,"confidence":4},{"trial_n":94,"n_dots":3.85,"target":"left","response":"left","rt":17.09999999404,"correct":true,"confidence":3},{"trial_n":95,"n_dots":3.75,"target":"right","response":"right","rt":31.5,"correct":true,"confidence":4},{"trial_n":96,"n_dots":3.75,"target":"right","response":"right","rt":5507.900000006,"correct":true,"confidence":3},{"trial_n":97,"n_dots":3.65,"target":"left","response":"left","rt":567.40000000596,"correct":true,"confidence":3},{"trial_n":98,"n_dots":3.65,"target":"right","response":"right","rt":755.30000001192,"correct":true,"confidence":4},{"trial_n":99,"n_dots":3.55,"target":"left","response":"left","rt":2010.400000006,"correct":true,"confidence":4},{"trial_n":100,"n_dots":3.55,"target":"right","response":"right","rt":266.30000001192,"correct":true,"confidence":4},{"trial_n":101,"n_dots":3.45,"target":"right","response":"left","rt":11052.400000006,"correct":false,"confidence":4},{"trial_n":102,"n_dots":3.55,"target":"right","response":"right","rt":177.20000001788,"correct":true,"confidence":4},{"trial_n":103,"n_dots":3.55,"target":"right","response":"right","rt":462,"correct":true,"confidence":1},{"trial_n":104,"n_dots":3.45,"target":"left","response":"right","rt":1830.599999994,"correct":false,"confidence":4},{"trial_n":105,"n_dots":3.55,"target":"right","response":"right","rt":6162.3000000119,"correct":true,"confidence":3},{"trial_n":106,"n_dots":3.55,"target":"right","response":"left","rt":831.30000001192,"correct":false,"confidence":1},{"trial_n":107,"n_dots":3.65,"target":"left","response":"left","rt":1079.8000000119,"correct":true,"confidence":1},{"trial_n":108,"n_dots":3.65,"target":"left","response":"left","rt":594.20000001788,"correct":true,"confidence":1},{"trial_n":109,"n_dots":3.55,"target":"left","response":"right","rt":476.29999998212,"correct":false,"confidence":3},{"trial_n":110,"n_dots":3.65,"target":"left","response":"right","rt":2120,"correct":false,"confidence":3},{"trial_n":111,"n_dots":3.75,"target":"right","response":"right","rt":56.40000000596,"correct":true,"confidence":3},{"trial_n":112,"n_dots":3.75,"target":"left","response":"right","rt":614.29999998212,"correct":false,"confidence":3},{"trial_n":113,"n_dots":3.85,"target":"left","response":"right","rt":1014.2999999821,"correct":false,"confidence":3},{"trial_n":114,"n_dots":3.95,"target":"left","response":"left","rt":448,"correct":true,"confidence":3},{"trial_n":115,"n_dots":3.95,"target":"right","response":"right","rt":32.09999999404,"correct":true,"confidence":3},{"trial_n":116,"n_dots":3.85,"target":"left","response":"right","rt":176.30000001192,"correct":false,"confidence":1},{"trial_n":117,"n_dots":3.95,"target":"right","response":"right","rt":42.299999982119,"correct":true,"confidence":3},{"trial_n":118,"n_dots":3.95,"target":"right","response":"right","rt":627.30000001192,"correct":true,"confidence":3},{"trial_n":119,"n_dots":3.85,"target":"left","response":"left","rt":822.10000002384,"correct":true,"confidence":3},{"trial_n":120,"n_dots":3.85,"target":"left","response":"right","rt":943.20000001788,"correct":false,"confidence":3},{"trial_n":121,"n_dots":3.95,"target":"left","response":"left","rt":867,"correct":true,"confidence":3},{"trial_n":122,"n_dots":3.95,"target":"right","response":"right","rt":35.5,"correct":true,"confidence":3},{"trial_n":123,"n_dots":3.85,"target":"left","response":"left","rt":57.09999999404,"correct":true,"confidence":3},{"trial_n":124,"n_dots":3.85,"target":"left","response":"left","rt":87.299999982119,"correct":true,"confidence":3},{"trial_n":125,"n_dots":3.75,"target":"right","response":"right","rt":4848.7000000179,"correct":true,"confidence":4},{"trial_n":126,"n_dots":3.75,"target":"left","response":"left","rt":487.29999998212,"correct":true,"confidence":3},{"trial_n":127,"n_dots":3.65,"target":"right","response":"right","rt":6944.2000000179,"correct":true,"confidence":4},{"trial_n":128,"n_dots":3.65,"target":"left","response":"left","rt":308.40000000596,"correct":true,"confidence":3},{"trial_n":129,"n_dots":3.55,"target":"right","response":"right","rt":359.79999998212,"correct":true,"confidence":4},{"trial_n":130,"n_dots":3.55,"target":"left","response":"left","rt":6050.400000006,"correct":true,"confidence":3},{"trial_n":131,"n_dots":3.45,"target":"right","response":"right","rt":7,"correct":true,"confidence":3},{"trial_n":132,"n_dots":3.45,"target":"right","response":"right","rt":753.30000001192,"correct":true,"confidence":4},{"trial_n":133,"n_dots":3.35,"target":"left","response":"left","rt":1450.3000000119,"correct":true,"confidence":4},{"trial_n":134,"n_dots":3.35,"target":"left","response":"right","rt":5196.7000000179,"correct":false,"confidence":3},{"trial_n":135,"n_dots":3.45,"target":"right","response":"right","rt":343,"correct":true,"confidence":3},{"trial_n":136,"n_dots":3.45,"target":"left","response":"right","rt":1309.0999999642,"correct":false,"confidence":3},{"trial_n":137,"n_dots":3.55,"target":"right","response":"left","rt":1127.1999999881,"correct":false,"confidence":3},{"trial_n":138,"n_dots":3.65,"target":"left","response":"right","rt":2050.6000000238,"correct":false,"confidence":4},{"trial_n":139,"n_dots":3.75,"target":"right","response":"right","rt":419.19999998808,"correct":true,"confidence":4},{"trial_n":140,"n_dots":3.75,"target":"left","response":"left","rt":1923,"correct":true,"confidence":3},{"trial_n":141,"n_dots":3.65,"target":"left","response":"left","rt":49.399999976158,"correct":true,"confidence":6},{"trial_n":142,"n_dots":3.65,"target":"left","response":"left","rt":2579.5,"correct":true,"confidence":4},{"trial_n":143,"n_dots":3.55,"target":"left","response":"right","rt":1746.7999999523,"correct":false,"confidence":4},{"trial_n":144,"n_dots":3.65,"target":"right","response":"left","rt":475.89999997616,"correct":false,"confidence":1},{"trial_n":145,"n_dots":3.75,"target":"left","response":"left","rt":1431.5,"correct":true,"confidence":4},{"trial_n":146,"n_dots":3.75,"target":"right","response":"right","rt":296.69999998808,"correct":true,"confidence":4},{"trial_n":147,"n_dots":3.65,"target":"right","response":"left","rt":648.5,"correct":false,"confidence":4},{"trial_n":148,"n_dots":3.75,"target":"left","response":"right","rt":1096.8000000119,"correct":false,"confidence":4},{"trial_n":149,"n_dots":3.85,"target":"left","response":"right","rt":5346.5,"correct":false,"confidence":4},{"trial_n":150,"n_dots":3.95,"target":"right","response":"right","rt":232.5,"correct":true,"confidence":5},{"trial_n":151,"n_dots":3.95,"target":"right","response":"right","rt":366.10000002384,"correct":true,"confidence":5},{"trial_n":152,"n_dots":3.85,"target":"right","response":"right","rt":35.799999952316,"correct":true,"confidence":5},{"trial_n":153,"n_dots":3.85,"target":"left","response":"left","rt":454.5,"correct":true,"confidence":5},{"trial_n":154,"n_dots":3.75,"target":"left","response":"right","rt":15016.400000036,"correct":false,"confidence":4},{"trial_n":155,"n_dots":3.85,"target":"left","response":"left","rt":679.60000002384,"correct":true,"confidence":4},{"trial_n":156,"n_dots":3.85,"target":"left","response":"right","rt":2030.3999999762,"correct":false,"confidence":5},{"trial_n":157,"n_dots":3.95,"target":"left","response":"right","rt":1121.5,"correct":false,"confidence":4},{"trial_n":158,"n_dots":4.05,"target":"left","response":"left","rt":679.09999996424,"correct":true,"confidence":5},{"trial_n":159,"n_dots":4.05,"target":"left","response":"left","rt":21.899999976158,"correct":true,"confidence":5},{"trial_n":160,"n_dots":3.95,"target":"right","response":"right","rt":4182.3000000119,"correct":true,"confidence":4},{"trial_n":161,"n_dots":3.95,"target":"right","response":"right","rt":883.19999998808,"correct":true,"confidence":5},{"trial_n":162,"n_dots":3.85,"target":"right","response":"right","rt":4600.8000000119,"correct":true,"confidence":5},{"trial_n":163,"n_dots":3.85,"target":"left","response":"right","rt":18177.100000024,"correct":false,"confidence":5},{"trial_n":164,"n_dots":3.95,"target":"right","response":"right","rt":135.40000003576,"correct":true,"confidence":5},{"trial_n":165,"n_dots":3.95,"target":"left","response":"right","rt":550.19999998808,"correct":false,"confidence":5},{"trial_n":166,"n_dots":4.05,"target":"left","response":"left","rt":1248.2000000477,"correct":true,"confidence":4},{"trial_n":167,"n_dots":4.05,"target":"right","response":"right","rt":384.40000003576,"correct":true,"confidence":5},{"trial_n":168,"n_dots":3.95,"target":"left","response":"left","rt":658.60000002384,"correct":true,"confidence":5},{"trial_n":169,"n_dots":3.95,"target":"left","response":"right","rt":300.69999998808,"correct":false,"confidence":4},{"trial_n":170,"n_dots":4.05,"target":"left","response":"left","rt":729.90000003576,"correct":true,"confidence":4},{"trial_n":171,"n_dots":4.05,"target":"left","response":"left","rt":4.3000000119209,"correct":true,"confidence":4},{"trial_n":172,"n_dots":3.95,"target":"right","response":"right","rt":529,"correct":true,"confidence":4},{"trial_n":173,"n_dots":3.95,"target":"left","response":"right","rt":9076.6000000238,"correct":false,"confidence":4},{"trial_n":174,"n_dots":4.05,"target":"left","response":"left","rt":372.30000001192,"correct":true,"confidence":4},{"trial_n":175,"n_dots":4.05,"target":"right","response":"left","rt":1026.6999999881,"correct":false,"confidence":4},{"trial_n":176,"n_dots":4.15,"target":"right","response":"right","rt":760.5,"correct":true,"confidence":5},{"trial_n":177,"n_dots":4.15,"target":"left","response":"left","rt":614.10000002384,"correct":true,"confidence":5},{"trial_n":178,"n_dots":4.05,"target":"left","response":"left","rt":97,"correct":true,"confidence":5},{"trial_n":179,"n_dots":4.05,"target":"left","response":"left","rt":30.900000035763,"correct":true,"confidence":5},{"trial_n":180,"n_dots":3.95,"target":"left","response":"right","rt":3887.5,"correct":false,"confidence":4},{"trial_n":181,"n_dots":4.05,"target":"right","response":"right","rt":228.39999997616,"correct":true,"confidence":4},{"trial_n":182,"n_dots":4.05,"target":"right","response":"left","rt":287.40000003576,"correct":false,"confidence":4},{"trial_n":183,"n_dots":4.15,"target":"right","response":"right","rt":98.399999976158,"correct":true,"confidence":5},{"trial_n":184,"n_dots":4.15,"target":"right","response":"right","rt":607.80000001192,"correct":true,"confidence":5},{"trial_n":185,"n_dots":4.05,"target":"left","response":"left","rt":742.09999996424,"correct":true,"confidence":5},{"trial_n":186,"n_dots":4.05,"target":"right","response":"right","rt":421.5,"correct":true,"confidence":5},{"trial_n":187,"n_dots":3.95,"target":"right","response":"left","rt":423.40000003576,"correct":false,"confidence":5},{"trial_n":188,"n_dots":4.05,"target":"left","response":"left","rt":185.5,"correct":true,"confidence":5},{"trial_n":189,"n_dots":4.05,"target":"left","response":"left","rt":689.40000003576,"correct":true,"confidence":5},{"trial_n":190,"n_dots":3.95,"target":"right","response":"right","rt":597,"correct":true,"confidence":4},{"trial_n":191,"n_dots":3.95,"target":"right","response":"right","rt":689,"correct":true,"confidence":4},{"trial_n":192,"n_dots":3.85,"target":"left","response":"right","rt":1549.6000000238,"correct":false,"confidence":3},{"trial_n":193,"n_dots":3.95,"target":"left","response":"left","rt":827.10000002384,"correct":true,"confidence":3},{"trial_n":194,"n_dots":3.95,"target":"left","response":"left","rt":671.30000001192,"correct":true,"confidence":3}]