[{"trial_n":1,"n_dots":4.25,"target":"left","response":"left","rt":4667.1000000238,"correct":true,"confidence":-1},{"trial_n":2,"n_dots":4.25,"target":"right","response":"right","rt":462.30000001192,"correct":true,"confidence":-1},{"trial_n":3,"n_dots":3.85,"target":"left","response":"left","rt":500.19999998808,"correct":true,"confidence":-1},{"trial_n":4,"n_dots":3.85,"target":"left","response":"left","rt":410.19999998808,"correct":true,"confidence":-1},{"trial_n":5,"n_dots":3.45,"target":"right","response":"right","rt":264.69999998808,"correct":true,"confidence":-1},{"trial_n":6,"n_dots":3.45,"target":"left","response":"right","rt":777.69999998808,"correct":false,"confidence":-1},{"trial_n":7,"n_dots":3.85,"target":"right","response":"right","rt":261.19999998808,"correct":true,"confidence":-1},{"trial_n":8,"n_dots":3.85,"target":"left","response":"left","rt":820.10000002384,"correct":true,"confidence":-1},{"trial_n":9,"n_dots":3.65,"target":"right","response":"right","rt":153.39999997616,"correct":true,"confidence":-1},{"trial_n":10,"n_dots":3.65,"target":"left","response":"right","rt":381.69999998808,"correct":false,"confidence":-1},{"trial_n":11,"n_dots":3.85,"target":"left","response":"left","rt":692.90000003576,"correct":true,"confidence":-1},{"trial_n":12,"n_dots":3.85,"target":"left","response":"right","rt":653.69999998808,"correct":false,"confidence":-1},{"trial_n":13,"n_dots":3.95,"target":"right","response":"right","rt":552.89999997616,"correct":true,"confidence":-1},{"trial_n":14,"n_dots":3.95,"target":"left","response":"right","rt":663.69999998808,"correct":false,"confidence":-1},{"trial_n":15,"n_dots":4.05,"target":"left","response":"left","rt":519.39999997616,"correct":true,"confidence":-1},{"trial_n":16,"n_dots":4.05,"target":"left","response":"left","rt":452.70000004768,"correct":true,"confidence":-1},{"trial_n":17,"n_dots":3.95,"target":"left","response":"left","rt":353.09999996424,"correct":true,"confidence":-1},{"trial_n":18,"n_dots":3.95,"target":"right","response":"right","rt":322.39999997616,"correct":true,"confidence":-1},{"trial_n":19,"n_dots":3.85,"target":"right","response":"right","rt":312.80000001192,"correct":true,"confidence":-1},{"trial_n":20,"n_dots":3.85,"target":"right","response":"right","rt":644.09999996424,"correct":true,"confidence":-1},{"trial_n":21,"n_dots":3.75,"target":"left","response":"right","rt":335.30000001192,"correct":false,"confidence":-1},{"trial_n":22,"n_dots":3.85,"target":"right","response":"right","rt":332.19999998808,"correct":true,"confidence":-1},{"trial_n":23,"n_dots":3.85,"target":"right","response":"right","rt":327.80000001192,"correct":true,"confidence":-1},{"trial_n":24,"n_dots":3.75,"target":"left","response":"left","rt":133,"correct":true,"confidence":-1},{"trial_n":25,"n_dots":3.75,"target":"right","response":"right","rt":50.100000023842,"correct":true,"confidence":-1},{"trial_n":26,"n_dots":3.65,"target":"left","response":"left","rt":122.59999996424,"correct":true,"confidence":-1},{"trial_n":27,"n_dots":3.65,"target":"right","response":"right","rt":122.39999997616,"correct":true,"confidence":5},{"trial_n":28,"n_dots":3.55,"target":"left","response":"left","rt":114.5,"correct":true,"confidence":4},{"trial_n":29,"n_dots":3.55,"target":"right","response":"right","rt":405.40000003576,"correct":true,"confidence":4},{"trial_n":30,"n_dots":3.45,"target":"left","response":"left","rt":372,"correct":true,"confidence":3},{"trial_n":31,"n_dots":3.45,"target":"right","response":"right","rt":837.5,"correct":true,"confidence":2},{"trial_n":32,"n_dots":3.35,"target":"left","response":"right","rt":822.09999996424,"correct":false,"confidence":2},{"trial_n":33,"n_dots":3.45,"target":"right","response":"right","rt":409.60000002384,"correct":true,"confidence":3},{"trial_n":34,"n_dots":3.45,"target":"right","response":"right","rt":388.59999996424,"correct":true,"confidence":3},{"trial_n":35,"n_dots":3.35,"target":"left","response":"left","rt":1208.1000000238,"correct":true,"confidence":2},{"trial_n":36,"n_dots":3.35,"target":"right","response":"right","rt":484.19999998808,"correct":true,"confidence":2},{"trial_n":37,"n_dots":3.25,"target":"left","response":"left","rt":1433.3999999762,"correct":true,"confidence":2},{"trial_n":38,"n_dots":3.25,"target":"right","response":"right","rt":446.10000002384,"correct":true,"confidence":3},{"trial_n":39,"n_dots":3.15,"target":"right","response":"right","rt":624.39999997616,"correct":true,"confidence":3},{"trial_n":40,"n_dots":3.15,"target":"left","response":"left","rt":543.79999995232,"correct":true,"confidence":3},{"trial_n":41,"n_dots":3.05,"target":"right","response":"right","rt":370.69999998808,"correct":true,"confidence":3},{"trial_n":42,"n_dots":3.05,"target":"left","response":"right","rt":561.5,"correct":false,"confidence":3},{"trial_n":43,"n_dots":3.15,"target":"left","response":"left","rt":1647.3999999762,"correct":true,"confidence":2},{"trial_n":44,"n_dots":3.15,"target":"right","response":"right","rt":346.39999997616,"correct":true,"confidence":4},{"trial_n":45,"n_dots":3.05,"target":"right","response":"right","rt":921.90000003576,"correct":true,"confidence":2},{"trial_n":46,"n_dots":3.05,"target":"right","response":"left","rt":1036.1999999881,"correct":false,"confidence":2},{"trial_n":47,"n_dots":3.15,"target":"left","response":"left","rt":714.5,"correct":true,"confidence":2},{"trial_n":48,"n_dots":3.15,"target":"left","response":"left","rt":896,"correct":true,"confidence":2},{"trial_n":49,"n_dots":3.05,"target":"left","response":"left","rt":733.39999997616,"correct":true,"confidence":2},{"trial_n":50,"n_dots":3.05,"target":"left","response":"left","rt":595,"correct":true,"confidence":5},{"trial_n":51,"n_dots":2.95,"target":"right","response":"right","rt":1073.5999999642,"correct":true,"confidence":4},{"trial_n":52,"n_dots":2.95,"target":"right","response":"right","rt":423.29999995232,"correct":true,"confidence":3},{"trial_n":53,"n_dots":2.85,"target":"left","response":"left","rt":422.30000001192,"correct":true,"confidence":3},{"trial_n":54,"n_dots":2.85,"target":"left","response":"left","rt":535,"correct":true,"confidence":3},{"trial_n":55,"n_dots":2.75,"target":"right","response":"left","rt":671,"correct":false,"confidence":3},{"trial_n":56,"n_dots":2.85,"target":"left","response":"right","rt":335.79999995232,"correct":false,"confidence":5},{"trial_n":57,"n_dots":2.95,"target":"right","response":"right","rt":303.59999996424,"correct":true,"confidence":6},{"trial_n":58,"n_dots":2.95,"target":"right","response":"left","rt":330.20000004768,"correct":false,"confidence":4},{"trial_n":59,"n_dots":3.05,"target":"left","response":"left","rt":428.40000003576,"correct":true,"confidence":3},{"trial_n":60,"n_dots":3.05,"target":"right","response":"left","rt":1003.5,"correct":false,"confidence":2},{"trial_n":61,"n_dots":3.15,"target":"left","response":"left","rt":494.89999997616,"correct":true,"confidence":2},{"trial_n":62,"n_dots":3.15,"target":"left","response":"left","rt":296.60000002384,"correct":true,"confidence":4},{"trial_n":63,"n_dots":3.05,"target":"left","response":"left","rt":241.10000002384,"correct":true,"confidence":3},{"trial_n":64,"n_dots":3.05,"target":"right","response":"right","rt":630.60000002384,"correct":true,"confidence":2},{"trial_n":65,"n_dots":2.95,"target":"right","response":"right","rt":365.80000001192,"correct":true,"confidence":3},{"trial_n":66,"n_dots":2.95,"target":"left","response":"right","rt":382,"correct":false,"confidence":4},{"trial_n":67,"n_dots":3.05,"target":"right","response":"right","rt":272.59999996424,"correct":true,"confidence":3},{"trial_n":68,"n_dots":3.05,"target":"right","response":"right","rt":319.19999998808,"correct":true,"confidence":2},{"trial_n":69,"n_dots":2.95,"target":"left","response":"left","rt":398.89999997616,"correct":true,"confidence":2},{"trial_n":70,"n_dots":2.95,"target":"left","response":"right","rt":429.19999998808,"correct":false,"confidence":4},{"trial_n":71,"n_dots":3.05,"target":"left","response":"left","rt":733.19999998808,"correct":true,"confidence":2},{"trial_n":72,"n_dots":3.05,"target":"left","response":"right","rt":645.80000001192,"correct":false,"confidence":2},{"trial_n":73,"n_dots":3.15,"target":"right","response":"right","rt":596.40000003576,"correct":true,"confidence":2},{"trial_n":74,"n_dots":3.15,"target":"left","response":"left","rt":660.69999998808,"correct":true,"confidence":2},{"trial_n":75,"n_dots":3.05,"target":"left","response":"right","rt":1005.5999999642,"correct":false,"confidence":2},{"trial_n":76,"n_dots":3.15,"target":"right","response":"right","rt":475.80000001192,"correct":true,"confidence":3},{"trial_n":77,"n_dots":3.15,"target":"left","response":"right","rt":980.60000002384,"correct":false,"confidence":1},{"trial_n":78,"n_dots":3.25,"target":"right","response":"right","rt":650.60000002384,"correct":true,"confidence":2},{"trial_n":79,"n_dots":3.25,"target":"left","response":"left","rt":681.30000001192,"correct":true,"confidence":3},{"trial_n":80,"n_dots":3.15,"target":"right","response":"right","rt":764,"correct":true,"confidence":2},{"trial_n":81,"n_dots":3.15,"target":"right","response":"left","rt":1354.1000000238,"correct":false,"confidence":2},{"trial_n":82,"n_dots":3.25,"target":"right","response":"right","rt":301.80000001192,"correct":true,"confidence":5},{"trial_n":83,"n_dots":3.25,"target":"left","response":"left","rt":282,"correct":true,"confidence":5},{"trial_n":84,"n_dots":3.15,"target":"right","response":"left","rt":869.19999998808,"correct":false,"confidence":2},{"trial_n":85,"n_dots":3.25,"target":"right","response":"left","rt":577.39999997616,"correct":false,"confidence":2},{"trial_n":86,"n_dots":3.35,"target":"right","response":"left","rt":537.80000001192,"correct":false,"confidence":3},{"trial_n":87,"n_dots":3.45,"target":"left","response":"left","rt":623.59999996424,"correct":true,"confidence":3},{"trial_n":88,"n_dots":3.45,"target":"right","response":"right","rt":669.09999996424,"correct":true,"confidence":2},{"trial_n":89,"n_dots":3.35,"target":"right","response":"right","rt":462.40000003576,"correct":true,"confidence":2},{"trial_n":90,"n_dots":3.35,"target":"right","response":"right","rt":460.80000001192,"correct":true,"confidence":2},{"trial_n":91,"n_dots":3.25,"target":"right","response":"right","rt":394.10000002384,"correct":true,"confidence":2},{"trial_n":92,"n_dots":3.25,"target":"left","response":"left","rt":397,"correct":true,"confidence":3},{"trial_n":93,"n_dots":3.15,"target":"right","response":"right","rt":350.39999997616,"correct":true,"confidence":5},{"trial_n":94,"n_dots":3.15,"target":"right","response":"right","rt":509.39999997616,"correct":true,"confidence":2},{"trial_n":95,"n_dots":3.05,"target":"left","response":"right","rt":587.60000002384,"correct":false,"confidence":3},{"trial_n":96,"n_dots":3.15,"target":"left","response":"right","rt":377.30000001192,"correct":false,"confidence":3},{"trial_n":97,"n_dots":3.25,"target":"right","response":"right","rt":473.80000001192,"correct":true,"confidence":2},{"trial_n":98,"n_dots":3.25,"target":"right","response":"right","rt":459.30000001192,"correct":true,"confidence":4},{"trial_n":99,"n_dots":3.15,"target":"left","response":"left","rt":296.39999997616,"correct":true,"confidence":4},{"trial_n":100,"n_dots":3.15,"target":"right","response":"left","rt":1021.0999999642,"correct":false,"confidence":2},{"trial_n":101,"n_dots":3.25,"target":"left","response":"left","rt":966.80000001192,"correct":true,"confidence":2},{"trial_n":102,"n_dots":3.25,"target":"right","response":"right","rt":457.89999997616,"correct":true,"confidence":3},{"trial_n":103,"n_dots":3.15,"target":"left","response":"right","rt":888.30000001192,"correct":false,"confidence":3},{"trial_n":104,"n_dots":3.25,"target":"right","response":"right","rt":487.09999996424,"correct":true,"confidence":4},{"trial_n":105,"n_dots":3.25,"target":"left","response":"left","rt":790.30000001192,"correct":true,"confidence":2},{"trial_n":106,"n_dots":3.15,"target":"left","response":"right","rt":528,"correct":false,"confidence":2},{"trial_n":107,"n_dots":3.25,"target":"right","response":"right","rt":1101,"correct":true,"confidence":2},{"trial_n":108,"n_dots":3.25,"target":"right","response":"right","rt":1190.6000000238,"correct":true,"confidence":2},{"trial_n":109,"n_dots":3.15,"target":"right","response":"right","rt":1224.1999999881,"correct":true,"confidence":1},{"trial_n":110,"n_dots":3.15,"target":"right","response":"right","rt":871.89999997616,"correct":true,"confidence":3},{"trial_n":111,"n_dots":3.05,"target":"right","response":"right","rt":398.69999998808,"correct":true,"confidence":5},{"trial_n":112,"n_dots":3.05,"target":"left","response":"left","rt":544.80000001192,"correct":true,"confidence":4},{"trial_n":113,"n_dots":2.95,"target":"left","response":"right","rt":455.40000003576,"correct":false,"confidence":3},{"trial_n":114,"n_dots":3.05,"target":"left","response":"left","rt":280.90000003576,"correct":true,"confidence":1},{"trial_n":115,"n_dots":3.05,"target":"left","response":"right","rt":1115.3000000119,"correct":false,"confidence":3},{"trial_n":116,"n_dots":3.15,"target":"left","response":"left","rt":685.30000001192,"correct":true,"confidence":2},{"trial_n":117,"n_dots":3.15,"target":"right","response":"right","rt":1315,"correct":true,"confidence":4},{"trial_n":118,"n_dots":3.05,"target":"right","response":"left","rt":691.80000001192,"correct":false,"confidence":3},{"trial_n":119,"n_dots":3.15,"target":"left","response":"left","rt":577.30000001192,"correct":true,"confidence":2},{"trial_n":120,"n_dots":3.15,"target":"right","response":"left","rt":865.10000002384,"correct":false,"confidence":1},{"trial_n":121,"n_dots":3.25,"target":"right","response":"right","rt":355.19999998808,"correct":true,"confidence":3},{"trial_n":122,"n_dots":3.25,"target":"right","response":"left","rt":1390.0999999642,"correct":false,"confidence":1},{"trial_n":123,"n_dots":3.35,"target":"left","response":"right","rt":483.69999998808,"correct":false,"confidence":1},{"trial_n":124,"n_dots":3.45,"target":"left","response":"left","rt":343.69999998808,"correct":true,"confidence":3},{"trial_n":125,"n_dots":3.45,"target":"left","response":"left","rt":395.59999996424,"correct":true,"confidence":3},{"trial_n":126,"n_dots":3.35,"target":"left","response":"left","rt":700.09999996424,"correct":true,"confidence":2},{"trial_n":127,"n_dots":3.35,"target":"right","response":"right","rt":370.59999996424,"correct":true,"confidence":4},{"trial_n":128,"n_dots":3.25,"target":"left","response":"left","rt":474.30000001192,"correct":true,"confidence":3},{"trial_n":129,"n_dots":3.25,"target":"left","response":"left","rt":1014.5999999642,"correct":true,"confidence":2},{"trial_n":130,"n_dots":3.15,"target":"left","response":"left","rt":1406.3000000119,"correct":true,"confidence":1},{"trial_n":131,"n_dots":3.15,"target":"right","response":"left","rt":1139.5,"correct":false,"confidence":1},{"trial_n":132,"n_dots":3.25,"target":"left","response":"left","rt":814.19999998808,"correct":true,"confidence":4},{"trial_n":133,"n_dots":3.25,"target":"left","response":"right","rt":871.80000001192,"correct":false,"confidence":1},{"trial_n":134,"n_dots":3.35,"target":"left","response":"left","rt":1049.6000000238,"correct":true,"confidence":1},{"trial_n":135,"n_dots":3.35,"target":"right","response":"right","rt":592.19999998808,"correct":true,"confidence":2},{"trial_n":136,"n_dots":3.25,"target":"left","response":"left","rt":824.10000002384,"correct":true,"confidence":2},{"trial_n":137,"n_dots":3.25,"target":"left","response":"left","rt":373.59999996424,"correct":true,"confidence":3},{"trial_n":138,"n_dots":3.15,"target":"left","response":"left","rt":422.30000001192,"correct":true,"confidence":4},{"trial_n":139,"n_dots":3.15,"target":"left","response":"right","rt":1033.6000000238,"correct":false,"confidence":1},{"trial_n":140,"n_dots":3.25,"target":"left","response":"left","rt":370.30000001192,"correct":true,"confidence":4},{"trial_n":141,"n_dots":3.25,"target":"left","response":"left","rt":573.69999998808,"correct":true,"confidence":4},{"trial_n":142,"n_dots":3.15,"target":"right","response":"right","rt":447.19999998808,"correct":true,"confidence":3},{"trial_n":143,"n_dots":3.15,"target":"right","response":"left","rt":1158.8000000119,"correct":false,"confidence":1},{"trial_n":144,"n_dots":3.25,"target":"left","response":"left","rt":764.70000004768,"correct":true,"confidence":3},{"trial_n":145,"n_dots":3.25,"target":"right","response":"right","rt":591.80000001192,"correct":true,"confidence":2},{"trial_n":146,"n_dots":3.15,"target":"right","response":"right","rt":913.69999998808,"correct":true,"confidence":1},{"trial_n":147,"n_dots":3.15,"target":"right","response":"right","rt":627.5,"correct":true,"confidence":2},{"trial_n":148,"n_dots":3.05,"target":"left","response":"right","rt":1090.1999999881,"correct":false,"confidence":1},{"trial_n":149,"n_dots":3.15,"target":"right","response":"left","rt":588.09999996424,"correct":false,"confidence":1},{"trial_n":150,"n_dots":3.25,"target":"right","response":"right","rt":352.69999998808,"correct":true,"confidence":6},{"trial_n":151,"n_dots":3.25,"target":"left","response":"right","rt":794.90000003576,"correct":false,"confidence":1},{"trial_n":152,"n_dots":3.35,"target":"left","response":"left","rt":617.10000002384,"correct":true,"confidence":3},{"trial_n":153,"n_dots":3.35,"target":"left","response":"right","rt":1068.1000000238,"correct":false,"confidence":1},{"trial_n":154,"n_dots":3.45,"target":"right","response":"left","rt":1099.5,"correct":false,"confidence":1},{"trial_n":155,"n_dots":3.55,"target":"right","response":"right","rt":314.29999995232,"correct":true,"confidence":5},{"trial_n":156,"n_dots":3.55,"target":"left","response":"left","rt":266.39999997616,"correct":true,"confidence":3},{"trial_n":157,"n_dots":3.45,"target":"right","response":"right","rt":977.80000001192,"correct":true,"confidence":1},{"trial_n":158,"n_dots":3.45,"target":"left","response":"left","rt":507.40000003576,"correct":true,"confidence":3},{"trial_n":159,"n_dots":3.35,"target":"right","response":"left","rt":434.09999996424,"correct":false,"confidence":5},{"trial_n":160,"n_dots":3.45,"target":"right","response":"right","rt":210.60000002384,"correct":true,"confidence":6},{"trial_n":161,"n_dots":3.45,"target":"left","response":"left","rt":264.89999997616,"correct":true,"confidence":6},{"trial_n":162,"n_dots":3.35,"target":"right","response":"right","rt":370.30000001192,"correct":true,"confidence":3},{"trial_n":163,"n_dots":3.35,"target":"right","response":"right","rt":303.19999998808,"correct":true,"confidence":2},{"trial_n":164,"n_dots":3.25,"target":"right","response":"left","rt":1083.6999999881,"correct":false,"confidence":1},{"trial_n":165,"n_dots":3.35,"target":"left","response":"left","rt":680.90000003576,"correct":true,"confidence":1},{"trial_n":166,"n_dots":3.35,"target":"right","response":"right","rt":316.10000002384,"correct":true,"confidence":5},{"trial_n":167,"n_dots":3.25,"target":"right","response":"left","rt":1361.8000000119,"correct":false,"confidence":2},{"trial_n":168,"n_dots":3.35,"target":"right","response":"right","rt":159.70000004768,"correct":true,"confidence":3},{"trial_n":169,"n_dots":3.35,"target":"left","response":"left","rt":655.89999997616,"correct":true,"confidence":2},{"trial_n":170,"n_dots":3.25,"target":"left","response":"left","rt":1304.5,"correct":true,"confidence":1},{"trial_n":171,"n_dots":3.25,"target":"left","response":"left","rt":754.80000001192,"correct":true,"confidence":1},{"trial_n":172,"n_dots":3.15,"target":"right","response":"right","rt":408.69999998808,"correct":true,"confidence":1},{"trial_n":173,"n_dots":3.15,"target":"right","response":"right","rt":1569.3000000119,"correct":true,"confidence":1},{"trial_n":174,"n_dots":3.05,"target":"left","response":"left","rt":36.300000011921,"correct":true,"confidence":3},{"trial_n":175,"n_dots":3.05,"target":"left","response":"right","rt":930.09999996424,"correct":false,"confidence":1},{"trial_n":176,"n_dots":3.15,"target":"left","response":"left","rt":149.5,"correct":true,"confidence":2},{"trial_n":177,"n_dots":3.15,"target":"right","response":"right","rt":657.90000003576,"correct":true,"confidence":2},{"trial_n":178,"n_dots":3.05,"target":"right","response":"right","rt":670.10000002384,"correct":true,"confidence":2},{"trial_n":179,"n_dots":3.05,"target":"right","response":"left","rt":1212,"correct":false,"confidence":2},{"trial_n":180,"n_dots":3.15,"target":"left","response":"left","rt":997.10000002384,"correct":true,"confidence":2},{"trial_n":181,"n_dots":3.15,"target":"right","response":"right","rt":546.5,"correct":true,"confidence":3},{"trial_n":182,"n_dots":3.05,"target":"right","response":"left","rt":481.80000001192,"correct":false,"confidence":3},{"trial_n":183,"n_dots":3.15,"target":"right","response":"right","rt":517.5,"correct":true,"confidence":5},{"trial_n":184,"n_dots":3.15,"target":"left","response":"left","rt":441,"correct":true,"confidence":5},{"trial_n":185,"n_dots":3.05,"target":"right","response":"right","rt":299.10000002384,"correct":true,"confidence":6},{"trial_n":186,"n_dots":3.05,"target":"left","response":"left","rt":808.30000001192,"correct":true,"confidence":3},{"trial_n":187,"n_dots":2.95,"target":"right","response":"right","rt":577,"correct":true,"confidence":2},{"trial_n":188,"n_dots":2.95,"target":"right","response":"left","rt":1324.3000000119,"correct":false,"confidence":3},{"trial_n":189,"n_dots":3.05,"target":"left","response":"left","rt":1038.3000000119,"correct":true,"confidence":2},{"trial_n":190,"n_dots":3.05,"target":"left","response":"left","rt":424.5,"correct":true,"confidence":4},{"trial_n":191,"n_dots":2.95,"target":"left","response":"right","rt":1182.2000000477,"correct":false,"confidence":1},{"trial_n":192,"n_dots":3.05,"target":"right","response":"right","rt":314.19999998808,"correct":true,"confidence":5},{"trial_n":193,"n_dots":3.05,"target":"left","response":"left","rt":296.30000001192,"correct":true,"confidence":4},{"trial_n":194,"n_dots":2.95,"target":"right","response":"right","rt":521.19999998808,"correct":true,"confidence":4}]