[{"trial_n":1,"n_dots":4.25,"target":"left","response":"left","rt":9970,"correct":true,"confidence":-1},{"trial_n":2,"n_dots":4.25,"target":"left","response":"right","rt":1776,"correct":false,"confidence":-1},{"trial_n":3,"n_dots":4.65,"target":"right","response":"left","rt":1204,"correct":false,"confidence":-1},{"trial_n":4,"n_dots":5.05,"target":"left","response":"left","rt":565,"correct":true,"confidence":-1},{"trial_n":5,"n_dots":5.05,"target":"left","response":"left","rt":48,"correct":true,"confidence":-1},{"trial_n":6,"n_dots":4.65,"target":"left","response":"left","rt":797,"correct":true,"confidence":-1},{"trial_n":7,"n_dots":4.65,"target":"left","response":"left","rt":558.00000000003,"correct":true,"confidence":-1},{"trial_n":8,"n_dots":4.45,"target":"left","response":"left","rt":677.00000000003,"correct":true,"confidence":-1},{"trial_n":9,"n_dots":4.45,"target":"right","response":"right","rt":322.00000000003,"correct":true,"confidence":-1},{"trial_n":10,"n_dots":4.25,"target":"right","response":"right","rt":310,"correct":true,"confidence":-1},{"trial_n":11,"n_dots":4.25,"target":"left","response":"left","rt":240,"correct":true,"confidence":-1},{"trial_n":12,"n_dots":4.05,"target":"right","response":"left","rt":1005,"correct":false,"confidence":-1},{"trial_n":13,"n_dots":4.15,"target":"left","response":"left","rt":272.00000000006,"correct":true,"confidence":-1},{"trial_n":14,"n_dots":4.15,"target":"left","response":"left","rt":296.00000000006,"correct":true,"confidence":-1},{"trial_n":15,"n_dots":4.05,"target":"right","response":"right","rt":826,"correct":true,"confidence":-1},{"trial_n":16,"n_dots":4.05,"target":"left","response":"left","rt":172,"correct":true,"confidence":-1},{"trial_n":17,"n_dots":3.95,"target":"right","response":"right","rt":692,"correct":true,"confidence":-1},{"trial_n":18,"n_dots":3.95,"target":"right","response":"right","rt":769,"correct":true,"confidence":-1},{"trial_n":19,"n_dots":3.85,"target":"left","response":"left","rt":243,"correct":true,"confidence":-1},{"trial_n":20,"n_dots":3.85,"target":"left","response":"left","rt":1388.9999999999,"correct":true,"confidence":-1},{"trial_n":21,"n_dots":3.75,"target":"left","response":"right","rt":461,"correct":false,"confidence":-1},{"trial_n":22,"n_dots":3.85,"target":"left","response":"left","rt":936,"correct":true,"confidence":-1},{"trial_n":23,"n_dots":3.85,"target":"right","response":"right","rt":207,"correct":true,"confidence":-1},{"trial_n":24,"n_dots":3.75,"target":"right","response":"right","rt":268,"correct":true,"confidence":-1},{"trial_n":25,"n_dots":3.75,"target":"left","response":"left","rt":174,"correct":true,"confidence":-1},{"trial_n":26,"n_dots":3.65,"target":"right","response":"left","rt":451,"correct":false,"confidence":-1},{"trial_n":27,"n_dots":3.75,"target":"right","response":"right","rt":216,"correct":true,"confidence":6},{"trial_n":28,"n_dots":3.75,"target":"right","response":"right","rt":430,"correct":true,"confidence":5},{"trial_n":29,"n_dots":3.65,"target":"left","response":"left","rt":569,"correct":true,"confidence":3},{"trial_n":30,"n_dots":3.65,"target":"left","response":"left","rt":481,"correct":true,"confidence":4},{"trial_n":31,"n_dots":3.55,"target":"left","response":"left","rt":467.00000000006,"correct":true,"confidence":4},{"trial_n":32,"n_dots":3.55,"target":"left","response":"left","rt":166,"correct":true,"confidence":4},{"trial_n":33,"n_dots":3.45,"target":"right","response":"right","rt":540.99999999994,"correct":true,"confidence":4},{"trial_n":34,"n_dots":3.45,"target":"left","response":"left","rt":495,"correct":true,"confidence":3},{"trial_n":35,"n_dots":3.35,"target":"left","response":"right","rt":164,"correct":false,"confidence":1},{"trial_n":36,"n_dots":3.45,"target":"left","response":"left","rt":470,"correct":true,"confidence":2},{"trial_n":37,"n_dots":3.45,"target":"right","response":"left","rt":638,"correct":false,"confidence":3},{"trial_n":38,"n_dots":3.55,"target":"right","response":"right","rt":949,"correct":true,"confidence":2},{"trial_n":39,"n_dots":3.55,"target":"right","response":"left","rt":367.99999999994,"correct":false,"confidence":2},{"trial_n":40,"n_dots":3.65,"target":"right","response":"right","rt":351.99999999994,"correct":true,"confidence":2},{"trial_n":41,"n_dots":3.65,"target":"right","response":"right","rt":228.00000000006,"correct":true,"confidence":3},{"trial_n":42,"n_dots":3.55,"target":"right","response":"right","rt":488.00000000012,"correct":true,"confidence":4},{"trial_n":43,"n_dots":3.55,"target":"right","response":"right","rt":118,"correct":true,"confidence":5},{"trial_n":44,"n_dots":3.45,"target":"right","response":"right","rt":202,"correct":true,"confidence":4},{"trial_n":45,"n_dots":3.45,"target":"left","response":"left","rt":206,"correct":true,"confidence":4},{"trial_n":46,"n_dots":3.35,"target":"left","response":"left","rt":150,"correct":true,"confidence":4},{"trial_n":47,"n_dots":3.35,"target":"left","response":"left","rt":366,"correct":true,"confidence":4},{"trial_n":48,"n_dots":3.25,"target":"left","response":"left","rt":710,"correct":true,"confidence":4},{"trial_n":49,"n_dots":3.25,"target":"right","response":"right","rt":408,"correct":true,"confidence":4},{"trial_n":50,"n_dots":3.15,"target":"right","response":"right","rt":423,"correct":true,"confidence":4},{"trial_n":51,"n_dots":3.15,"target":"right","response":"right","rt":675,"correct":true,"confidence":3},{"trial_n":52,"n_dots":3.05,"target":"right","response":"right","rt":683.99999999988,"correct":true,"confidence":3},{"trial_n":53,"n_dots":3.05,"target":"right","response":"left","rt":382,"correct":false,"confidence":3},{"trial_n":54,"n_dots":3.15,"target":"right","response":"right","rt":234,"correct":true,"confidence":3},{"trial_n":55,"n_dots":3.15,"target":"left","response":"left","rt":228,"correct":true,"confidence":4},{"trial_n":56,"n_dots":3.05,"target":"left","response":"left","rt":363,"correct":true,"confidence":3},{"trial_n":57,"n_dots":3.05,"target":"left","response":"left","rt":312,"correct":true,"confidence":3},{"trial_n":58,"n_dots":2.95,"target":"right","response":"left","rt":311,"correct":false,"confidence":2},{"trial_n":59,"n_dots":3.05,"target":"left","response":"left","rt":617,"correct":true,"confidence":3},{"trial_n":60,"n_dots":3.05,"target":"right","response":"left","rt":121,"correct":false,"confidence":3},{"trial_n":61,"n_dots":3.15,"target":"right","response":"right","rt":98,"correct":true,"confidence":3},{"trial_n":62,"n_dots":3.15,"target":"left","response":"left","rt":138,"correct":true,"confidence":3},{"trial_n":63,"n_dots":3.05,"target":"left","response":"right","rt":772,"correct":false,"confidence":3},{"trial_n":64,"n_dots":3.15,"target":"left","response":"left","rt":232,"correct":true,"confidence":3},{"trial_n":65,"n_dots":3.15,"target":"left","response":"left","rt":350,"correct":true,"confidence":3},{"trial_n":66,"n_dots":3.05,"target":"right","response":"left","rt":505,"correct":false,"confidence":2},{"trial_n":67,"n_dots":3.15,"target":"left","response":"left","rt":470,"correct":true,"confidence":2},{"trial_n":68,"n_dots":3.15,"target":"right","response":"left","rt":256,"correct":false,"confidence":2},{"trial_n":69,"n_dots":3.25,"target":"left","response":"left","rt":252,"correct":true,"confidence":2},{"trial_n":70,"n_dots":3.25,"target":"right","response":"left","rt":521,"correct":false,"confidence":3},{"trial_n":71,"n_dots":3.35,"target":"right","response":"right","rt":414,"correct":true,"confidence":3},{"trial_n":72,"n_dots":3.35,"target":"right","response":"right","rt":360,"correct":true,"confidence":3},{"trial_n":73,"n_dots":3.25,"target":"left","response":"left","rt":178,"correct":true,"confidence":3},{"trial_n":74,"n_dots":3.25,"target":"right","response":"right","rt":338,"correct":true,"confidence":2},{"trial_n":75,"n_dots":3.15,"target":"right","response":"right","rt":223.99999999988,"correct":true,"confidence":2},{"trial_n":76,"n_dots":3.15,"target":"right","response":"right","rt":484,"correct":true,"confidence":2},{"trial_n":77,"n_dots":3.05,"target":"left","response":"right","rt":434,"correct":false,"confidence":2},{"trial_n":78,"n_dots":3.15,"target":"right","response":"left","rt":422,"correct":false,"confidence":1},{"trial_n":79,"n_dots":3.25,"target":"left","response":"left","rt":418,"correct":true,"confidence":1},{"trial_n":80,"n_dots":3.25,"target":"left","response":"left","rt":506,"correct":true,"confidence":1},{"trial_n":81,"n_dots":3.15,"target":"left","response":"right","rt":406,"correct":false,"confidence":1},{"trial_n":82,"n_dots":3.25,"target":"left","response":"left","rt":397.99999999988,"correct":true,"confidence":1},{"trial_n":83,"n_dots":3.25,"target":"left","response":"left","rt":319,"correct":true,"confidence":1},{"trial_n":84,"n_dots":3.15,"target":"left","response":"left","rt":123,"correct":true,"confidence":1},{"trial_n":85,"n_dots":3.15,"target":"right","response":"right","rt":1121.9999999999,"correct":true,"confidence":1},{"trial_n":86,"n_dots":3.05,"target":"right","response":"left","rt":161,"correct":false,"confidence":2},{"trial_n":87,"n_dots":3.15,"target":"right","response":"right","rt":260,"correct":true,"confidence":2},{"trial_n":88,"n_dots":3.15,"target":"left","response":"left","rt":263,"correct":true,"confidence":3},{"trial_n":89,"n_dots":3.05,"target":"left","response":"left","rt":188.99999999988,"correct":true,"confidence":3},{"trial_n":90,"n_dots":3.05,"target":"right","response":"left","rt":189,"correct":false,"confidence":2},{"trial_n":91,"n_dots":3.15,"target":"right","response":"left","rt":147.00000000012,"correct":false,"confidence":2},{"trial_n":92,"n_dots":3.25,"target":"right","response":"right","rt":188,"correct":true,"confidence":3},{"trial_n":93,"n_dots":3.25,"target":"left","response":"left","rt":1473.0000000001,"correct":true,"confidence":2},{"trial_n":94,"n_dots":3.15,"target":"right","response":"left","rt":633,"correct":false,"confidence":2},{"trial_n":95,"n_dots":3.25,"target":"right","response":"right","rt":316.99999999988,"correct":true,"confidence":2},{"trial_n":96,"n_dots":3.25,"target":"right","response":"left","rt":296,"correct":false,"confidence":1},{"trial_n":97,"n_dots":3.35,"target":"right","response":"right","rt":222,"correct":true,"confidence":3},{"trial_n":98,"n_dots":3.35,"target":"left","response":"left","rt":103.99999999988,"correct":true,"confidence":4},{"trial_n":99,"n_dots":3.25,"target":"right","response":"right","rt":120,"correct":true,"confidence":4},{"trial_n":100,"n_dots":3.25,"target":"left","response":"left","rt":49,"correct":true,"confidence":4},{"trial_n":101,"n_dots":3.15,"target":"left","response":"left","rt":222,"correct":true,"confidence":4},{"trial_n":102,"n_dots":3.15,"target":"left","response":"left","rt":250,"correct":true,"confidence":3},{"trial_n":103,"n_dots":3.05,"target":"right","response":"left","rt":514,"correct":false,"confidence":1},{"trial_n":104,"n_dots":3.15,"target":"left","response":"left","rt":122.99999999988,"correct":true,"confidence":3},{"trial_n":105,"n_dots":3.15,"target":"left","response":"left","rt":256,"correct":true,"confidence":3},{"trial_n":106,"n_dots":3.05,"target":"right","response":"left","rt":519,"correct":false,"confidence":3},{"trial_n":107,"n_dots":3.15,"target":"left","response":"left","rt":526,"correct":true,"confidence":3},{"trial_n":108,"n_dots":3.15,"target":"left","response":"left","rt":332.99999999988,"correct":true,"confidence":3},{"trial_n":109,"n_dots":3.05,"target":"left","response":"left","rt":574,"correct":true,"confidence":4},{"trial_n":110,"n_dots":3.05,"target":"left","response":"left","rt":413,"correct":true,"confidence":4},{"trial_n":111,"n_dots":2.95,"target":"right","response":"left","rt":1726.0000000001,"correct":false,"confidence":1},{"trial_n":112,"n_dots":3.05,"target":"right","response":"left","rt":476,"correct":false,"confidence":2},{"trial_n":113,"n_dots":3.15,"target":"left","response":"left","rt":529,"correct":true,"confidence":3},{"trial_n":114,"n_dots":3.15,"target":"left","response":"left","rt":256.99999999988,"correct":true,"confidence":4},{"trial_n":115,"n_dots":3.05,"target":"right","response":"left","rt":191,"correct":false,"confidence":4},{"trial_n":116,"n_dots":3.15,"target":"left","response":"left","rt":257.00000000012,"correct":true,"confidence":2},{"trial_n":117,"n_dots":3.15,"target":"left","response":"left","rt":384,"correct":true,"confidence":3},{"trial_n":118,"n_dots":3.05,"target":"left","response":"right","rt":284,"correct":false,"confidence":2},{"trial_n":119,"n_dots":3.15,"target":"left","response":"left","rt":108,"correct":true,"confidence":3},{"trial_n":120,"n_dots":3.15,"target":"right","response":"right","rt":931.00000000012,"correct":true,"confidence":4},{"trial_n":121,"n_dots":3.05,"target":"left","response":"left","rt":730.99999999988,"correct":true,"confidence":4},{"trial_n":122,"n_dots":3.05,"target":"right","response":"right","rt":232.00000000012,"correct":true,"confidence":4},{"trial_n":123,"n_dots":2.95,"target":"right","response":"right","rt":434,"correct":true,"confidence":1},{"trial_n":124,"n_dots":2.95,"target":"left","response":"left","rt":530,"correct":true,"confidence":2},{"trial_n":125,"n_dots":2.85,"target":"right","response":"left","rt":562.00000000012,"correct":false,"confidence":2},{"trial_n":126,"n_dots":2.95,"target":"right","response":"left","rt":587,"correct":false,"confidence":2},{"trial_n":127,"n_dots":3.05,"target":"left","response":"left","rt":263.00000000012,"correct":true,"confidence":2},{"trial_n":128,"n_dots":3.05,"target":"right","response":"left","rt":428.99999999988,"correct":false,"confidence":2},{"trial_n":129,"n_dots":3.15,"target":"left","response":"left","rt":281.99999999988,"correct":true,"confidence":2},{"trial_n":130,"n_dots":3.15,"target":"right","response":"left","rt":500,"correct":false,"confidence":3},{"trial_n":131,"n_dots":3.25,"target":"right","response":"right","rt":774,"correct":true,"confidence":2},{"trial_n":132,"n_dots":3.25,"target":"right","response":"right","rt":438,"correct":true,"confidence":2},{"trial_n":133,"n_dots":3.15,"target":"left","response":"left","rt":251,"correct":true,"confidence":2},{"trial_n":134,"n_dots":3.15,"target":"right","response":"right","rt":149.99999999988,"correct":true,"confidence":3},{"trial_n":135,"n_dots":3.05,"target":"left","response":"left","rt":114,"correct":true,"confidence":4},{"trial_n":136,"n_dots":3.05,"target":"left","response":"left","rt":117,"correct":true,"confidence":4},{"trial_n":137,"n_dots":2.95,"target":"right","response":"left","rt":307,"correct":false,"confidence":3},{"trial_n":138,"n_dots":3.05,"target":"right","response":"right","rt":195.00000000012,"correct":true,"confidence":3},{"trial_n":139,"n_dots":3.05,"target":"right","response":"right","rt":373.99999999988,"correct":true,"confidence":4},{"trial_n":140,"n_dots":2.95,"target":"right","response":"left","rt":848,"correct":false,"confidence":3},{"trial_n":141,"n_dots":3.05,"target":"left","response":"left","rt":251,"correct":true,"confidence":2},{"trial_n":142,"n_dots":3.05,"target":"left","response":"left","rt":925,"correct":true,"confidence":2},{"trial_n":143,"n_dots":2.95,"target":"right","response":"left","rt":622,"correct":false,"confidence":3},{"trial_n":144,"n_dots":3.05,"target":"right","response":"right","rt":1674,"correct":true,"confidence":4},{"trial_n":145,"n_dots":3.05,"target":"left","response":"left","rt":565,"correct":true,"confidence":4},{"trial_n":146,"n_dots":2.95,"target":"left","response":"left","rt":460.99999999988,"correct":true,"confidence":3},{"trial_n":147,"n_dots":2.95,"target":"right","response":"left","rt":490,"correct":false,"confidence":1},{"trial_n":148,"n_dots":3.05,"target":"right","response":"right","rt":313.99999999988,"correct":true,"confidence":1},{"trial_n":149,"n_dots":3.05,"target":"left","response":"left","rt":144,"correct":true,"confidence":2},{"trial_n":150,"n_dots":2.95,"target":"right","response":"right","rt":264,"correct":true,"confidence":2},{"trial_n":151,"n_dots":2.95,"target":"right","response":"left","rt":302,"correct":false,"confidence":2},{"trial_n":152,"n_dots":3.05,"target":"left","response":"left","rt":408,"correct":true,"confidence":2},{"trial_n":153,"n_dots":3.05,"target":"right","response":"left","rt":309,"correct":false,"confidence":2},{"trial_n":154,"n_dots":3.15,"target":"left","response":"left","rt":234.99999999988,"correct":true,"confidence":3},{"trial_n":155,"n_dots":3.15,"target":"right","response":"right","rt":1187,"correct":true,"confidence":2},{"trial_n":156,"n_dots":3.05,"target":"right","response":"left","rt":452,"correct":false,"confidence":2},{"trial_n":157,"n_dots":3.15,"target":"right","response":"right","rt":473,"correct":true,"confidence":3},{"trial_n":158,"n_dots":3.15,"target":"left","response":"left","rt":150.99999999988,"correct":true,"confidence":4},{"trial_n":159,"n_dots":3.05,"target":"left","response":"left","rt":608.00000000012,"correct":true,"confidence":3},{"trial_n":160,"n_dots":3.05,"target":"left","response":"left","rt":440,"correct":true,"confidence":2},{"trial_n":161,"n_dots":2.95,"target":"right","response":"left","rt":495.99999999988,"correct":false,"confidence":2},{"trial_n":162,"n_dots":3.05,"target":"right","response":"right","rt":765,"correct":true,"confidence":3},{"trial_n":163,"n_dots":3.05,"target":"left","response":"left","rt":386,"correct":true,"confidence":2},{"trial_n":164,"n_dots":2.95,"target":"right","response":"right","rt":95,"correct":true,"confidence":2},{"trial_n":165,"n_dots":2.95,"target":"right","response":"left","rt":407,"correct":false,"confidence":2},{"trial_n":166,"n_dots":3.05,"target":"right","response":"right","rt":1151.9999999999,"correct":true,"confidence":3},{"trial_n":167,"n_dots":3.05,"target":"left","response":"left","rt":242.99999999988,"correct":true,"confidence":4},{"trial_n":168,"n_dots":2.95,"target":"left","response":"left","rt":105,"correct":true,"confidence":3},{"trial_n":169,"n_dots":2.95,"target":"left","response":"right","rt":249.00000000012,"correct":false,"confidence":3},{"trial_n":170,"n_dots":3.05,"target":"right","response":"left","rt":1456.0000000001,"correct":false,"confidence":2},{"trial_n":171,"n_dots":3.15,"target":"right","response":"left","rt":635,"correct":false,"confidence":2},{"trial_n":172,"n_dots":3.25,"target":"right","response":"right","rt":501.99999999988,"correct":true,"confidence":3},{"trial_n":173,"n_dots":3.25,"target":"left","response":"left","rt":155,"correct":true,"confidence":3},{"trial_n":174,"n_dots":3.15,"target":"left","response":"right","rt":249,"correct":false,"confidence":2},{"trial_n":175,"n_dots":3.25,"target":"left","response":"left","rt":1022,"correct":true,"confidence":3},{"trial_n":176,"n_dots":3.25,"target":"right","response":"left","rt":851,"correct":false,"confidence":3},{"trial_n":177,"n_dots":3.35,"target":"left","response":"left","rt":426,"correct":true,"confidence":2},{"trial_n":178,"n_dots":3.35,"target":"left","response":"left","rt":756,"correct":true,"confidence":2},{"trial_n":179,"n_dots":3.25,"target":"right","response":"right","rt":302,"correct":true,"confidence":3},{"trial_n":180,"n_dots":3.25,"target":"left","response":"left","rt":121,"correct":true,"confidence":4},{"trial_n":181,"n_dots":3.15,"target":"left","response":"left","rt":847,"correct":true,"confidence":4},{"trial_n":182,"n_dots":3.15,"target":"right","response":"left","rt":460,"correct":false,"confidence":3},{"trial_n":183,"n_dots":3.25,"target":"left","response":"left","rt":138.00000000023,"correct":true,"confidence":4},{"trial_n":184,"n_dots":3.25,"target":"left","response":"left","rt":320,"correct":true,"confidence":4},{"trial_n":185,"n_dots":3.15,"target":"left","response":"left","rt":274,"correct":true,"confidence":3},{"trial_n":186,"n_dots":3.15,"target":"right","response":"right","rt":334,"correct":true,"confidence":3},{"trial_n":187,"n_dots":3.05,"target":"right","response":"right","rt":506.99999999977,"correct":true,"confidence":3},{"trial_n":188,"n_dots":3.05,"target":"left","response":"left","rt":578,"correct":true,"confidence":3},{"trial_n":189,"n_dots":2.95,"target":"left","response":"left","rt":418,"correct":true,"confidence":4},{"trial_n":190,"n_dots":2.95,"target":"right","response":"left","rt":241,"correct":false,"confidence":3},{"trial_n":191,"n_dots":3.05,"target":"right","response":"left","rt":345,"correct":false,"confidence":3},{"trial_n":192,"n_dots":3.15,"target":"right","response":"left","rt":706,"correct":false,"confidence":2},{"trial_n":193,"n_dots":3.25,"target":"right","response":"left","rt":677,"correct":false,"confidence":2},{"trial_n":194,"n_dots":3.35,"target":"right","response":"left","rt":301,"correct":false,"confidence":2}]