[{"trial_n":1,"n_dots":4.25,"target":"left","response":"right","rt":4033,"correct":false,"confidence":-1},{"trial_n":2,"n_dots":4.25,"target":"left","response":"left","rt":847,"correct":true,"confidence":-1},{"trial_n":3,"n_dots":4.25,"target":"left","response":"left","rt":538,"correct":true,"confidence":-1},{"trial_n":4,"n_dots":3.85,"target":"left","response":"left","rt":517,"correct":true,"confidence":-1},{"trial_n":5,"n_dots":3.85,"target":"left","response":"right","rt":713,"correct":false,"confidence":-1},{"trial_n":6,"n_dots":4.25,"target":"right","response":"right","rt":372,"correct":true,"confidence":-1},{"trial_n":7,"n_dots":4.25,"target":"right","response":"left","rt":1216,"correct":false,"confidence":-1},{"trial_n":8,"n_dots":4.45,"target":"left","response":"left","rt":437,"correct":true,"confidence":-1},{"trial_n":9,"n_dots":4.45,"target":"right","response":"right","rt":396,"correct":true,"confidence":-1},{"trial_n":10,"n_dots":4.25,"target":"right","response":"right","rt":404,"correct":true,"confidence":-1},{"trial_n":11,"n_dots":4.25,"target":"left","response":"left","rt":503,"correct":true,"confidence":-1},{"trial_n":12,"n_dots":4.05,"target":"right","response":"right","rt":371,"correct":true,"confidence":-1},{"trial_n":13,"n_dots":4.05,"target":"left","response":"right","rt":737,"correct":false,"confidence":-1},{"trial_n":14,"n_dots":4.15,"target":"right","response":"right","rt":362,"correct":true,"confidence":-1},{"trial_n":15,"n_dots":4.15,"target":"left","response":"left","rt":109,"correct":true,"confidence":-1},{"trial_n":16,"n_dots":4.05,"target":"right","response":"right","rt":327,"correct":true,"confidence":-1},{"trial_n":17,"n_dots":4.05,"target":"right","response":"right","rt":377,"correct":true,"confidence":-1},{"trial_n":18,"n_dots":3.95,"target":"right","response":"right","rt":386,"correct":true,"confidence":-1},{"trial_n":19,"n_dots":3.95,"target":"left","response":"right","rt":452,"correct":false,"confidence":-1},{"trial_n":20,"n_dots":4.05,"target":"right","response":"right","rt":317,"correct":true,"confidence":-1},{"trial_n":21,"n_dots":4.05,"target":"right","response":"right","rt":343,"correct":true,"confidence":-1},{"trial_n":22,"n_dots":3.95,"target":"left","response":"left","rt":420,"correct":true,"confidence":-1},{"trial_n":23,"n_dots":3.95,"target":"right","response":"right","rt":323,"correct":true,"confidence":-1},{"trial_n":24,"n_dots":3.85,"target":"left","response":"left","rt":377,"correct":true,"confidence":-1},{"trial_n":25,"n_dots":3.85,"target":"right","response":"right","rt":447,"correct":true,"confidence":-1},{"trial_n":26,"n_dots":3.75,"target":"right","response":"right","rt":443,"correct":true,"confidence":-1},{"trial_n":27,"n_dots":3.75,"target":"right","response":"right","rt":896,"correct":true,"confidence":2},{"trial_n":28,"n_dots":3.65,"target":"right","response":"right","rt":547,"correct":true,"confidence":6},{"trial_n":29,"n_dots":3.65,"target":"right","response":"right","rt":774,"correct":true,"confidence":6},{"trial_n":30,"n_dots":3.55,"target":"right","response":"right","rt":2369,"correct":true,"confidence":2},{"trial_n":31,"n_dots":3.55,"target":"right","response":"right","rt":1073,"correct":true,"confidence":2},{"trial_n":32,"n_dots":3.45,"target":"left","response":"left","rt":585,"correct":true,"confidence":6},{"trial_n":33,"n_dots":3.45,"target":"right","response":"right","rt":1860,"correct":true,"confidence":2},{"trial_n":34,"n_dots":3.35,"target":"left","response":"left","rt":1391,"correct":true,"confidence":2},{"trial_n":35,"n_dots":3.35,"target":"left","response":"left","rt":518,"correct":true,"confidence":5},{"trial_n":36,"n_dots":3.25,"target":"right","response":"left","rt":730,"correct":false,"confidence":5},{"trial_n":37,"n_dots":3.35,"target":"right","response":"right","rt":496,"correct":true,"confidence":6},{"trial_n":38,"n_dots":3.35,"target":"right","response":"right","rt":488,"correct":true,"confidence":1},{"trial_n":39,"n_dots":3.25,"target":"left","response":"right","rt":784,"correct":false,"confidence":5},{"trial_n":40,"n_dots":3.35,"target":"right","response":"right","rt":582,"correct":true,"confidence":3},{"trial_n":41,"n_dots":3.35,"target":"right","response":"right","rt":2511,"correct":true,"confidence":2},{"trial_n":42,"n_dots":3.25,"target":"right","response":"right","rt":569,"correct":true,"confidence":3},{"trial_n":43,"n_dots":3.25,"target":"left","response":"left","rt":812,"correct":true,"confidence":4},{"trial_n":44,"n_dots":3.15,"target":"right","response":"right","rt":384,"correct":true,"confidence":6},{"trial_n":45,"n_dots":3.15,"target":"right","response":"right","rt":669,"correct":true,"confidence":2},{"trial_n":46,"n_dots":3.05,"target":"left","response":"left","rt":692,"correct":true,"confidence":3},{"trial_n":47,"n_dots":3.05,"target":"left","response":"left","rt":595,"correct":true,"confidence":2},{"trial_n":48,"n_dots":2.95,"target":"right","response":"right","rt":23955,"correct":true,"confidence":1},{"trial_n":49,"n_dots":2.95,"target":"left","response":"right","rt":1612,"correct":false,"confidence":2},{"trial_n":50,"n_dots":3.05,"target":"left","response":"left","rt":1072,"correct":true,"confidence":2},{"trial_n":51,"n_dots":3.05,"target":"right","response":"left","rt":4896,"correct":false,"confidence":1},{"trial_n":52,"n_dots":3.15,"target":"left","response":"left","rt":1175,"correct":true,"confidence":3},{"trial_n":53,"n_dots":3.15,"target":"right","response":"right","rt":13465,"correct":true,"confidence":5},{"trial_n":54,"n_dots":3.05,"target":"left","response":"left","rt":628,"correct":true,"confidence":6},{"trial_n":55,"n_dots":3.05,"target":"right","response":"left","rt":650,"correct":false,"confidence":6},{"trial_n":56,"n_dots":3.15,"target":"left","response":"left","rt":538,"correct":true,"confidence":3},{"trial_n":57,"n_dots":3.15,"target":"left","response":"right","rt":1738,"correct":false,"confidence":1},{"trial_n":58,"n_dots":3.25,"target":"right","response":"right","rt":771,"correct":true,"confidence":6},{"trial_n":59,"n_dots":3.25,"target":"left","response":"left","rt":741,"correct":true,"confidence":4},{"trial_n":60,"n_dots":3.15,"target":"right","response":"right","rt":511,"correct":true,"confidence":5},{"trial_n":61,"n_dots":3.15,"target":"right","response":"right","rt":627,"correct":true,"confidence":5},{"trial_n":62,"n_dots":3.05,"target":"left","response":"left","rt":794,"correct":true,"confidence":5},{"trial_n":63,"n_dots":3.05,"target":"right","response":"right","rt":670,"correct":true,"confidence":4},{"trial_n":64,"n_dots":2.95,"target":"right","response":"right","rt":616,"correct":true,"confidence":6},{"trial_n":65,"n_dots":2.95,"target":"left","response":"left","rt":694,"correct":true,"confidence":6},{"trial_n":66,"n_dots":2.85,"target":"left","response":"left","rt":511,"correct":true,"confidence":6},{"trial_n":67,"n_dots":2.85,"target":"right","response":"right","rt":1720,"correct":true,"confidence":3},{"trial_n":68,"n_dots":2.75,"target":"right","response":"right","rt":679,"correct":true,"confidence":3},{"trial_n":69,"n_dots":2.75,"target":"right","response":"left","rt":676,"correct":false,"confidence":3},{"trial_n":70,"n_dots":2.85,"target":"left","response":"left","rt":575,"correct":true,"confidence":3},{"trial_n":71,"n_dots":2.85,"target":"right","response":"left","rt":510,"correct":false,"confidence":3},{"trial_n":72,"n_dots":2.95,"target":"left","response":"left","rt":524,"correct":true,"confidence":4},{"trial_n":73,"n_dots":2.95,"target":"right","response":"right","rt":523,"correct":true,"confidence":3},{"trial_n":74,"n_dots":2.85,"target":"left","response":"left","rt":445,"correct":true,"confidence":4},{"trial_n":75,"n_dots":2.85,"target":"right","response":"left","rt":572,"correct":false,"confidence":3},{"trial_n":76,"n_dots":2.95,"target":"left","response":"left","rt":549,"correct":true,"confidence":4},{"trial_n":77,"n_dots":2.95,"target":"left","response":"left","rt":450,"correct":true,"confidence":4},{"trial_n":78,"n_dots":2.85,"target":"right","response":"right","rt":516,"correct":true,"confidence":4},{"trial_n":79,"n_dots":2.85,"target":"left","response":"right","rt":588,"correct":false,"confidence":4},{"trial_n":80,"n_dots":2.95,"target":"right","response":"right","rt":771,"correct":true,"confidence":3},{"trial_n":81,"n_dots":2.95,"target":"left","response":"left","rt":489,"correct":true,"confidence":4},{"trial_n":82,"n_dots":2.85,"target":"right","response":"left","rt":473,"correct":false,"confidence":4},{"trial_n":83,"n_dots":2.95,"target":"right","response":"right","rt":406,"correct":true,"confidence":4},{"trial_n":84,"n_dots":2.95,"target":"right","response":"left","rt":666,"correct":false,"confidence":3},{"trial_n":85,"n_dots":3.05,"target":"left","response":"left","rt":684,"correct":true,"confidence":4},{"trial_n":86,"n_dots":3.05,"target":"right","response":"right","rt":406,"correct":true,"confidence":6},{"trial_n":87,"n_dots":2.95,"target":"right","response":"right","rt":509,"correct":true,"confidence":6},{"trial_n":88,"n_dots":2.95,"target":"left","response":"left","rt":500,"correct":true,"confidence":5},{"trial_n":89,"n_dots":2.85,"target":"left","response":"left","rt":354,"correct":true,"confidence":4},{"trial_n":90,"n_dots":2.85,"target":"left","response":"left","rt":416,"correct":true,"confidence":4},{"trial_n":91,"n_dots":2.75,"target":"left","response":"left","rt":375,"correct":true,"confidence":6},{"trial_n":92,"n_dots":2.75,"target":"left","response":"left","rt":395,"correct":true,"confidence":4},{"trial_n":93,"n_dots":2.65,"target":"left","response":"left","rt":466,"correct":true,"confidence":6},{"trial_n":94,"n_dots":2.65,"target":"left","response":"left","rt":412,"correct":true,"confidence":4},{"trial_n":95,"n_dots":2.55,"target":"right","response":"left","rt":516,"correct":false,"confidence":5},{"trial_n":96,"n_dots":2.65,"target":"right","response":"left","rt":507,"correct":false,"confidence":3},{"trial_n":97,"n_dots":2.75,"target":"right","response":"left","rt":1045,"correct":false,"confidence":1},{"trial_n":98,"n_dots":2.85,"target":"left","response":"left","rt":1414,"correct":true,"confidence":2},{"trial_n":99,"n_dots":2.85,"target":"right","response":"right","rt":356,"correct":true,"confidence":4},{"trial_n":100,"n_dots":2.75,"target":"right","response":"left","rt":516,"correct":false,"confidence":4},{"trial_n":101,"n_dots":2.85,"target":"right","response":"right","rt":561,"correct":true,"confidence":5},{"trial_n":102,"n_dots":2.85,"target":"right","response":"left","rt":571,"correct":false,"confidence":6},{"trial_n":103,"n_dots":2.95,"target":"right","response":"right","rt":620,"correct":true,"confidence":5},{"trial_n":104,"n_dots":2.95,"target":"left","response":"left","rt":461,"correct":true,"confidence":5},{"trial_n":105,"n_dots":2.85,"target":"right","response":"right","rt":490,"correct":true,"confidence":5},{"trial_n":106,"n_dots":2.85,"target":"right","response":"right","rt":734,"correct":true,"confidence":3},{"trial_n":107,"n_dots":2.75,"target":"left","response":"left","rt":477,"correct":true,"confidence":4},{"trial_n":108,"n_dots":2.75,"target":"left","response":"left","rt":417,"correct":true,"confidence":5},{"trial_n":109,"n_dots":2.65,"target":"right","response":"left","rt":425,"correct":false,"confidence":3},{"trial_n":110,"n_dots":2.75,"target":"left","response":"left","rt":410,"correct":true,"confidence":5},{"trial_n":111,"n_dots":2.75,"target":"right","response":"right","rt":490,"correct":true,"confidence":5},{"trial_n":112,"n_dots":2.65,"target":"left","response":"left","rt":404,"correct":true,"confidence":3},{"trial_n":113,"n_dots":2.65,"target":"left","response":"left","rt":526,"correct":true,"confidence":5},{"trial_n":114,"n_dots":2.55,"target":"left","response":"left","rt":345,"correct":true,"confidence":3},{"trial_n":115,"n_dots":2.55,"target":"left","response":"left","rt":400,"correct":true,"confidence":5},{"trial_n":116,"n_dots":2.45,"target":"right","response":"left","rt":405,"correct":false,"confidence":3},{"trial_n":117,"n_dots":2.55,"target":"left","response":"left","rt":455,"correct":true,"confidence":4},{"trial_n":118,"n_dots":2.55,"target":"right","response":"left","rt":411,"correct":false,"confidence":1},{"trial_n":119,"n_dots":2.65,"target":"left","response":"left","rt":647,"correct":true,"confidence":4},{"trial_n":120,"n_dots":2.65,"target":"right","response":"right","rt":629,"correct":true,"confidence":2},{"trial_n":121,"n_dots":2.55,"target":"right","response":"left","rt":407,"correct":false,"confidence":3},{"trial_n":122,"n_dots":2.65,"target":"right","response":"left","rt":329,"correct":false,"confidence":4},{"trial_n":123,"n_dots":2.75,"target":"right","response":"left","rt":452,"correct":false,"confidence":3},{"trial_n":124,"n_dots":2.85,"target":"left","response":"left","rt":407,"correct":true,"confidence":4},{"trial_n":125,"n_dots":2.85,"target":"right","response":"right","rt":595,"correct":true,"confidence":2},{"trial_n":126,"n_dots":2.75,"target":"right","response":"left","rt":588,"correct":false,"confidence":4},{"trial_n":127,"n_dots":2.85,"target":"left","response":"left","rt":430,"correct":true,"confidence":4},{"trial_n":128,"n_dots":2.85,"target":"left","response":"left","rt":523,"correct":true,"confidence":2},{"trial_n":129,"n_dots":2.75,"target":"left","response":"left","rt":313,"correct":true,"confidence":6},{"trial_n":130,"n_dots":2.75,"target":"left","response":"left","rt":958,"correct":true,"confidence":4},{"trial_n":131,"n_dots":2.65,"target":"right","response":"left","rt":699,"correct":false,"confidence":2},{"trial_n":132,"n_dots":2.75,"target":"left","response":"left","rt":633,"correct":true,"confidence":6},{"trial_n":133,"n_dots":2.75,"target":"right","response":"right","rt":403,"correct":true,"confidence":6},{"trial_n":134,"n_dots":2.65,"target":"left","response":"left","rt":92,"correct":true,"confidence":6},{"trial_n":135,"n_dots":2.65,"target":"right","response":"right","rt":332,"correct":true,"confidence":5},{"trial_n":136,"n_dots":2.55,"target":"right","response":"right","rt":337,"correct":true,"confidence":5},{"trial_n":137,"n_dots":2.55,"target":"right","response":"right","rt":534,"correct":true,"confidence":4},{"trial_n":138,"n_dots":2.45,"target":"right","response":"right","rt":103,"correct":true,"confidence":5},{"trial_n":139,"n_dots":2.45,"target":"left","response":"right","rt":368,"correct":false,"confidence":4},{"trial_n":140,"n_dots":2.55,"target":"right","response":"right","rt":394,"correct":true,"confidence":5},{"trial_n":141,"n_dots":2.55,"target":"right","response":"right","rt":444,"correct":true,"confidence":2},{"trial_n":142,"n_dots":2.45,"target":"right","response":"left","rt":872,"correct":false,"confidence":3},{"trial_n":143,"n_dots":2.55,"target":"left","response":"left","rt":1750,"correct":true,"confidence":4},{"trial_n":144,"n_dots":2.55,"target":"left","response":"left","rt":644,"correct":true,"confidence":2},{"trial_n":145,"n_dots":2.45,"target":"left","response":"left","rt":981,"correct":true,"confidence":3},{"trial_n":146,"n_dots":2.45,"target":"left","response":"left","rt":578,"correct":true,"confidence":4},{"trial_n":147,"n_dots":2.35,"target":"left","response":"left","rt":644,"correct":true,"confidence":3},{"trial_n":148,"n_dots":2.35,"target":"right","response":"right","rt":444,"correct":true,"confidence":4},{"trial_n":149,"n_dots":2.25,"target":"left","response":"left","rt":493,"correct":true,"confidence":3},{"trial_n":150,"n_dots":2.25,"target":"left","response":"left","rt":354,"correct":true,"confidence":4},{"trial_n":151,"n_dots":2.15,"target":"left","response":"left","rt":347,"correct":true,"confidence":2},{"trial_n":152,"n_dots":2.15,"target":"right","response":"right","rt":485,"correct":true,"confidence":4},{"trial_n":153,"n_dots":2.05,"target":"left","response":"left","rt":404,"correct":true,"confidence":3},{"trial_n":154,"n_dots":2.05,"target":"right","response":"left","rt":342,"correct":false,"confidence":4},{"trial_n":155,"n_dots":2.15,"target":"left","response":"left","rt":419,"correct":true,"confidence":3},{"trial_n":156,"n_dots":2.15,"target":"right","response":"left","rt":913,"correct":false,"confidence":4},{"trial_n":157,"n_dots":2.25,"target":"right","response":"left","rt":305,"correct":false,"confidence":3},{"trial_n":158,"n_dots":2.35,"target":"right","response":"right","rt":442,"correct":true,"confidence":4},{"trial_n":159,"n_dots":2.35,"target":"left","response":"left","rt":467,"correct":true,"confidence":3},{"trial_n":160,"n_dots":2.25,"target":"right","response":"left","rt":689,"correct":false,"confidence":4},{"trial_n":161,"n_dots":2.35,"target":"left","response":"left","rt":396,"correct":true,"confidence":3},{"trial_n":162,"n_dots":2.35,"target":"right","response":"left","rt":566,"correct":false,"confidence":2},{"trial_n":163,"n_dots":2.45,"target":"left","response":"left","rt":455,"correct":true,"confidence":4},{"trial_n":164,"n_dots":2.45,"target":"left","response":"left","rt":383,"correct":true,"confidence":2},{"trial_n":165,"n_dots":2.35,"target":"left","response":"left","rt":794,"correct":true,"confidence":4},{"trial_n":166,"n_dots":2.35,"target":"right","response":"right","rt":622,"correct":true,"confidence":5},{"trial_n":167,"n_dots":2.25,"target":"left","response":"left","rt":415,"correct":true,"confidence":4},{"trial_n":168,"n_dots":2.25,"target":"right","response":"left","rt":1300,"correct":false,"confidence":3},{"trial_n":169,"n_dots":2.35,"target":"left","response":"right","rt":52577,"correct":false,"confidence":1},{"trial_n":170,"n_dots":2.45,"target":"left","response":"left","rt":546,"correct":true,"confidence":3},{"trial_n":171,"n_dots":2.45,"target":"right","response":"left","rt":391,"correct":false,"confidence":3},{"trial_n":172,"n_dots":2.55,"target":"left","response":"left","rt":1227,"correct":true,"confidence":1},{"trial_n":173,"n_dots":2.55,"target":"left","response":"left","rt":511,"correct":true,"confidence":2},{"trial_n":174,"n_dots":2.45,"target":"right","response":"left","rt":1079,"correct":false,"confidence":4},{"trial_n":175,"n_dots":2.55,"target":"left","response":"left","rt":917,"correct":true,"confidence":6},{"trial_n":176,"n_dots":2.55,"target":"left","response":"left","rt":501,"correct":true,"confidence":5},{"trial_n":177,"n_dots":2.45,"target":"left","response":"left","rt":624,"correct":true,"confidence":4},{"trial_n":178,"n_dots":2.45,"target":"right","response":"left","rt":646,"correct":false,"confidence":5},{"trial_n":179,"n_dots":2.55,"target":"left","response":"left","rt":385,"correct":true,"confidence":3},{"trial_n":180,"n_dots":2.55,"target":"right","response":"left","rt":586,"correct":false,"confidence":5},{"trial_n":181,"n_dots":2.65,"target":"right","response":"left","rt":396,"correct":false,"confidence":3},{"trial_n":182,"n_dots":2.75,"target":"right","response":"left","rt":511,"correct":false,"confidence":5},{"trial_n":183,"n_dots":2.85,"target":"left","response":"left","rt":344,"correct":true,"confidence":5},{"trial_n":184,"n_dots":2.85,"target":"left","response":"left","rt":368,"correct":true,"confidence":4},{"trial_n":185,"n_dots":2.75,"target":"left","response":"left","rt":582,"correct":true,"confidence":5},{"trial_n":186,"n_dots":2.75,"target":"left","response":"left","rt":553,"correct":true,"confidence":3},{"trial_n":187,"n_dots":2.65,"target":"left","response":"left","rt":337,"correct":true,"confidence":4},{"trial_n":188,"n_dots":2.65,"target":"right","response":"left","rt":460,"correct":false,"confidence":3},{"trial_n":189,"n_dots":2.75,"target":"right","response":"left","rt":31,"correct":false,"confidence":4},{"trial_n":190,"n_dots":2.85,"target":"left","response":"left","rt":287,"correct":true,"confidence":3},{"trial_n":191,"n_dots":2.85,"target":"left","response":"left","rt":712,"correct":true,"confidence":4},{"trial_n":192,"n_dots":2.75,"target":"left","response":"left","rt":335,"correct":true,"confidence":5},{"trial_n":193,"n_dots":2.75,"target":"left","response":"left","rt":227,"correct":true,"confidence":3},{"trial_n":194,"n_dots":2.65,"target":"left","response":"left","rt":12,"correct":true,"confidence":5}]