[{"trial_n":1,"n_dots":4.25,"target":"right","response":"left","rt":5914.6999999881,"correct":false,"confidence":-1},{"trial_n":2,"n_dots":4.25,"target":"left","response":"left","rt":1960,"correct":true,"confidence":-1},{"trial_n":3,"n_dots":4.25,"target":"right","response":"right","rt":3582.8999999762,"correct":true,"confidence":-1},{"trial_n":4,"n_dots":3.85,"target":"left","response":"left","rt":365.29999995232,"correct":true,"confidence":-1},{"trial_n":5,"n_dots":3.85,"target":"left","response":"left","rt":550.5,"correct":true,"confidence":-1},{"trial_n":6,"n_dots":3.45,"target":"right","response":"left","rt":572.59999996424,"correct":false,"confidence":-1},{"trial_n":7,"n_dots":3.85,"target":"right","response":"left","rt":466.70000004768,"correct":false,"confidence":-1},{"trial_n":8,"n_dots":4.05,"target":"right","response":"right","rt":583.5,"correct":true,"confidence":-1},{"trial_n":9,"n_dots":4.05,"target":"right","response":"left","rt":343.09999996424,"correct":false,"confidence":-1},{"trial_n":10,"n_dots":4.25,"target":"right","response":"right","rt":273.39999997616,"correct":true,"confidence":-1},{"trial_n":11,"n_dots":4.25,"target":"right","response":"right","rt":235.69999998808,"correct":true,"confidence":-1},{"trial_n":12,"n_dots":4.05,"target":"left","response":"left","rt":307.80000001192,"correct":true,"confidence":-1},{"trial_n":13,"n_dots":4.05,"target":"left","response":"left","rt":157.80000001192,"correct":true,"confidence":-1},{"trial_n":14,"n_dots":3.95,"target":"right","response":"right","rt":173.39999997616,"correct":true,"confidence":-1},{"trial_n":15,"n_dots":3.95,"target":"left","response":"left","rt":90.699999988079,"correct":true,"confidence":-1},{"trial_n":16,"n_dots":3.85,"target":"left","response":"left","rt":91.100000023842,"correct":true,"confidence":-1},{"trial_n":17,"n_dots":3.85,"target":"left","response":"left","rt":274.60000002384,"correct":true,"confidence":-1},{"trial_n":18,"n_dots":3.75,"target":"right","response":"left","rt":1206.1000000238,"correct":false,"confidence":-1},{"trial_n":19,"n_dots":3.85,"target":"right","response":"right","rt":257.19999998808,"correct":true,"confidence":-1},{"trial_n":20,"n_dots":3.85,"target":"left","response":"left","rt":213,"correct":true,"confidence":-1},{"trial_n":21,"n_dots":3.75,"target":"right","response":"right","rt":214.10000002384,"correct":true,"confidence":-1},{"trial_n":22,"n_dots":3.75,"target":"left","response":"left","rt":77.599999964237,"correct":true,"confidence":-1},{"trial_n":23,"n_dots":3.65,"target":"left","response":"left","rt":45.699999988079,"correct":true,"confidence":-1},{"trial_n":24,"n_dots":3.65,"target":"right","response":"right","rt":292,"correct":true,"confidence":-1},{"trial_n":25,"n_dots":3.55,"target":"left","response":"left","rt":464.89999997616,"correct":true,"confidence":-1},{"trial_n":26,"n_dots":3.55,"target":"right","response":"right","rt":1243.6000000238,"correct":true,"confidence":-1},{"trial_n":27,"n_dots":3.45,"target":"left","response":"left","rt":195.60000002384,"correct":true,"confidence":4},{"trial_n":28,"n_dots":3.45,"target":"right","response":"right","rt":448.39999997616,"correct":true,"confidence":5},{"trial_n":29,"n_dots":3.35,"target":"left","response":"left","rt":840.69999998808,"correct":true,"confidence":3},{"trial_n":30,"n_dots":3.35,"target":"right","response":"left","rt":996.5,"correct":false,"confidence":4},{"trial_n":31,"n_dots":3.45,"target":"right","response":"left","rt":511.80000001192,"correct":false,"confidence":4},{"trial_n":32,"n_dots":3.55,"target":"left","response":"left","rt":266.59999996424,"correct":true,"confidence":6},{"trial_n":33,"n_dots":3.55,"target":"right","response":"right","rt":498.69999998808,"correct":true,"confidence":3},{"trial_n":34,"n_dots":3.45,"target":"left","response":"left","rt":426.20000004768,"correct":true,"confidence":6},{"trial_n":35,"n_dots":3.45,"target":"left","response":"left","rt":318.89999997616,"correct":true,"confidence":6},{"trial_n":36,"n_dots":3.35,"target":"left","response":"left","rt":278,"correct":true,"confidence":6},{"trial_n":37,"n_dots":3.35,"target":"left","response":"left","rt":505.30000001192,"correct":true,"confidence":6},{"trial_n":38,"n_dots":3.25,"target":"right","response":"right","rt":283.30000001192,"correct":true,"confidence":3},{"trial_n":39,"n_dots":3.25,"target":"left","response":"left","rt":938.5,"correct":true,"confidence":4},{"trial_n":40,"n_dots":3.15,"target":"right","response":"left","rt":500.69999998808,"correct":false,"confidence":4},{"trial_n":41,"n_dots":3.25,"target":"right","response":"right","rt":409.40000003576,"correct":true,"confidence":3},{"trial_n":42,"n_dots":3.25,"target":"left","response":"left","rt":354.20000004768,"correct":true,"confidence":3},{"trial_n":43,"n_dots":3.15,"target":"right","response":"right","rt":498.5,"correct":true,"confidence":5},{"trial_n":44,"n_dots":3.15,"target":"right","response":"left","rt":315.09999996424,"correct":false,"confidence":6},{"trial_n":45,"n_dots":3.25,"target":"right","response":"right","rt":176.5,"correct":true,"confidence":6},{"trial_n":46,"n_dots":3.25,"target":"left","response":"left","rt":512.60000002384,"correct":true,"confidence":6},{"trial_n":47,"n_dots":3.15,"target":"left","response":"left","rt":166.70000004768,"correct":true,"confidence":6},{"trial_n":48,"n_dots":3.15,"target":"left","response":"left","rt":106.30000001192,"correct":true,"confidence":6},{"trial_n":49,"n_dots":3.05,"target":"right","response":"left","rt":476.30000001192,"correct":false,"confidence":4},{"trial_n":50,"n_dots":3.15,"target":"left","response":"left","rt":46.599999964237,"correct":true,"confidence":6},{"trial_n":51,"n_dots":3.15,"target":"right","response":"left","rt":1076.6000000238,"correct":false,"confidence":1},{"trial_n":52,"n_dots":3.25,"target":"left","response":"left","rt":32.799999952316,"correct":true,"confidence":6},{"trial_n":53,"n_dots":3.25,"target":"left","response":"left","rt":560.5,"correct":true,"confidence":6},{"trial_n":54,"n_dots":3.15,"target":"left","response":"left","rt":241.59999996424,"correct":true,"confidence":6},{"trial_n":55,"n_dots":3.15,"target":"right","response":"left","rt":229.30000001192,"correct":false,"confidence":3},{"trial_n":56,"n_dots":3.25,"target":"right","response":"right","rt":228.69999998808,"correct":true,"confidence":6},{"trial_n":57,"n_dots":3.25,"target":"right","response":"right","rt":309.69999998808,"correct":true,"confidence":6},{"trial_n":58,"n_dots":3.15,"target":"left","response":"left","rt":245.80000001192,"correct":true,"confidence":6},{"trial_n":59,"n_dots":3.15,"target":"right","response":"right","rt":402.80000001192,"correct":true,"confidence":3},{"trial_n":60,"n_dots":3.05,"target":"right","response":"left","rt":255.60000002384,"correct":false,"confidence":5},{"trial_n":61,"n_dots":3.15,"target":"right","response":"right","rt":247.69999998808,"correct":true,"confidence":6},{"trial_n":62,"n_dots":3.15,"target":"left","response":"left","rt":581.5,"correct":true,"confidence":5},{"trial_n":63,"n_dots":3.05,"target":"right","response":"left","rt":279.10000002384,"correct":false,"confidence":3},{"trial_n":64,"n_dots":3.15,"target":"right","response":"right","rt":279.69999998808,"correct":true,"confidence":6},{"trial_n":65,"n_dots":3.15,"target":"right","response":"right","rt":309.89999997616,"correct":true,"confidence":5},{"trial_n":66,"n_dots":3.05,"target":"right","response":"right","rt":269.39999997616,"correct":true,"confidence":3},{"trial_n":67,"n_dots":3.05,"target":"right","response":"right","rt":249.30000001192,"correct":true,"confidence":5},{"trial_n":68,"n_dots":2.95,"target":"left","response":"left","rt":282.80000001192,"correct":true,"confidence":4},{"trial_n":69,"n_dots":2.95,"target":"left","response":"right","rt":312.60000002384,"correct":false,"confidence":3},{"trial_n":70,"n_dots":3.05,"target":"left","response":"left","rt":255.79999995232,"correct":true,"confidence":3},{"trial_n":71,"n_dots":3.05,"target":"right","response":"right","rt":79.899999976158,"correct":true,"confidence":6},{"trial_n":72,"n_dots":2.95,"target":"right","response":"left","rt":339.80000001192,"correct":false,"confidence":4},{"trial_n":73,"n_dots":3.05,"target":"left","response":"right","rt":367.89999997616,"correct":false,"confidence":5},{"trial_n":74,"n_dots":3.15,"target":"left","response":"left","rt":306.69999998808,"correct":true,"confidence":6},{"trial_n":75,"n_dots":3.15,"target":"right","response":"left","rt":226.10000002384,"correct":false,"confidence":6},{"trial_n":76,"n_dots":3.25,"target":"right","response":"right","rt":341,"correct":true,"confidence":6},{"trial_n":77,"n_dots":3.25,"target":"left","response":"left","rt":965.69999998808,"correct":true,"confidence":5},{"trial_n":78,"n_dots":3.15,"target":"right","response":"right","rt":383.5,"correct":true,"confidence":6},{"trial_n":79,"n_dots":3.15,"target":"right","response":"left","rt":260.10000002384,"correct":false,"confidence":6},{"trial_n":80,"n_dots":3.25,"target":"right","response":"left","rt":355.39999997616,"correct":false,"confidence":2},{"trial_n":81,"n_dots":3.35,"target":"right","response":"right","rt":240.90000003576,"correct":true,"confidence":6},{"trial_n":82,"n_dots":3.35,"target":"right","response":"right","rt":481.40000003576,"correct":true,"confidence":6},{"trial_n":83,"n_dots":3.25,"target":"right","response":"left","rt":1418.9000000358,"correct":false,"confidence":3},{"trial_n":84,"n_dots":3.35,"target":"left","response":"left","rt":479,"correct":true,"confidence":6},{"trial_n":85,"n_dots":3.35,"target":"right","response":"right","rt":266,"correct":true,"confidence":5},{"trial_n":86,"n_dots":3.25,"target":"left","response":"left","rt":578.80000001192,"correct":true,"confidence":4},{"trial_n":87,"n_dots":3.25,"target":"right","response":"right","rt":221.80000001192,"correct":true,"confidence":5},{"trial_n":88,"n_dots":3.15,"target":"left","response":"right","rt":351,"correct":false,"confidence":4},{"trial_n":89,"n_dots":3.25,"target":"right","response":"right","rt":430.89999997616,"correct":true,"confidence":3},{"trial_n":90,"n_dots":3.25,"target":"right","response":"right","rt":303.39999997616,"correct":true,"confidence":5},{"trial_n":91,"n_dots":3.15,"target":"left","response":"left","rt":259.09999996424,"correct":true,"confidence":5},{"trial_n":92,"n_dots":3.15,"target":"left","response":"left","rt":768.80000001192,"correct":true,"confidence":6},{"trial_n":93,"n_dots":3.05,"target":"left","response":"left","rt":185.69999998808,"correct":true,"confidence":6},{"trial_n":94,"n_dots":3.05,"target":"left","response":"left","rt":237.30000001192,"correct":true,"confidence":6},{"trial_n":95,"n_dots":2.95,"target":"right","response":"left","rt":298.40000003576,"correct":false,"confidence":6},{"trial_n":96,"n_dots":3.05,"target":"right","response":"left","rt":378.30000001192,"correct":false,"confidence":3},{"trial_n":97,"n_dots":3.15,"target":"left","response":"left","rt":223.90000003576,"correct":true,"confidence":1},{"trial_n":98,"n_dots":3.15,"target":"left","response":"left","rt":274,"correct":true,"confidence":1},{"trial_n":99,"n_dots":3.05,"target":"right","response":"right","rt":413.80000001192,"correct":true,"confidence":1},{"trial_n":100,"n_dots":3.05,"target":"right","response":"left","rt":251,"correct":false,"confidence":6},{"trial_n":101,"n_dots":3.15,"target":"left","response":"left","rt":395,"correct":true,"confidence":6},{"trial_n":102,"n_dots":3.15,"target":"left","response":"left","rt":876,"correct":true,"confidence":4},{"trial_n":103,"n_dots":3.05,"target":"right","response":"right","rt":291.80000001192,"correct":true,"confidence":6},{"trial_n":104,"n_dots":3.05,"target":"left","response":"left","rt":357.79999995232,"correct":true,"confidence":6},{"trial_n":105,"n_dots":2.95,"target":"left","response":"left","rt":942,"correct":true,"confidence":6},{"trial_n":106,"n_dots":2.95,"target":"left","response":"left","rt":229.90000003576,"correct":true,"confidence":6},{"trial_n":107,"n_dots":2.85,"target":"left","response":"left","rt":213.69999998808,"correct":true,"confidence":6},{"trial_n":108,"n_dots":2.85,"target":"right","response":"left","rt":217.40000003576,"correct":false,"confidence":6},{"trial_n":109,"n_dots":2.95,"target":"left","response":"left","rt":378,"correct":true,"confidence":4},{"trial_n":110,"n_dots":2.95,"target":"right","response":"right","rt":239,"correct":true,"confidence":5},{"trial_n":111,"n_dots":2.85,"target":"left","response":"left","rt":744.5,"correct":true,"confidence":4},{"trial_n":112,"n_dots":2.85,"target":"right","response":"left","rt":401.19999998808,"correct":false,"confidence":4},{"trial_n":113,"n_dots":2.95,"target":"right","response":"right","rt":289.30000001192,"correct":true,"confidence":3},{"trial_n":114,"n_dots":2.95,"target":"right","response":"right","rt":321.30000001192,"correct":true,"confidence":3},{"trial_n":115,"n_dots":2.85,"target":"right","response":"right","rt":897.69999998808,"correct":true,"confidence":3},{"trial_n":116,"n_dots":2.85,"target":"left","response":"left","rt":487.80000001192,"correct":true,"confidence":6},{"trial_n":117,"n_dots":2.75,"target":"right","response":"right","rt":559.39999997616,"correct":true,"confidence":3},{"trial_n":118,"n_dots":2.75,"target":"left","response":"left","rt":325,"correct":true,"confidence":5},{"trial_n":119,"n_dots":2.65,"target":"left","response":"left","rt":277.60000002384,"correct":true,"confidence":3},{"trial_n":120,"n_dots":2.65,"target":"right","response":"left","rt":1281.3999999762,"correct":false,"confidence":3},{"trial_n":121,"n_dots":2.75,"target":"right","response":"left","rt":292.19999998808,"correct":false,"confidence":5},{"trial_n":122,"n_dots":2.85,"target":"right","response":"left","rt":795.10000002384,"correct":false,"confidence":3},{"trial_n":123,"n_dots":2.95,"target":"left","response":"left","rt":473.80000001192,"correct":true,"confidence":5},{"trial_n":124,"n_dots":2.95,"target":"right","response":"left","rt":1333,"correct":false,"confidence":5},{"trial_n":125,"n_dots":3.05,"target":"left","response":"left","rt":333.89999997616,"correct":true,"confidence":3},{"trial_n":126,"n_dots":3.05,"target":"left","response":"left","rt":663.39999997616,"correct":true,"confidence":4},{"trial_n":127,"n_dots":2.95,"target":"left","response":"left","rt":281.5,"correct":true,"confidence":6},{"trial_n":128,"n_dots":2.95,"target":"left","response":"left","rt":235,"correct":true,"confidence":6},{"trial_n":129,"n_dots":2.85,"target":"left","response":"left","rt":1014,"correct":true,"confidence":6},{"trial_n":130,"n_dots":2.85,"target":"right","response":"right","rt":304.69999998808,"correct":true,"confidence":6},{"trial_n":131,"n_dots":2.75,"target":"right","response":"right","rt":575.60000002384,"correct":true,"confidence":3},{"trial_n":132,"n_dots":2.75,"target":"left","response":"right","rt":298,"correct":false,"confidence":5},{"trial_n":133,"n_dots":2.85,"target":"right","response":"left","rt":17135.5,"correct":false,"confidence":3},{"trial_n":134,"n_dots":2.95,"target":"left","response":"left","rt":260.80000001192,"correct":true,"confidence":4},{"trial_n":135,"n_dots":2.95,"target":"left","response":"left","rt":337.89999997616,"correct":true,"confidence":3},{"trial_n":136,"n_dots":2.85,"target":"left","response":"left","rt":998.30000001192,"correct":true,"confidence":5},{"trial_n":137,"n_dots":2.85,"target":"right","response":"left","rt":790.20000004768,"correct":false,"confidence":2},{"trial_n":138,"n_dots":2.95,"target":"left","response":"left","rt":580.5,"correct":true,"confidence":2},{"trial_n":139,"n_dots":2.95,"target":"left","response":"left","rt":762.19999998808,"correct":true,"confidence":5},{"trial_n":140,"n_dots":2.85,"target":"right","response":"left","rt":328.39999997616,"correct":false,"confidence":4},{"trial_n":141,"n_dots":2.95,"target":"right","response":"right","rt":380.5,"correct":true,"confidence":5},{"trial_n":142,"n_dots":2.95,"target":"right","response":"left","rt":381.69999998808,"correct":false,"confidence":3},{"trial_n":143,"n_dots":3.05,"target":"left","response":"left","rt":281.5,"correct":true,"confidence":6},{"trial_n":144,"n_dots":3.05,"target":"right","response":"right","rt":372.80000001192,"correct":true,"confidence":3},{"trial_n":145,"n_dots":2.95,"target":"right","response":"left","rt":806.39999997616,"correct":false,"confidence":6},{"trial_n":146,"n_dots":3.05,"target":"right","response":"right","rt":436.69999998808,"correct":true,"confidence":6},{"trial_n":147,"n_dots":3.05,"target":"right","response":"right","rt":2024.6999999881,"correct":true,"confidence":4},{"trial_n":148,"n_dots":2.95,"target":"left","response":"left","rt":500.19999998808,"correct":true,"confidence":5},{"trial_n":149,"n_dots":2.95,"target":"left","response":"left","rt":394.69999998808,"correct":true,"confidence":2},{"trial_n":150,"n_dots":2.85,"target":"left","response":"left","rt":236.69999998808,"correct":true,"confidence":6},{"trial_n":151,"n_dots":2.85,"target":"right","response":"left","rt":302.30000001192,"correct":false,"confidence":5},{"trial_n":152,"n_dots":2.95,"target":"right","response":"left","rt":244.39999997616,"correct":false,"confidence":4},{"trial_n":153,"n_dots":3.05,"target":"right","response":"left","rt":267.30000001192,"correct":false,"confidence":6},{"trial_n":154,"n_dots":3.15,"target":"left","response":"left","rt":257.30000001192,"correct":true,"confidence":6},{"trial_n":155,"n_dots":3.15,"target":"left","response":"left","rt":263.59999996424,"correct":true,"confidence":6},{"trial_n":156,"n_dots":3.05,"target":"left","response":"left","rt":205.39999997616,"correct":true,"confidence":5},{"trial_n":157,"n_dots":3.05,"target":"right","response":"right","rt":783.90000003576,"correct":true,"confidence":4},{"trial_n":158,"n_dots":2.95,"target":"left","response":"left","rt":304.59999996424,"correct":true,"confidence":2},{"trial_n":159,"n_dots":2.95,"target":"left","response":"left","rt":235,"correct":true,"confidence":5},{"trial_n":160,"n_dots":2.85,"target":"right","response":"right","rt":227.89999997616,"correct":true,"confidence":5},{"trial_n":161,"n_dots":2.85,"target":"right","response":"left","rt":278.59999996424,"correct":false,"confidence":2},{"trial_n":162,"n_dots":2.95,"target":"right","response":"right","rt":537.39999997616,"correct":true,"confidence":5},{"trial_n":163,"n_dots":2.95,"target":"left","response":"right","rt":328.69999998808,"correct":false,"confidence":5},{"trial_n":164,"n_dots":3.05,"target":"right","response":"right","rt":733.30000001192,"correct":true,"confidence":4},{"trial_n":165,"n_dots":3.05,"target":"right","response":"right","rt":294,"correct":true,"confidence":6},{"trial_n":166,"n_dots":2.95,"target":"left","response":"left","rt":247.69999998808,"correct":true,"confidence":3},{"trial_n":167,"n_dots":2.95,"target":"left","response":"right","rt":271.90000003576,"correct":false,"confidence":5},{"trial_n":168,"n_dots":3.05,"target":"right","response":"right","rt":269,"correct":true,"confidence":4},{"trial_n":169,"n_dots":3.05,"target":"left","response":"left","rt":847.69999998808,"correct":true,"confidence":3},{"trial_n":170,"n_dots":2.95,"target":"right","response":"right","rt":218,"correct":true,"confidence":5},{"trial_n":171,"n_dots":2.95,"target":"left","response":"right","rt":236.19999998808,"correct":false,"confidence":4},{"trial_n":172,"n_dots":3.05,"target":"left","response":"left","rt":878.09999996424,"correct":true,"confidence":2},{"trial_n":173,"n_dots":3.05,"target":"left","response":"left","rt":564.89999997616,"correct":true,"confidence":1},{"trial_n":174,"n_dots":2.95,"target":"left","response":"left","rt":318.59999996424,"correct":true,"confidence":6},{"trial_n":175,"n_dots":2.95,"target":"right","response":"left","rt":372.10000002384,"correct":false,"confidence":2},{"trial_n":176,"n_dots":3.05,"target":"left","response":"left","rt":494.70000004768,"correct":true,"confidence":2},{"trial_n":177,"n_dots":3.05,"target":"left","response":"left","rt":256.70000004768,"correct":true,"confidence":1},{"trial_n":178,"n_dots":2.95,"target":"right","response":"left","rt":417.90000003576,"correct":false,"confidence":1},{"trial_n":179,"n_dots":3.05,"target":"left","response":"left","rt":228.59999996424,"correct":true,"confidence":6},{"trial_n":180,"n_dots":3.05,"target":"left","response":"left","rt":600.09999996424,"correct":true,"confidence":6},{"trial_n":181,"n_dots":2.95,"target":"right","response":"left","rt":920.59999996424,"correct":false,"confidence":1},{"trial_n":182,"n_dots":3.05,"target":"left","response":"left","rt":180.29999995232,"correct":true,"confidence":6},{"trial_n":183,"n_dots":3.05,"target":"right","response":"left","rt":208.19999998808,"correct":false,"confidence":2},{"trial_n":184,"n_dots":3.15,"target":"left","response":"left","rt":17.400000035763,"correct":true,"confidence":6},{"trial_n":185,"n_dots":3.15,"target":"right","response":"left","rt":201.40000003576,"correct":false,"confidence":2},{"trial_n":186,"n_dots":3.25,"target":"left","response":"left","rt":217,"correct":true,"confidence":6},{"trial_n":187,"n_dots":3.25,"target":"left","response":"left","rt":201.5,"correct":true,"confidence":6},{"trial_n":188,"n_dots":3.15,"target":"left","response":"left","rt":243.19999998808,"correct":true,"confidence":4},{"trial_n":189,"n_dots":3.15,"target":"right","response":"left","rt":231.89999997616,"correct":false,"confidence":4},{"trial_n":190,"n_dots":3.25,"target":"left","response":"left","rt":148.10000002384,"correct":true,"confidence":6},{"trial_n":191,"n_dots":3.25,"target":"left","response":"left","rt":242.39999997616,"correct":true,"confidence":6},{"trial_n":192,"n_dots":3.15,"target":"left","response":"left","rt":637.80000001192,"correct":true,"confidence":3},{"trial_n":193,"n_dots":3.15,"target":"right","response":"right","rt":781.30000001192,"correct":true,"confidence":2},{"trial_n":194,"n_dots":3.05,"target":"right","response":"right","rt":980.29999995232,"correct":true,"confidence":2}]