[{"trial_n":1,"n_dots":4.25,"target":"left","response":"left","rt":1387.799999997,"correct":true,"confidence":-1},{"trial_n":2,"n_dots":4.25,"target":"left","response":"right","rt":2365.900000006,"correct":false,"confidence":-1},{"trial_n":3,"n_dots":4.65,"target":"left","response":"left","rt":473.09999999404,"correct":true,"confidence":-1},{"trial_n":4,"n_dots":4.65,"target":"right","response":"right","rt":525.10000000894,"correct":true,"confidence":-1},{"trial_n":5,"n_dots":4.25,"target":"left","response":"left","rt":207270.40000001,"correct":true,"confidence":-1},{"trial_n":6,"n_dots":4.25,"target":"left","response":"left","rt":339.29999999702,"correct":true,"confidence":-1},{"trial_n":7,"n_dots":3.85,"target":"right","response":"right","rt":1173,"correct":true,"confidence":-1},{"trial_n":8,"n_dots":3.85,"target":"right","response":"right","rt":1042.599999994,"correct":true,"confidence":-1},{"trial_n":9,"n_dots":3.65,"target":"right","response":"left","rt":727.40000000596,"correct":false,"confidence":-1},{"trial_n":10,"n_dots":3.85,"target":"right","response":"left","rt":440.60000000894,"correct":false,"confidence":-1},{"trial_n":11,"n_dots":4.05,"target":"right","response":"right","rt":227.09999999404,"correct":true,"confidence":-1},{"trial_n":12,"n_dots":4.05,"target":"left","response":"left","rt":511.60000000894,"correct":true,"confidence":-1},{"trial_n":13,"n_dots":3.95,"target":"left","response":"right","rt":264.39999999106,"correct":false,"confidence":-1},{"trial_n":14,"n_dots":4.05,"target":"right","response":"right","rt":528.60000000894,"correct":true,"confidence":-1},{"trial_n":15,"n_dots":4.05,"target":"right","response":"left","rt":435.70000000298,"correct":false,"confidence":-1},{"trial_n":16,"n_dots":4.15,"target":"right","response":"left","rt":451.89999999106,"correct":false,"confidence":-1},{"trial_n":17,"n_dots":4.25,"target":"right","response":"left","rt":272.5,"correct":false,"confidence":-1},{"trial_n":18,"n_dots":4.35,"target":"right","response":"right","rt":490.5,"correct":true,"confidence":-1},{"trial_n":19,"n_dots":4.35,"target":"right","response":"right","rt":9423.799999997,"correct":true,"confidence":-1},{"trial_n":20,"n_dots":4.25,"target":"right","response":"right","rt":518.79999999702,"correct":true,"confidence":-1},{"trial_n":21,"n_dots":4.25,"target":"left","response":"left","rt":970.5,"correct":true,"confidence":-1},{"trial_n":22,"n_dots":4.15,"target":"right","response":"right","rt":439.40000000596,"correct":true,"confidence":-1},{"trial_n":23,"n_dots":4.15,"target":"right","response":"left","rt":2456.700000003,"correct":false,"confidence":-1},{"trial_n":24,"n_dots":4.25,"target":"right","response":"right","rt":240.89999999106,"correct":true,"confidence":-1},{"trial_n":25,"n_dots":4.25,"target":"left","response":"left","rt":180.79999999702,"correct":true,"confidence":-1},{"trial_n":26,"n_dots":4.15,"target":"right","response":"right","rt":359.09999999404,"correct":true,"confidence":-1},{"trial_n":27,"n_dots":4.15,"target":"right","response":"right","rt":677.79999999702,"correct":true,"confidence":1},{"trial_n":28,"n_dots":4.05,"target":"right","response":"left","rt":1467.299999997,"correct":false,"confidence":1},{"trial_n":29,"n_dots":4.15,"target":"right","response":"right","rt":521.10000000894,"correct":true,"confidence":1},{"trial_n":30,"n_dots":4.15,"target":"left","response":"left","rt":61.29999999702,"correct":true,"confidence":1},{"trial_n":31,"n_dots":4.05,"target":"right","response":"right","rt":883.29999999702,"correct":true,"confidence":1},{"trial_n":32,"n_dots":4.05,"target":"right","response":"left","rt":436.09999999404,"correct":false,"confidence":1},{"trial_n":33,"n_dots":4.15,"target":"left","response":"left","rt":417.5,"correct":true,"confidence":1},{"trial_n":34,"n_dots":4.15,"target":"left","response":"left","rt":519.60000000894,"correct":true,"confidence":1},{"trial_n":35,"n_dots":4.05,"target":"left","response":"left","rt":335.09999999404,"correct":true,"confidence":1},{"trial_n":36,"n_dots":4.05,"target":"right","response":"right","rt":681.89999999106,"correct":true,"confidence":1},{"trial_n":37,"n_dots":3.95,"target":"right","response":"right","rt":779,"correct":true,"confidence":1},{"trial_n":38,"n_dots":3.95,"target":"left","response":"left","rt":224.59999999404,"correct":true,"confidence":1},{"trial_n":39,"n_dots":3.85,"target":"left","response":"left","rt":435.20000000298,"correct":true,"confidence":1},{"trial_n":40,"n_dots":3.85,"target":"right","response":"right","rt":271.79999999702,"correct":true,"confidence":1},{"trial_n":41,"n_dots":3.75,"target":"left","response":"left","rt":104,"correct":true,"confidence":1},{"trial_n":42,"n_dots":3.75,"target":"left","response":"left","rt":114.29999999702,"correct":true,"confidence":1},{"trial_n":43,"n_dots":3.65,"target":"left","response":"left","rt":810,"correct":true,"confidence":1},{"trial_n":44,"n_dots":3.65,"target":"right","response":"right","rt":685.89999999106,"correct":true,"confidence":1},{"trial_n":45,"n_dots":3.55,"target":"right","response":"left","rt":486.29999999702,"correct":false,"confidence":1},{"trial_n":46,"n_dots":3.65,"target":"left","response":"right","rt":714.89999999106,"correct":false,"confidence":1},{"trial_n":47,"n_dots":3.75,"target":"left","response":"left","rt":433.60000000894,"correct":true,"confidence":1},{"trial_n":48,"n_dots":3.75,"target":"right","response":"left","rt":1379.5,"correct":false,"confidence":1},{"trial_n":49,"n_dots":3.85,"target":"left","response":"right","rt":382.10000000894,"correct":false,"confidence":1},{"trial_n":50,"n_dots":3.95,"target":"right","response":"left","rt":620.20000000298,"correct":false,"confidence":1},{"trial_n":51,"n_dots":4.05,"target":"left","response":"left","rt":381.29999999702,"correct":true,"confidence":1},{"trial_n":52,"n_dots":4.05,"target":"right","response":"right","rt":1813.200000003,"correct":true,"confidence":1},{"trial_n":53,"n_dots":3.95,"target":"left","response":"left","rt":335.5,"correct":true,"confidence":1},{"trial_n":54,"n_dots":3.95,"target":"left","response":"right","rt":254.09999999404,"correct":false,"confidence":1},{"trial_n":55,"n_dots":4.05,"target":"right","response":"left","rt":300.79999999702,"correct":false,"confidence":1},{"trial_n":56,"n_dots":4.15,"target":"left","response":"left","rt":562.79999999702,"correct":true,"confidence":1},{"trial_n":57,"n_dots":4.15,"target":"left","response":"right","rt":1818,"correct":false,"confidence":1},{"trial_n":58,"n_dots":4.25,"target":"left","response":"left","rt":54032.300000012,"correct":true,"confidence":1},{"trial_n":59,"n_dots":4.25,"target":"right","response":"right","rt":437.5,"correct":true,"confidence":1},{"trial_n":60,"n_dots":4.15,"target":"left","response":"left","rt":48.79999999702,"correct":true,"confidence":1},{"trial_n":61,"n_dots":4.15,"target":"left","response":"left","rt":265.10000000894,"correct":true,"confidence":1},{"trial_n":62,"n_dots":4.05,"target":"left","response":"right","rt":848.59999999404,"correct":false,"confidence":1},{"trial_n":63,"n_dots":4.15,"target":"right","response":"left","rt":1315.700000003,"correct":false,"confidence":1},{"trial_n":64,"n_dots":4.25,"target":"right","response":"right","rt":119.89999999106,"correct":true,"confidence":1},{"trial_n":65,"n_dots":4.25,"target":"left","response":"left","rt":451.29999999702,"correct":true,"confidence":1},{"trial_n":66,"n_dots":4.15,"target":"right","response":"left","rt":237.29999999702,"correct":false,"confidence":1},{"trial_n":67,"n_dots":4.25,"target":"right","response":"left","rt":20594.400000006,"correct":false,"confidence":1},{"trial_n":68,"n_dots":4.35,"target":"right","response":"left","rt":191108.5,"correct":false,"confidence":1},{"trial_n":69,"n_dots":4.45,"target":"left","response":"left","rt":560.29999999702,"correct":true,"confidence":1},{"trial_n":70,"n_dots":4.45,"target":"right","response":"right","rt":50.79999999702,"correct":true,"confidence":1},{"trial_n":71,"n_dots":4.35,"target":"left","response":"left","rt":417.70000000298,"correct":true,"confidence":1},{"trial_n":72,"n_dots":4.35,"target":"left","response":"left","rt":246.10000000894,"correct":true,"confidence":1},{"trial_n":73,"n_dots":4.25,"target":"right","response":"right","rt":446.90000000596,"correct":true,"confidence":1},{"trial_n":74,"n_dots":4.25,"target":"right","response":"left","rt":181.89999999106,"correct":false,"confidence":1},{"trial_n":75,"n_dots":4.35,"target":"right","response":"right","rt":19.70000000298,"correct":true,"confidence":1},{"trial_n":76,"n_dots":4.35,"target":"right","response":"left","rt":337.70000000298,"correct":false,"confidence":1},{"trial_n":77,"n_dots":4.45,"target":"left","response":"right","rt":210.79999999702,"correct":false,"confidence":1},{"trial_n":78,"n_dots":4.55,"target":"right","response":"left","rt":39.90000000596,"correct":false,"confidence":1},{"trial_n":79,"n_dots":4.65,"target":"left","response":"right","rt":217.69999998808,"correct":false,"confidence":1},{"trial_n":80,"n_dots":4.75,"target":"right","response":"left","rt":889.09999999404,"correct":false,"confidence":1},{"trial_n":81,"n_dots":4.85,"target":"right","response":"right","rt":397.10000000894,"correct":true,"confidence":1},{"trial_n":82,"n_dots":4.85,"target":"left","response":"left","rt":1.0999999940395,"correct":true,"confidence":1},{"trial_n":83,"n_dots":4.75,"target":"left","response":"left","rt":356.10000000894,"correct":true,"confidence":1},{"trial_n":84,"n_dots":4.75,"target":"left","response":"left","rt":261,"correct":true,"confidence":1},{"trial_n":85,"n_dots":4.65,"target":"right","response":"right","rt":524.29999999702,"correct":true,"confidence":1},{"trial_n":86,"n_dots":4.65,"target":"left","response":"left","rt":198.59999999404,"correct":true,"confidence":1},{"trial_n":87,"n_dots":4.55,"target":"left","response":"left","rt":196.79999999702,"correct":true,"confidence":1},{"trial_n":88,"n_dots":4.55,"target":"left","response":"left","rt":325.80000001192,"correct":true,"confidence":1},{"trial_n":89,"n_dots":4.45,"target":"left","response":"left","rt":99.79999999702,"correct":true,"confidence":1},{"trial_n":90,"n_dots":4.45,"target":"left","response":"right","rt":333.90000000596,"correct":false,"confidence":1},{"trial_n":91,"n_dots":4.55,"target":"right","response":"right","rt":317.40000000596,"correct":true,"confidence":1},{"trial_n":92,"n_dots":4.55,"target":"left","response":"left","rt":213.09999999404,"correct":true,"confidence":1},{"trial_n":93,"n_dots":4.45,"target":"right","response":"left","rt":993.30000001192,"correct":false,"confidence":1},{"trial_n":94,"n_dots":4.55,"target":"left","response":"left","rt":320.30000001192,"correct":true,"confidence":1},{"trial_n":95,"n_dots":4.55,"target":"left","response":"left","rt":71.59999999404,"correct":true,"confidence":1},{"trial_n":96,"n_dots":4.45,"target":"left","response":"left","rt":411.5,"correct":true,"confidence":1},{"trial_n":97,"n_dots":4.45,"target":"right","response":"right","rt":238.40000000596,"correct":true,"confidence":1},{"trial_n":98,"n_dots":4.35,"target":"right","response":"right","rt":442.5,"correct":true,"confidence":1},{"trial_n":99,"n_dots":4.35,"target":"left","response":"left","rt":482.70000000298,"correct":true,"confidence":1},{"trial_n":100,"n_dots":4.25,"target":"left","response":"left","rt":603.60000000894,"correct":true,"confidence":1},{"trial_n":101,"n_dots":4.25,"target":"right","response":"right","rt":4620.5,"correct":true,"confidence":1},{"trial_n":102,"n_dots":4.15,"target":"left","response":"left","rt":475.5,"correct":true,"confidence":1},{"trial_n":103,"n_dots":4.15,"target":"left","response":"right","rt":332.09999999404,"correct":false,"confidence":1},{"trial_n":104,"n_dots":4.25,"target":"left","response":"left","rt":363.39999999106,"correct":true,"confidence":1},{"trial_n":105,"n_dots":4.25,"target":"right","response":"right","rt":292.70000000298,"correct":true,"confidence":1},{"trial_n":106,"n_dots":4.15,"target":"right","response":"left","rt":1173.700000003,"correct":false,"confidence":1},{"trial_n":107,"n_dots":4.25,"target":"right","response":"left","rt":1163.3000000119,"correct":false,"confidence":1},{"trial_n":108,"n_dots":4.35,"target":"right","response":"left","rt":888,"correct":false,"confidence":1},{"trial_n":109,"n_dots":4.45,"target":"left","response":"right","rt":807.09999999404,"correct":false,"confidence":1},{"trial_n":110,"n_dots":4.55,"target":"right","response":"left","rt":6343.3999999911,"correct":false,"confidence":1},{"trial_n":111,"n_dots":4.65,"target":"right","response":"right","rt":1385.3999999911,"correct":true,"confidence":1},{"trial_n":112,"n_dots":4.65,"target":"left","response":"right","rt":31527.799999997,"correct":false,"confidence":1},{"trial_n":113,"n_dots":4.75,"target":"left","response":"left","rt":956.5,"correct":true,"confidence":1},{"trial_n":114,"n_dots":4.75,"target":"right","response":"right","rt":4969.700000003,"correct":true,"confidence":1},{"trial_n":115,"n_dots":4.65,"target":"left","response":"left","rt":1139.900000006,"correct":true,"confidence":1},{"trial_n":116,"n_dots":4.65,"target":"right","response":"right","rt":1412,"correct":true,"confidence":1},{"trial_n":117,"n_dots":4.55,"target":"right","response":"left","rt":9476.200000003,"correct":false,"confidence":1},{"trial_n":118,"n_dots":4.65,"target":"left","response":"left","rt":592.5,"correct":true,"confidence":1},{"trial_n":119,"n_dots":4.65,"target":"left","response":"left","rt":613.29999999702,"correct":true,"confidence":1},{"trial_n":120,"n_dots":4.55,"target":"left","response":"left","rt":830.79999999702,"correct":true,"confidence":1},{"trial_n":121,"n_dots":4.55,"target":"right","response":"right","rt":1084.599999994,"correct":true,"confidence":1},{"trial_n":122,"n_dots":4.45,"target":"right","response":"right","rt":14009.5,"correct":true,"confidence":1},{"trial_n":123,"n_dots":4.45,"target":"right","response":"left","rt":1940.799999997,"correct":false,"confidence":1},{"trial_n":124,"n_dots":4.55,"target":"left","response":"left","rt":418.79999999702,"correct":true,"confidence":1},{"trial_n":125,"n_dots":4.55,"target":"right","response":"right","rt":4299.6000000089,"correct":true,"confidence":1},{"trial_n":126,"n_dots":4.45,"target":"left","response":"left","rt":34806.900000006,"correct":true,"confidence":1},{"trial_n":127,"n_dots":4.45,"target":"left","response":"right","rt":154186.60000001,"correct":false,"confidence":1},{"trial_n":128,"n_dots":4.55,"target":"left","response":"left","rt":1020.5,"correct":true,"confidence":1},{"trial_n":129,"n_dots":4.55,"target":"right","response":"right","rt":1809.5,"correct":true,"confidence":1},{"trial_n":130,"n_dots":4.45,"target":"right","response":"left","rt":16226.599999994,"correct":false,"confidence":1},{"trial_n":131,"n_dots":4.55,"target":"right","response":"right","rt":1193.6000000089,"correct":true,"confidence":1},{"trial_n":132,"n_dots":4.55,"target":"right","response":"left","rt":11419.599999994,"correct":false,"confidence":1},{"trial_n":133,"n_dots":4.65,"target":"right","response":"right","rt":55.79999999702,"correct":true,"confidence":1},{"trial_n":134,"n_dots":4.65,"target":"left","response":"left","rt":743.79999999702,"correct":true,"confidence":1},{"trial_n":135,"n_dots":4.55,"target":"right","response":"right","rt":14430.800000012,"correct":true,"confidence":1},{"trial_n":136,"n_dots":4.55,"target":"left","response":"left","rt":765,"correct":true,"confidence":1},{"trial_n":137,"n_dots":4.45,"target":"right","response":"right","rt":2006.6999999881,"correct":true,"confidence":1},{"trial_n":138,"n_dots":4.45,"target":"right","response":"left","rt":6519.799999997,"correct":false,"confidence":1},{"trial_n":139,"n_dots":4.55,"target":"left","response":"left","rt":20074,"correct":true,"confidence":1},{"trial_n":140,"n_dots":4.55,"target":"left","response":"left","rt":92.100000008941,"correct":true,"confidence":1},{"trial_n":141,"n_dots":4.45,"target":"left","response":"left","rt":136,"correct":true,"confidence":1},{"trial_n":142,"n_dots":4.45,"target":"left","response":"left","rt":418.90000000596,"correct":true,"confidence":1},{"trial_n":143,"n_dots":4.35,"target":"right","response":"left","rt":288.5,"correct":false,"confidence":1},{"trial_n":144,"n_dots":4.45,"target":"right","response":"right","rt":388.10000000894,"correct":true,"confidence":1},{"trial_n":145,"n_dots":4.45,"target":"right","response":"right","rt":146.10000000894,"correct":true,"confidence":1},{"trial_n":146,"n_dots":4.35,"target":"left","response":"right","rt":448,"correct":false,"confidence":1},{"trial_n":147,"n_dots":4.45,"target":"left","response":"left","rt":835.29999999702,"correct":true,"confidence":1},{"trial_n":148,"n_dots":4.45,"target":"left","response":"right","rt":3765.900000006,"correct":false,"confidence":1},{"trial_n":149,"n_dots":4.55,"target":"left","response":"left","rt":16610.300000012,"correct":true,"confidence":1},{"trial_n":150,"n_dots":4.55,"target":"left","response":"left","rt":894.90000000596,"correct":true,"confidence":1},{"trial_n":151,"n_dots":4.45,"target":"left","response":"left","rt":118.09999999404,"correct":true,"confidence":1},{"trial_n":152,"n_dots":4.45,"target":"left","response":"left","rt":239.79999999702,"correct":true,"confidence":1},{"trial_n":153,"n_dots":4.35,"target":"left","response":"left","rt":88.40000000596,"correct":true,"confidence":1},{"trial_n":154,"n_dots":4.35,"target":"right","response":"right","rt":232.79999999702,"correct":true,"confidence":1},{"trial_n":155,"n_dots":4.25,"target":"left","response":"left","rt":40.90000000596,"correct":true,"confidence":1},{"trial_n":156,"n_dots":4.25,"target":"right","response":"right","rt":433.70000000298,"correct":true,"confidence":1},{"trial_n":157,"n_dots":4.15,"target":"left","response":"left","rt":246.89999999106,"correct":true,"confidence":1},{"trial_n":158,"n_dots":4.15,"target":"left","response":"left","rt":250.20000000298,"correct":true,"confidence":1},{"trial_n":159,"n_dots":4.05,"target":"left","response":"left","rt":300.10000000894,"correct":true,"confidence":1},{"trial_n":160,"n_dots":4.05,"target":"left","response":"left","rt":2.2999999970198,"correct":true,"confidence":1},{"trial_n":161,"n_dots":3.95,"target":"right","response":"right","rt":121.5,"correct":true,"confidence":1},{"trial_n":162,"n_dots":3.95,"target":"right","response":"right","rt":385.09999999404,"correct":true,"confidence":1},{"trial_n":163,"n_dots":3.85,"target":"right","response":"right","rt":306,"correct":true,"confidence":1},{"trial_n":164,"n_dots":3.85,"target":"left","response":"left","rt":289.70000000298,"correct":true,"confidence":1},{"trial_n":165,"n_dots":3.75,"target":"left","response":"left","rt":282.29999999702,"correct":true,"confidence":1},{"trial_n":166,"n_dots":3.75,"target":"right","response":"left","rt":638.59999999404,"correct":false,"confidence":1},{"trial_n":167,"n_dots":3.85,"target":"right","response":"right","rt":325.70000000298,"correct":true,"confidence":1},{"trial_n":168,"n_dots":3.85,"target":"right","response":"left","rt":300.90000000596,"correct":false,"confidence":1},{"trial_n":169,"n_dots":3.95,"target":"right","response":"right","rt":479.5,"correct":true,"confidence":1},{"trial_n":170,"n_dots":3.95,"target":"left","response":"left","rt":257.40000000596,"correct":true,"confidence":1},{"trial_n":171,"n_dots":3.85,"target":"right","response":"right","rt":295.39999999106,"correct":true,"confidence":1},{"trial_n":172,"n_dots":3.85,"target":"left","response":"left","rt":1468.799999997,"correct":true,"confidence":1},{"trial_n":173,"n_dots":3.75,"target":"right","response":"left","rt":1077.599999994,"correct":false,"confidence":1},{"trial_n":174,"n_dots":3.85,"target":"left","response":"left","rt":251.09999999404,"correct":true,"confidence":1},{"trial_n":175,"n_dots":3.85,"target":"left","response":"left","rt":145.5,"correct":true,"confidence":1},{"trial_n":176,"n_dots":3.75,"target":"right","response":"left","rt":7.7000000029802,"correct":false,"confidence":1},{"trial_n":177,"n_dots":3.85,"target":"right","response":"left","rt":697.29999999702,"correct":false,"confidence":1},{"trial_n":178,"n_dots":3.95,"target":"left","response":"right","rt":406.70000000298,"correct":false,"confidence":1},{"trial_n":179,"n_dots":4.05,"target":"right","response":"right","rt":94,"correct":true,"confidence":1},{"trial_n":180,"n_dots":4.05,"target":"left","response":"left","rt":255.79999999702,"correct":true,"confidence":1},{"trial_n":181,"n_dots":3.95,"target":"left","response":"right","rt":982.20000000298,"correct":false,"confidence":1},{"trial_n":182,"n_dots":4.05,"target":"right","response":"right","rt":180.30000001192,"correct":true,"confidence":1},{"trial_n":183,"n_dots":4.05,"target":"left","response":"right","rt":967.09999999404,"correct":false,"confidence":1},{"trial_n":184,"n_dots":4.15,"target":"right","response":"left","rt":1972.5,"correct":false,"confidence":1},{"trial_n":185,"n_dots":4.25,"target":"right","response":"left","rt":11333.5,"correct":false,"confidence":1},{"trial_n":186,"n_dots":4.35,"target":"left","response":"left","rt":468.20000000298,"correct":true,"confidence":1},{"trial_n":187,"n_dots":4.35,"target":"right","response":"right","rt":446.19999998808,"correct":true,"confidence":1},{"trial_n":188,"n_dots":4.25,"target":"left","response":"left","rt":307.09999999404,"correct":true,"confidence":1},{"trial_n":189,"n_dots":4.25,"target":"left","response":"left","rt":322.40000000596,"correct":true,"confidence":1},{"trial_n":190,"n_dots":4.15,"target":"right","response":"right","rt":258.79999999702,"correct":true,"confidence":1},{"trial_n":191,"n_dots":4.15,"target":"left","response":"left","rt":41.800000011921,"correct":true,"confidence":1},{"trial_n":192,"n_dots":4.05,"target":"right","response":"right","rt":291.70000000298,"correct":true,"confidence":1},{"trial_n":193,"n_dots":4.05,"target":"right","response":"right","rt":228.39999999106,"correct":true,"confidence":1},{"trial_n":194,"n_dots":3.95,"target":"right","response":"right","rt":235.40000000596,"correct":true,"confidence":1}]