[{"trial_n":1,"n_dots":4.25,"target":"left","response":"left","rt":4806.1000000015,"correct":true,"confidence":-1},{"trial_n":2,"n_dots":4.25,"target":"left","response":"left","rt":2956.1999999993,"correct":true,"confidence":-1},{"trial_n":3,"n_dots":3.85,"target":"left","response":"left","rt":1297.1999999993,"correct":true,"confidence":-1},{"trial_n":4,"n_dots":3.85,"target":"left","response":"right","rt":2602.3000000007,"correct":false,"confidence":-1},{"trial_n":5,"n_dots":4.25,"target":"right","response":"right","rt":567.89999999851,"correct":true,"confidence":-1},{"trial_n":6,"n_dots":4.25,"target":"right","response":"right","rt":598,"correct":true,"confidence":-1},{"trial_n":7,"n_dots":3.85,"target":"left","response":"left","rt":613,"correct":true,"confidence":-1},{"trial_n":8,"n_dots":3.85,"target":"right","response":"left","rt":1532.5999999978,"correct":false,"confidence":-1},{"trial_n":9,"n_dots":4.05,"target":"right","response":"right","rt":497.19999999925,"correct":true,"confidence":-1},{"trial_n":10,"n_dots":4.05,"target":"left","response":"left","rt":564.79999999702,"correct":true,"confidence":-1},{"trial_n":11,"n_dots":3.85,"target":"left","response":"left","rt":621.19999999925,"correct":true,"confidence":-1},{"trial_n":12,"n_dots":3.85,"target":"left","response":"left","rt":526.30000000075,"correct":true,"confidence":-1},{"trial_n":13,"n_dots":3.75,"target":"left","response":"left","rt":603.5,"correct":true,"confidence":-1},{"trial_n":14,"n_dots":3.75,"target":"left","response":"left","rt":607.69999999925,"correct":true,"confidence":-1},{"trial_n":15,"n_dots":3.65,"target":"left","response":"right","rt":478.79999999702,"correct":false,"confidence":-1},{"trial_n":16,"n_dots":3.75,"target":"left","response":"left","rt":384.30000000075,"correct":true,"confidence":-1},{"trial_n":17,"n_dots":3.75,"target":"left","response":"left","rt":501.59999999776,"correct":true,"confidence":-1},{"trial_n":18,"n_dots":3.65,"target":"left","response":"left","rt":328.80000000075,"correct":true,"confidence":-1},{"trial_n":19,"n_dots":3.65,"target":"left","response":"left","rt":484.80000000075,"correct":true,"confidence":-1},{"trial_n":20,"n_dots":3.55,"target":"left","response":"left","rt":1798.799999997,"correct":true,"confidence":-1},{"trial_n":21,"n_dots":3.55,"target":"left","response":"left","rt":419.30000000075,"correct":true,"confidence":-1},{"trial_n":22,"n_dots":3.45,"target":"left","response":"right","rt":411.59999999776,"correct":false,"confidence":-1},{"trial_n":23,"n_dots":3.55,"target":"left","response":"right","rt":532.09999999776,"correct":false,"confidence":-1},{"trial_n":24,"n_dots":3.65,"target":"left","response":"left","rt":340.5,"correct":true,"confidence":-1},{"trial_n":25,"n_dots":3.65,"target":"right","response":"left","rt":352,"correct":false,"confidence":-1},{"trial_n":26,"n_dots":3.75,"target":"right","response":"right","rt":522.39999999851,"correct":true,"confidence":-1},{"trial_n":27,"n_dots":3.75,"target":"right","response":"left","rt":904,"correct":false,"confidence":4},{"trial_n":28,"n_dots":3.85,"target":"left","response":"left","rt":1733.3999999985,"correct":true,"confidence":5},{"trial_n":29,"n_dots":3.85,"target":"left","response":"left","rt":741.60000000149,"correct":true,"confidence":5},{"trial_n":30,"n_dots":3.75,"target":"right","response":"right","rt":886.59999999776,"correct":true,"confidence":6},{"trial_n":31,"n_dots":3.75,"target":"right","response":"right","rt":1131.5,"correct":true,"confidence":4},{"trial_n":32,"n_dots":3.65,"target":"right","response":"right","rt":932.69999999925,"correct":true,"confidence":4},{"trial_n":33,"n_dots":3.65,"target":"right","response":"right","rt":742.80000000075,"correct":true,"confidence":6},{"trial_n":34,"n_dots":3.55,"target":"right","response":"right","rt":855.19999999925,"correct":true,"confidence":4},{"trial_n":35,"n_dots":3.55,"target":"left","response":"left","rt":802,"correct":true,"confidence":6},{"trial_n":36,"n_dots":3.45,"target":"right","response":"right","rt":837.10000000149,"correct":true,"confidence":4},{"trial_n":37,"n_dots":3.45,"target":"left","response":"left","rt":545.79999999702,"correct":true,"confidence":6},{"trial_n":38,"n_dots":3.35,"target":"left","response":"left","rt":1375.4000000022,"correct":true,"confidence":2},{"trial_n":39,"n_dots":3.35,"target":"right","response":"right","rt":804.60000000149,"correct":true,"confidence":4},{"trial_n":40,"n_dots":3.25,"target":"left","response":"left","rt":1215.6000000015,"correct":true,"confidence":6},{"trial_n":41,"n_dots":3.25,"target":"left","response":"right","rt":1538.1999999993,"correct":false,"confidence":3},{"trial_n":42,"n_dots":3.35,"target":"left","response":"left","rt":1814.6999999993,"correct":true,"confidence":4},{"trial_n":43,"n_dots":3.35,"target":"right","response":"right","rt":740.89999999851,"correct":true,"confidence":6},{"trial_n":44,"n_dots":3.25,"target":"left","response":"right","rt":846,"correct":false,"confidence":4},{"trial_n":45,"n_dots":3.35,"target":"left","response":"left","rt":664.20000000298,"correct":true,"confidence":5},{"trial_n":46,"n_dots":3.35,"target":"right","response":"right","rt":840.80000000075,"correct":true,"confidence":5},{"trial_n":47,"n_dots":3.25,"target":"right","response":"right","rt":885.69999999925,"correct":true,"confidence":5},{"trial_n":48,"n_dots":3.25,"target":"right","response":"right","rt":721.30000000075,"correct":true,"confidence":5},{"trial_n":49,"n_dots":3.15,"target":"right","response":"right","rt":2077,"correct":true,"confidence":3},{"trial_n":50,"n_dots":3.15,"target":"right","response":"right","rt":774,"correct":true,"confidence":4},{"trial_n":51,"n_dots":3.05,"target":"right","response":"left","rt":738.69999999925,"correct":false,"confidence":4},{"trial_n":52,"n_dots":3.15,"target":"left","response":"left","rt":2037.8999999985,"correct":true,"confidence":3},{"trial_n":53,"n_dots":3.15,"target":"left","response":"left","rt":952.40000000224,"correct":true,"confidence":3},{"trial_n":54,"n_dots":3.05,"target":"left","response":"left","rt":949.60000000149,"correct":true,"confidence":4},{"trial_n":55,"n_dots":3.05,"target":"right","response":"left","rt":1063.8999999985,"correct":false,"confidence":3},{"trial_n":56,"n_dots":3.15,"target":"left","response":"right","rt":1383.9000000022,"correct":false,"confidence":3},{"trial_n":57,"n_dots":3.25,"target":"right","response":"left","rt":2791.700000003,"correct":false,"confidence":3},{"trial_n":58,"n_dots":3.35,"target":"left","response":"left","rt":799.30000000075,"correct":true,"confidence":3},{"trial_n":59,"n_dots":3.35,"target":"left","response":"left","rt":910.80000000075,"correct":true,"confidence":3},{"trial_n":60,"n_dots":3.25,"target":"right","response":"left","rt":897.59999999776,"correct":false,"confidence":5},{"trial_n":61,"n_dots":3.35,"target":"right","response":"left","rt":800.5,"correct":false,"confidence":6},{"trial_n":62,"n_dots":3.45,"target":"right","response":"right","rt":1110.1000000015,"correct":true,"confidence":4},{"trial_n":63,"n_dots":3.45,"target":"right","response":"left","rt":891.19999999925,"correct":false,"confidence":4},{"trial_n":64,"n_dots":3.55,"target":"left","response":"left","rt":1052.5999999978,"correct":true,"confidence":6},{"trial_n":65,"n_dots":3.55,"target":"left","response":"left","rt":782.09999999776,"correct":true,"confidence":3},{"trial_n":66,"n_dots":3.45,"target":"right","response":"right","rt":786,"correct":true,"confidence":5},{"trial_n":67,"n_dots":3.45,"target":"right","response":"left","rt":1022,"correct":false,"confidence":3},{"trial_n":68,"n_dots":3.55,"target":"right","response":"right","rt":909,"correct":true,"confidence":5},{"trial_n":69,"n_dots":3.55,"target":"right","response":"right","rt":960.40000000224,"correct":true,"confidence":4},{"trial_n":70,"n_dots":3.45,"target":"right","response":"right","rt":1637.3000000007,"correct":true,"confidence":3},{"trial_n":71,"n_dots":3.45,"target":"left","response":"left","rt":796.19999999925,"correct":true,"confidence":6},{"trial_n":72,"n_dots":3.35,"target":"left","response":"left","rt":669.30000000075,"correct":true,"confidence":6},{"trial_n":73,"n_dots":3.35,"target":"right","response":"right","rt":843.60000000149,"correct":true,"confidence":4},{"trial_n":74,"n_dots":3.25,"target":"left","response":"right","rt":685.69999999925,"correct":false,"confidence":4},{"trial_n":75,"n_dots":3.35,"target":"right","response":"right","rt":1037.5,"correct":true,"confidence":2},{"trial_n":76,"n_dots":3.35,"target":"right","response":"left","rt":715.5,"correct":false,"confidence":5},{"trial_n":77,"n_dots":3.45,"target":"left","response":"left","rt":833.10000000149,"correct":true,"confidence":5},{"trial_n":78,"n_dots":3.45,"target":"left","response":"left","rt":886,"correct":true,"confidence":5},{"trial_n":79,"n_dots":3.35,"target":"right","response":"left","rt":758,"correct":false,"confidence":5},{"trial_n":80,"n_dots":3.45,"target":"left","response":"left","rt":724.80000000075,"correct":true,"confidence":2},{"trial_n":81,"n_dots":3.45,"target":"left","response":"left","rt":743.10000000149,"correct":true,"confidence":3},{"trial_n":82,"n_dots":3.35,"target":"left","response":"left","rt":725.29999999702,"correct":true,"confidence":2},{"trial_n":83,"n_dots":3.35,"target":"right","response":"right","rt":768.40000000224,"correct":true,"confidence":4},{"trial_n":84,"n_dots":3.25,"target":"left","response":"left","rt":710.89999999851,"correct":true,"confidence":6},{"trial_n":85,"n_dots":3.25,"target":"left","response":"left","rt":849.60000000149,"correct":true,"confidence":5},{"trial_n":86,"n_dots":3.15,"target":"right","response":"right","rt":1126.6000000015,"correct":true,"confidence":3},{"trial_n":87,"n_dots":3.15,"target":"right","response":"right","rt":1996.9000000022,"correct":true,"confidence":2},{"trial_n":88,"n_dots":3.05,"target":"right","response":"right","rt":1148.3000000007,"correct":true,"confidence":2},{"trial_n":89,"n_dots":3.05,"target":"right","response":"right","rt":1260.6999999993,"correct":true,"confidence":2},{"trial_n":90,"n_dots":2.95,"target":"right","response":"right","rt":778.80000000075,"correct":true,"confidence":4},{"trial_n":91,"n_dots":2.95,"target":"right","response":"right","rt":989.69999999925,"correct":true,"confidence":4},{"trial_n":92,"n_dots":2.85,"target":"left","response":"right","rt":811,"correct":false,"confidence":1},{"trial_n":93,"n_dots":2.95,"target":"left","response":"left","rt":1357.1999999993,"correct":true,"confidence":3},{"trial_n":94,"n_dots":2.95,"target":"left","response":"left","rt":687.29999999702,"correct":true,"confidence":6},{"trial_n":95,"n_dots":2.85,"target":"left","response":"left","rt":1165.3999999985,"correct":true,"confidence":5},{"trial_n":96,"n_dots":2.85,"target":"right","response":"right","rt":672.5,"correct":true,"confidence":6},{"trial_n":97,"n_dots":2.75,"target":"right","response":"right","rt":690.79999999702,"correct":true,"confidence":6},{"trial_n":98,"n_dots":2.75,"target":"left","response":"left","rt":2177.6999999993,"correct":true,"confidence":5},{"trial_n":99,"n_dots":2.65,"target":"right","response":"left","rt":1363.1999999993,"correct":false,"confidence":3},{"trial_n":100,"n_dots":2.75,"target":"right","response":"right","rt":694.09999999776,"correct":true,"confidence":6},{"trial_n":101,"n_dots":2.75,"target":"left","response":"right","rt":768.60000000149,"correct":false,"confidence":6},{"trial_n":102,"n_dots":2.85,"target":"left","response":"left","rt":675.19999999925,"correct":true,"confidence":6},{"trial_n":103,"n_dots":2.85,"target":"left","response":"right","rt":1869.3999999985,"correct":false,"confidence":1},{"trial_n":104,"n_dots":2.95,"target":"left","response":"left","rt":663.5,"correct":true,"confidence":6},{"trial_n":105,"n_dots":2.95,"target":"right","response":"left","rt":1028.700000003,"correct":false,"confidence":6},{"trial_n":106,"n_dots":3.05,"target":"right","response":"right","rt":1059.4000000022,"correct":true,"confidence":4},{"trial_n":107,"n_dots":3.05,"target":"right","response":"left","rt":732.30000000075,"correct":false,"confidence":3},{"trial_n":108,"n_dots":3.15,"target":"right","response":"left","rt":824.5,"correct":false,"confidence":1},{"trial_n":109,"n_dots":3.25,"target":"left","response":"left","rt":970.10000000149,"correct":true,"confidence":3},{"trial_n":110,"n_dots":3.25,"target":"right","response":"right","rt":719.89999999851,"correct":true,"confidence":3},{"trial_n":111,"n_dots":3.15,"target":"left","response":"left","rt":620.19999999925,"correct":true,"confidence":4},{"trial_n":112,"n_dots":3.15,"target":"right","response":"right","rt":741.80000000075,"correct":true,"confidence":4},{"trial_n":113,"n_dots":3.05,"target":"left","response":"left","rt":698.90000000224,"correct":true,"confidence":6},{"trial_n":114,"n_dots":3.05,"target":"left","response":"left","rt":747.70000000298,"correct":true,"confidence":2},{"trial_n":115,"n_dots":2.95,"target":"right","response":"left","rt":663.30000000075,"correct":false,"confidence":3},{"trial_n":116,"n_dots":3.05,"target":"right","response":"right","rt":843.5,"correct":true,"confidence":3},{"trial_n":117,"n_dots":3.05,"target":"right","response":"left","rt":1024.8000000007,"correct":false,"confidence":5},{"trial_n":118,"n_dots":3.15,"target":"left","response":"left","rt":700.80000000075,"correct":true,"confidence":5},{"trial_n":119,"n_dots":3.15,"target":"left","response":"left","rt":720,"correct":true,"confidence":4},{"trial_n":120,"n_dots":3.05,"target":"right","response":"right","rt":772.5,"correct":true,"confidence":6},{"trial_n":121,"n_dots":3.05,"target":"right","response":"left","rt":821.89999999851,"correct":false,"confidence":5},{"trial_n":122,"n_dots":3.15,"target":"left","response":"left","rt":615.29999999702,"correct":true,"confidence":6},{"trial_n":123,"n_dots":3.15,"target":"left","response":"left","rt":707.10000000149,"correct":true,"confidence":5},{"trial_n":124,"n_dots":3.05,"target":"right","response":"right","rt":724.90000000224,"correct":true,"confidence":5},{"trial_n":125,"n_dots":3.05,"target":"left","response":"left","rt":688.30000000075,"correct":true,"confidence":4},{"trial_n":126,"n_dots":2.95,"target":"left","response":"right","rt":973.19999999925,"correct":false,"confidence":4},{"trial_n":127,"n_dots":3.05,"target":"right","response":"left","rt":602,"correct":false,"confidence":4},{"trial_n":128,"n_dots":3.15,"target":"left","response":"left","rt":726.80000000075,"correct":true,"confidence":4},{"trial_n":129,"n_dots":3.15,"target":"right","response":"right","rt":694.10000000149,"correct":true,"confidence":6},{"trial_n":130,"n_dots":3.05,"target":"right","response":"right","rt":790.30000000075,"correct":true,"confidence":6},{"trial_n":131,"n_dots":3.05,"target":"left","response":"right","rt":765.09999999776,"correct":false,"confidence":6},{"trial_n":132,"n_dots":3.15,"target":"right","response":"right","rt":751.70000000298,"correct":true,"confidence":6},{"trial_n":133,"n_dots":3.15,"target":"right","response":"left","rt":638.80000000075,"correct":false,"confidence":6},{"trial_n":134,"n_dots":3.25,"target":"left","response":"left","rt":622.39999999851,"correct":true,"confidence":6},{"trial_n":135,"n_dots":3.25,"target":"left","response":"left","rt":619.10000000149,"correct":true,"confidence":6},{"trial_n":136,"n_dots":3.15,"target":"right","response":"right","rt":776.5,"correct":true,"confidence":6},{"trial_n":137,"n_dots":3.15,"target":"right","response":"right","rt":702.09999999776,"correct":true,"confidence":6},{"trial_n":138,"n_dots":3.05,"target":"right","response":"right","rt":587.30000000075,"correct":true,"confidence":6},{"trial_n":139,"n_dots":3.05,"target":"left","response":"left","rt":642.19999999925,"correct":true,"confidence":6},{"trial_n":140,"n_dots":2.95,"target":"left","response":"left","rt":681.29999999702,"correct":true,"confidence":4},{"trial_n":141,"n_dots":2.95,"target":"right","response":"right","rt":1585.5,"correct":true,"confidence":3},{"trial_n":142,"n_dots":2.85,"target":"left","response":"left","rt":772.19999999925,"correct":true,"confidence":5},{"trial_n":143,"n_dots":2.85,"target":"right","response":"right","rt":1181.1999999993,"correct":true,"confidence":6},{"trial_n":144,"n_dots":2.75,"target":"left","response":"right","rt":605.19999999925,"correct":false,"confidence":5},{"trial_n":145,"n_dots":2.85,"target":"left","response":"left","rt":937.39999999851,"correct":true,"confidence":4},{"trial_n":146,"n_dots":2.85,"target":"right","response":"left","rt":1133.1999999993,"correct":false,"confidence":5},{"trial_n":147,"n_dots":2.95,"target":"right","response":"right","rt":736.60000000149,"correct":true,"confidence":4},{"trial_n":148,"n_dots":2.95,"target":"left","response":"right","rt":870.10000000149,"correct":false,"confidence":4},{"trial_n":149,"n_dots":3.05,"target":"right","response":"left","rt":669.40000000224,"correct":false,"confidence":5},{"trial_n":150,"n_dots":3.15,"target":"right","response":"right","rt":650.80000000075,"correct":true,"confidence":6},{"trial_n":151,"n_dots":3.15,"target":"right","response":"right","rt":1002.3000000007,"correct":true,"confidence":3},{"trial_n":152,"n_dots":3.05,"target":"right","response":"right","rt":604.80000000075,"correct":true,"confidence":6},{"trial_n":153,"n_dots":3.05,"target":"right","response":"right","rt":555.30000000075,"correct":true,"confidence":6},{"trial_n":154,"n_dots":2.95,"target":"left","response":"right","rt":548.79999999702,"correct":false,"confidence":6},{"trial_n":155,"n_dots":3.05,"target":"right","response":"right","rt":1638.5,"correct":true,"confidence":5},{"trial_n":156,"n_dots":3.05,"target":"left","response":"right","rt":575.40000000224,"correct":false,"confidence":6},{"trial_n":157,"n_dots":3.15,"target":"left","response":"left","rt":690.19999999925,"correct":true,"confidence":6},{"trial_n":158,"n_dots":3.15,"target":"right","response":"right","rt":770.30000000075,"correct":true,"confidence":3},{"trial_n":159,"n_dots":3.05,"target":"left","response":"left","rt":617.5,"correct":true,"confidence":5},{"trial_n":160,"n_dots":3.05,"target":"left","response":"left","rt":625.79999999702,"correct":true,"confidence":5},{"trial_n":161,"n_dots":2.95,"target":"left","response":"right","rt":669.19999999925,"correct":false,"confidence":5},{"trial_n":162,"n_dots":3.05,"target":"right","response":"right","rt":562.19999999925,"correct":true,"confidence":4},{"trial_n":163,"n_dots":3.05,"target":"left","response":"left","rt":653.69999999925,"correct":true,"confidence":6},{"trial_n":164,"n_dots":2.95,"target":"left","response":"left","rt":615.39999999851,"correct":true,"confidence":6},{"trial_n":165,"n_dots":2.95,"target":"left","response":"left","rt":2000,"correct":true,"confidence":6},{"trial_n":166,"n_dots":2.85,"target":"left","response":"left","rt":951,"correct":true,"confidence":6},{"trial_n":167,"n_dots":2.85,"target":"right","response":"right","rt":8307.6000000015,"correct":true,"confidence":6},{"trial_n":168,"n_dots":2.75,"target":"right","response":"right","rt":1398,"correct":true,"confidence":6},{"trial_n":169,"n_dots":2.75,"target":"left","response":"left","rt":618.59999999776,"correct":true,"confidence":6},{"trial_n":170,"n_dots":2.65,"target":"right","response":"left","rt":718.90000000224,"correct":false,"confidence":5},{"trial_n":171,"n_dots":2.75,"target":"left","response":"left","rt":5293.0999999978,"correct":true,"confidence":1},{"trial_n":172,"n_dots":2.75,"target":"left","response":"right","rt":743.59999999776,"correct":false,"confidence":5},{"trial_n":173,"n_dots":2.85,"target":"left","response":"left","rt":533.19999999925,"correct":true,"confidence":6},{"trial_n":174,"n_dots":2.85,"target":"left","response":"left","rt":729,"correct":true,"confidence":3},{"trial_n":175,"n_dots":2.75,"target":"right","response":"right","rt":768.79999999702,"correct":true,"confidence":6},{"trial_n":176,"n_dots":2.75,"target":"left","response":"right","rt":630.90000000224,"correct":false,"confidence":6},{"trial_n":177,"n_dots":2.85,"target":"right","response":"left","rt":1203.6000000015,"correct":false,"confidence":5},{"trial_n":178,"n_dots":2.95,"target":"right","response":"right","rt":1014.5,"correct":true,"confidence":6},{"trial_n":179,"n_dots":2.95,"target":"left","response":"right","rt":1008.700000003,"correct":false,"confidence":5},{"trial_n":180,"n_dots":3.05,"target":"right","response":"right","rt":510.5,"correct":true,"confidence":6},{"trial_n":181,"n_dots":3.05,"target":"left","response":"left","rt":716.09999999776,"correct":true,"confidence":6},{"trial_n":182,"n_dots":2.95,"target":"right","response":"left","rt":1001.1999999993,"correct":false,"confidence":3},{"trial_n":183,"n_dots":3.05,"target":"right","response":"left","rt":760.39999999851,"correct":false,"confidence":4},{"trial_n":184,"n_dots":3.15,"target":"right","response":"right","rt":454.39999999851,"correct":true,"confidence":6},{"trial_n":185,"n_dots":3.15,"target":"left","response":"right","rt":664,"correct":false,"confidence":5},{"trial_n":186,"n_dots":3.25,"target":"right","response":"right","rt":806.5,"correct":true,"confidence":6},{"trial_n":187,"n_dots":3.25,"target":"right","response":"right","rt":741.29999999702,"correct":true,"confidence":6},{"trial_n":188,"n_dots":3.15,"target":"right","response":"right","rt":871.40000000224,"correct":true,"confidence":6},{"trial_n":189,"n_dots":3.15,"target":"right","response":"right","rt":532.10000000149,"correct":true,"confidence":4},{"trial_n":190,"n_dots":3.05,"target":"right","response":"right","rt":739.19999999925,"correct":true,"confidence":4},{"trial_n":191,"n_dots":3.05,"target":"right","response":"right","rt":808.19999999925,"correct":true,"confidence":1},{"trial_n":192,"n_dots":2.95,"target":"right","response":"right","rt":672.10000000149,"correct":true,"confidence":3},{"trial_n":193,"n_dots":2.95,"target":"left","response":"right","rt":810.70000000298,"correct":false,"confidence":2},{"trial_n":194,"n_dots":3.05,"target":"right","response":"right","rt":705.40000000224,"correct":true,"confidence":6}]