[{"trial_n":1,"n_dots":4.25,"target":"right","response":"left","rt":8998.200000003,"correct":false,"confidence":-1},{"trial_n":2,"n_dots":4.25,"target":"right","response":"right","rt":598,"correct":true,"confidence":-1},{"trial_n":3,"n_dots":4.25,"target":"right","response":"right","rt":422.70000000298,"correct":true,"confidence":-1},{"trial_n":4,"n_dots":3.85,"target":"left","response":"left","rt":374.59999999404,"correct":true,"confidence":-1},{"trial_n":5,"n_dots":3.85,"target":"right","response":"left","rt":729,"correct":false,"confidence":-1},{"trial_n":6,"n_dots":4.25,"target":"right","response":"right","rt":415.60000000894,"correct":true,"confidence":-1},{"trial_n":7,"n_dots":4.25,"target":"left","response":"left","rt":311.40000000596,"correct":true,"confidence":-1},{"trial_n":8,"n_dots":4.05,"target":"right","response":"right","rt":359.20000000298,"correct":true,"confidence":-1},{"trial_n":9,"n_dots":4.05,"target":"right","response":"right","rt":537.29999999702,"correct":true,"confidence":-1},{"trial_n":10,"n_dots":3.85,"target":"right","response":"right","rt":512.5,"correct":true,"confidence":-1},{"trial_n":11,"n_dots":3.85,"target":"left","response":"left","rt":356.20000000298,"correct":true,"confidence":-1},{"trial_n":12,"n_dots":3.65,"target":"left","response":"left","rt":255.30000001192,"correct":true,"confidence":-1},{"trial_n":13,"n_dots":3.65,"target":"right","response":"left","rt":520.40000000596,"correct":false,"confidence":-1},{"trial_n":14,"n_dots":3.75,"target":"left","response":"left","rt":260.20000000298,"correct":true,"confidence":-1},{"trial_n":15,"n_dots":3.75,"target":"left","response":"left","rt":276.29999999702,"correct":true,"confidence":-1},{"trial_n":16,"n_dots":3.65,"target":"right","response":"left","rt":534.5,"correct":false,"confidence":-1},{"trial_n":17,"n_dots":3.75,"target":"left","response":"left","rt":312.90000000596,"correct":true,"confidence":-1},{"trial_n":18,"n_dots":3.75,"target":"right","response":"right","rt":260.20000000298,"correct":true,"confidence":-1},{"trial_n":19,"n_dots":3.65,"target":"right","response":"right","rt":326,"correct":true,"confidence":-1},{"trial_n":20,"n_dots":3.65,"target":"right","response":"right","rt":256.59999999404,"correct":true,"confidence":-1},{"trial_n":21,"n_dots":3.55,"target":"right","response":"right","rt":351.60000000894,"correct":true,"confidence":-1},{"trial_n":22,"n_dots":3.55,"target":"left","response":"left","rt":238.80000001192,"correct":true,"confidence":-1},{"trial_n":23,"n_dots":3.45,"target":"left","response":"left","rt":328.5,"correct":true,"confidence":-1},{"trial_n":24,"n_dots":3.45,"target":"left","response":"left","rt":407,"correct":true,"confidence":-1},{"trial_n":25,"n_dots":3.35,"target":"right","response":"right","rt":244.20000000298,"correct":true,"confidence":-1},{"trial_n":26,"n_dots":3.35,"target":"left","response":"left","rt":374.40000000596,"correct":true,"confidence":-1},{"trial_n":27,"n_dots":3.25,"target":"left","response":"left","rt":310.40000000596,"correct":true,"confidence":6},{"trial_n":28,"n_dots":3.25,"target":"left","response":"left","rt":464.10000000894,"correct":true,"confidence":5},{"trial_n":29,"n_dots":3.15,"target":"left","response":"left","rt":729.20000000298,"correct":true,"confidence":5},{"trial_n":30,"n_dots":3.15,"target":"left","response":"left","rt":671.40000000596,"correct":true,"confidence":5},{"trial_n":31,"n_dots":3.05,"target":"left","response":"left","rt":489.20000000298,"correct":true,"confidence":4},{"trial_n":32,"n_dots":3.05,"target":"right","response":"left","rt":2741.3000000119,"correct":false,"confidence":3},{"trial_n":33,"n_dots":3.15,"target":"right","response":"right","rt":1736.400000006,"correct":true,"confidence":4},{"trial_n":34,"n_dots":3.15,"target":"left","response":"right","rt":1476.200000003,"correct":false,"confidence":3},{"trial_n":35,"n_dots":3.25,"target":"left","response":"left","rt":624.60000000894,"correct":true,"confidence":5},{"trial_n":36,"n_dots":3.25,"target":"left","response":"left","rt":470.59999999404,"correct":true,"confidence":5},{"trial_n":37,"n_dots":3.15,"target":"right","response":"right","rt":612.29999999702,"correct":true,"confidence":3},{"trial_n":38,"n_dots":3.15,"target":"left","response":"left","rt":501.40000000596,"correct":true,"confidence":6},{"trial_n":39,"n_dots":3.05,"target":"right","response":"right","rt":1031.099999994,"correct":true,"confidence":3},{"trial_n":40,"n_dots":3.05,"target":"left","response":"left","rt":684.20000000298,"correct":true,"confidence":5},{"trial_n":41,"n_dots":2.95,"target":"left","response":"left","rt":561.20000000298,"correct":true,"confidence":6},{"trial_n":42,"n_dots":2.95,"target":"left","response":"left","rt":359.70000000298,"correct":true,"confidence":6},{"trial_n":43,"n_dots":2.85,"target":"left","response":"left","rt":551.70000000298,"correct":true,"confidence":6},{"trial_n":44,"n_dots":2.85,"target":"left","response":"left","rt":672.90000000596,"correct":true,"confidence":6},{"trial_n":45,"n_dots":2.75,"target":"right","response":"right","rt":948.10000000894,"correct":true,"confidence":4},{"trial_n":46,"n_dots":2.75,"target":"right","response":"left","rt":646,"correct":false,"confidence":2},{"trial_n":47,"n_dots":2.85,"target":"left","response":"left","rt":448.10000000894,"correct":true,"confidence":6},{"trial_n":48,"n_dots":2.85,"target":"right","response":"left","rt":590.20000000298,"correct":false,"confidence":5},{"trial_n":49,"n_dots":2.95,"target":"left","response":"left","rt":1556.400000006,"correct":true,"confidence":3},{"trial_n":50,"n_dots":2.95,"target":"right","response":"left","rt":928.29999999702,"correct":false,"confidence":6},{"trial_n":51,"n_dots":3.05,"target":"left","response":"left","rt":509.30000001192,"correct":true,"confidence":4},{"trial_n":52,"n_dots":3.05,"target":"left","response":"left","rt":816.70000000298,"correct":true,"confidence":6},{"trial_n":53,"n_dots":2.95,"target":"right","response":"right","rt":612.29999999702,"correct":true,"confidence":5},{"trial_n":54,"n_dots":2.95,"target":"right","response":"left","rt":568.70000000298,"correct":false,"confidence":5},{"trial_n":55,"n_dots":3.05,"target":"left","response":"left","rt":548.20000000298,"correct":true,"confidence":6},{"trial_n":56,"n_dots":3.05,"target":"left","response":"left","rt":880.90000000596,"correct":true,"confidence":6},{"trial_n":57,"n_dots":2.95,"target":"right","response":"right","rt":3343.200000003,"correct":true,"confidence":4},{"trial_n":58,"n_dots":2.95,"target":"left","response":"right","rt":776.60000000894,"correct":false,"confidence":4},{"trial_n":59,"n_dots":3.05,"target":"right","response":"right","rt":1372.400000006,"correct":true,"confidence":4},{"trial_n":60,"n_dots":3.05,"target":"left","response":"left","rt":309.40000000596,"correct":true,"confidence":6},{"trial_n":61,"n_dots":2.95,"target":"right","response":"left","rt":2326.1000000089,"correct":false,"confidence":3},{"trial_n":62,"n_dots":3.05,"target":"left","response":"right","rt":1572.200000003,"correct":false,"confidence":4},{"trial_n":63,"n_dots":3.15,"target":"right","response":"left","rt":695.79999999702,"correct":false,"confidence":2},{"trial_n":64,"n_dots":3.25,"target":"left","response":"left","rt":1221.400000006,"correct":true,"confidence":4},{"trial_n":65,"n_dots":3.25,"target":"left","response":"left","rt":1376.200000003,"correct":true,"confidence":5},{"trial_n":66,"n_dots":3.15,"target":"left","response":"left","rt":800.40000000596,"correct":true,"confidence":6},{"trial_n":67,"n_dots":3.15,"target":"right","response":"right","rt":756.29999999702,"correct":true,"confidence":6},{"trial_n":68,"n_dots":3.05,"target":"left","response":"left","rt":921,"correct":true,"confidence":6},{"trial_n":69,"n_dots":3.05,"target":"right","response":"left","rt":1095.799999997,"correct":false,"confidence":2},{"trial_n":70,"n_dots":3.15,"target":"right","response":"right","rt":884.20000000298,"correct":true,"confidence":6},{"trial_n":71,"n_dots":3.15,"target":"right","response":"right","rt":599.80000001192,"correct":true,"confidence":4},{"trial_n":72,"n_dots":3.05,"target":"left","response":"left","rt":460.20000000298,"correct":true,"confidence":6},{"trial_n":73,"n_dots":3.05,"target":"right","response":"right","rt":574.5,"correct":true,"confidence":4},{"trial_n":74,"n_dots":2.95,"target":"left","response":"left","rt":1500.200000003,"correct":true,"confidence":2},{"trial_n":75,"n_dots":2.95,"target":"right","response":"left","rt":800.29999999702,"correct":false,"confidence":5},{"trial_n":76,"n_dots":3.05,"target":"right","response":"left","rt":524.20000000298,"correct":false,"confidence":4},{"trial_n":77,"n_dots":3.15,"target":"right","response":"right","rt":540.10000000894,"correct":true,"confidence":4},{"trial_n":78,"n_dots":3.15,"target":"left","response":"left","rt":892.70000000298,"correct":true,"confidence":3},{"trial_n":79,"n_dots":3.05,"target":"left","response":"left","rt":564.20000000298,"correct":true,"confidence":5},{"trial_n":80,"n_dots":3.05,"target":"left","response":"left","rt":1238.700000003,"correct":true,"confidence":3},{"trial_n":81,"n_dots":2.95,"target":"right","response":"right","rt":416.59999999404,"correct":true,"confidence":6},{"trial_n":82,"n_dots":2.95,"target":"left","response":"left","rt":863.90000000596,"correct":true,"confidence":5},{"trial_n":83,"n_dots":2.85,"target":"left","response":"left","rt":664.10000000894,"correct":true,"confidence":5},{"trial_n":84,"n_dots":2.85,"target":"left","response":"right","rt":815.70000000298,"correct":false,"confidence":5},{"trial_n":85,"n_dots":2.95,"target":"left","response":"right","rt":4200.5,"correct":false,"confidence":3},{"trial_n":86,"n_dots":3.05,"target":"right","response":"right","rt":508.20000000298,"correct":true,"confidence":6},{"trial_n":87,"n_dots":3.05,"target":"right","response":"right","rt":3598.3000000119,"correct":true,"confidence":3},{"trial_n":88,"n_dots":2.95,"target":"right","response":"right","rt":809.29999999702,"correct":true,"confidence":6},{"trial_n":89,"n_dots":2.95,"target":"left","response":"left","rt":326,"correct":true,"confidence":6},{"trial_n":90,"n_dots":2.85,"target":"left","response":"left","rt":304.29999999702,"correct":true,"confidence":6},{"trial_n":91,"n_dots":2.85,"target":"right","response":"right","rt":894.70000000298,"correct":true,"confidence":6},{"trial_n":92,"n_dots":2.75,"target":"left","response":"left","rt":372.10000000894,"correct":true,"confidence":5},{"trial_n":93,"n_dots":2.75,"target":"right","response":"right","rt":1480.8000000119,"correct":true,"confidence":6},{"trial_n":94,"n_dots":2.65,"target":"right","response":"left","rt":5414,"correct":false,"confidence":3},{"trial_n":95,"n_dots":2.75,"target":"right","response":"right","rt":604.29999999702,"correct":true,"confidence":6},{"trial_n":96,"n_dots":2.75,"target":"right","response":"right","rt":848.20000000298,"correct":true,"confidence":6},{"trial_n":97,"n_dots":2.65,"target":"right","response":"right","rt":2158.900000006,"correct":true,"confidence":3},{"trial_n":98,"n_dots":2.65,"target":"left","response":"left","rt":687.60000000894,"correct":true,"confidence":6},{"trial_n":99,"n_dots":2.55,"target":"right","response":"left","rt":1180.700000003,"correct":false,"confidence":4},{"trial_n":100,"n_dots":2.65,"target":"right","response":"right","rt":1823.400000006,"correct":true,"confidence":4},{"trial_n":101,"n_dots":2.65,"target":"right","response":"left","rt":3159.700000003,"correct":false,"confidence":2},{"trial_n":102,"n_dots":2.75,"target":"left","response":"left","rt":1116.1000000089,"correct":true,"confidence":2},{"trial_n":103,"n_dots":2.75,"target":"right","response":"right","rt":1695.200000003,"correct":true,"confidence":5},{"trial_n":104,"n_dots":2.65,"target":"left","response":"left","rt":945.09999999404,"correct":true,"confidence":5},{"trial_n":105,"n_dots":2.65,"target":"left","response":"left","rt":944.29999999702,"correct":true,"confidence":6},{"trial_n":106,"n_dots":2.55,"target":"left","response":"right","rt":1312.5,"correct":false,"confidence":4},{"trial_n":107,"n_dots":2.65,"target":"left","response":"left","rt":564.10000000894,"correct":true,"confidence":6},{"trial_n":108,"n_dots":2.65,"target":"left","response":"left","rt":1236.1000000089,"correct":true,"confidence":6},{"trial_n":109,"n_dots":2.55,"target":"right","response":"right","rt":19548.299999997,"correct":true,"confidence":2},{"trial_n":110,"n_dots":2.55,"target":"right","response":"left","rt":525.60000000894,"correct":false,"confidence":5},{"trial_n":111,"n_dots":2.65,"target":"left","response":"right","rt":743.40000000596,"correct":false,"confidence":4},{"trial_n":112,"n_dots":2.75,"target":"right","response":"left","rt":727.80000001192,"correct":false,"confidence":6},{"trial_n":113,"n_dots":2.85,"target":"left","response":"left","rt":485.10000000894,"correct":true,"confidence":6},{"trial_n":114,"n_dots":2.85,"target":"right","response":"right","rt":1356.599999994,"correct":true,"confidence":5},{"trial_n":115,"n_dots":2.75,"target":"right","response":"right","rt":1132.200000003,"correct":true,"confidence":6},{"trial_n":116,"n_dots":2.75,"target":"left","response":"left","rt":4056.400000006,"correct":true,"confidence":6},{"trial_n":117,"n_dots":2.65,"target":"right","response":"left","rt":1031.400000006,"correct":false,"confidence":5},{"trial_n":118,"n_dots":2.75,"target":"left","response":"right","rt":721.20000000298,"correct":false,"confidence":6},{"trial_n":119,"n_dots":2.85,"target":"left","response":"left","rt":808.5,"correct":true,"confidence":5},{"trial_n":120,"n_dots":2.85,"target":"right","response":"left","rt":1120.599999994,"correct":false,"confidence":6},{"trial_n":121,"n_dots":2.95,"target":"right","response":"right","rt":572.10000000894,"correct":true,"confidence":4},{"trial_n":122,"n_dots":2.95,"target":"right","response":"left","rt":927.09999999404,"correct":false,"confidence":4},{"trial_n":123,"n_dots":3.05,"target":"right","response":"right","rt":406.5,"correct":true,"confidence":4},{"trial_n":124,"n_dots":3.05,"target":"left","response":"left","rt":365.70000000298,"correct":true,"confidence":5},{"trial_n":125,"n_dots":2.95,"target":"right","response":"right","rt":799.5,"correct":true,"confidence":4},{"trial_n":126,"n_dots":2.95,"target":"left","response":"left","rt":431.59999999404,"correct":true,"confidence":6},{"trial_n":127,"n_dots":2.85,"target":"right","response":"right","rt":438.29999999702,"correct":true,"confidence":6},{"trial_n":128,"n_dots":2.85,"target":"left","response":"left","rt":308.10000000894,"correct":true,"confidence":6},{"trial_n":129,"n_dots":2.75,"target":"left","response":"left","rt":436.29999999702,"correct":true,"confidence":6},{"trial_n":130,"n_dots":2.75,"target":"right","response":"right","rt":820.29999999702,"correct":true,"confidence":3},{"trial_n":131,"n_dots":2.65,"target":"left","response":"left","rt":1760.700000003,"correct":true,"confidence":3},{"trial_n":132,"n_dots":2.65,"target":"left","response":"left","rt":2383,"correct":true,"confidence":5},{"trial_n":133,"n_dots":2.55,"target":"left","response":"left","rt":1848.200000003,"correct":true,"confidence":3},{"trial_n":134,"n_dots":2.55,"target":"left","response":"left","rt":880.40000000596,"correct":true,"confidence":3},{"trial_n":135,"n_dots":2.45,"target":"right","response":"right","rt":640,"correct":true,"confidence":3},{"trial_n":136,"n_dots":2.45,"target":"right","response":"left","rt":1076.5,"correct":false,"confidence":4},{"trial_n":137,"n_dots":2.55,"target":"right","response":"left","rt":639.70000000298,"correct":false,"confidence":5},{"trial_n":138,"n_dots":2.65,"target":"left","response":"left","rt":1672.3000000119,"correct":true,"confidence":4},{"trial_n":139,"n_dots":2.65,"target":"left","response":"right","rt":1548.299999997,"correct":false,"confidence":3},{"trial_n":140,"n_dots":2.75,"target":"right","response":"left","rt":16864.799999997,"correct":false,"confidence":4},{"trial_n":141,"n_dots":2.85,"target":"right","response":"right","rt":1220.400000006,"correct":true,"confidence":5},{"trial_n":142,"n_dots":2.85,"target":"left","response":"right","rt":9999,"correct":false,"confidence":4},{"trial_n":143,"n_dots":2.95,"target":"right","response":"left","rt":2470.1000000089,"correct":false,"confidence":4},{"trial_n":144,"n_dots":3.05,"target":"right","response":"right","rt":885.20000000298,"correct":true,"confidence":4},{"trial_n":145,"n_dots":3.05,"target":"left","response":"left","rt":3076.1000000089,"correct":true,"confidence":4},{"trial_n":146,"n_dots":2.95,"target":"right","response":"right","rt":676.20000000298,"correct":true,"confidence":4},{"trial_n":147,"n_dots":2.95,"target":"right","response":"right","rt":1896.700000003,"correct":true,"confidence":4},{"trial_n":148,"n_dots":2.85,"target":"right","response":"left","rt":8126.3000000119,"correct":false,"confidence":4},{"trial_n":149,"n_dots":2.95,"target":"right","response":"right","rt":1824.299999997,"correct":true,"confidence":5},{"trial_n":150,"n_dots":2.95,"target":"left","response":"left","rt":792.29999999702,"correct":true,"confidence":6},{"trial_n":151,"n_dots":2.85,"target":"right","response":"left","rt":1910.1000000089,"correct":false,"confidence":2},{"trial_n":152,"n_dots":2.95,"target":"right","response":"right","rt":487.29999999702,"correct":true,"confidence":4},{"trial_n":153,"n_dots":2.95,"target":"left","response":"left","rt":404.29999999702,"correct":true,"confidence":6},{"trial_n":154,"n_dots":2.85,"target":"right","response":"right","rt":1326.099999994,"correct":true,"confidence":3},{"trial_n":155,"n_dots":2.85,"target":"left","response":"left","rt":388.59999999404,"correct":true,"confidence":4},{"trial_n":156,"n_dots":2.75,"target":"left","response":"left","rt":478.59999999404,"correct":true,"confidence":5},{"trial_n":157,"n_dots":2.75,"target":"left","response":"left","rt":884.29999999702,"correct":true,"confidence":6},{"trial_n":158,"n_dots":2.65,"target":"right","response":"left","rt":502.20000000298,"correct":false,"confidence":6},{"trial_n":159,"n_dots":2.75,"target":"left","response":"left","rt":671.40000000596,"correct":true,"confidence":4},{"trial_n":160,"n_dots":2.75,"target":"left","response":"left","rt":376.5,"correct":true,"confidence":5},{"trial_n":161,"n_dots":2.65,"target":"right","response":"right","rt":496.5,"correct":true,"confidence":3},{"trial_n":162,"n_dots":2.65,"target":"right","response":"left","rt":575.70000000298,"correct":false,"confidence":4},{"trial_n":163,"n_dots":2.75,"target":"right","response":"left","rt":3630.3000000119,"correct":false,"confidence":4},{"trial_n":164,"n_dots":2.85,"target":"left","response":"left","rt":436.59999999404,"correct":true,"confidence":2},{"trial_n":165,"n_dots":2.85,"target":"right","response":"right","rt":607.59999999404,"correct":true,"confidence":4},{"trial_n":166,"n_dots":2.75,"target":"right","response":"left","rt":537,"correct":false,"confidence":4},{"trial_n":167,"n_dots":2.85,"target":"left","response":"left","rt":436.20000000298,"correct":true,"confidence":5},{"trial_n":168,"n_dots":2.85,"target":"left","response":"left","rt":628.20000000298,"correct":true,"confidence":4},{"trial_n":169,"n_dots":2.75,"target":"left","response":"right","rt":615.40000000596,"correct":false,"confidence":4},{"trial_n":170,"n_dots":2.85,"target":"right","response":"right","rt":500.10000000894,"correct":true,"confidence":4},{"trial_n":171,"n_dots":2.85,"target":"left","response":"left","rt":428.29999999702,"correct":true,"confidence":5},{"trial_n":172,"n_dots":2.75,"target":"right","response":"left","rt":352.29999999702,"correct":false,"confidence":5},{"trial_n":173,"n_dots":2.85,"target":"right","response":"right","rt":928.09999999404,"correct":true,"confidence":5},{"trial_n":174,"n_dots":2.85,"target":"right","response":"left","rt":689.29999999702,"correct":false,"confidence":2},{"trial_n":175,"n_dots":2.95,"target":"right","response":"left","rt":861.40000000596,"correct":false,"confidence":4},{"trial_n":176,"n_dots":3.05,"target":"left","response":"left","rt":623.5,"correct":true,"confidence":6},{"trial_n":177,"n_dots":3.05,"target":"right","response":"right","rt":3909.400000006,"correct":true,"confidence":3},{"trial_n":178,"n_dots":2.95,"target":"left","response":"left","rt":519.10000000894,"correct":true,"confidence":5},{"trial_n":179,"n_dots":2.95,"target":"left","response":"left","rt":928.09999999404,"correct":true,"confidence":6},{"trial_n":180,"n_dots":2.85,"target":"right","response":"right","rt":398.90000000596,"correct":true,"confidence":6},{"trial_n":181,"n_dots":2.85,"target":"left","response":"left","rt":772.29999999702,"correct":true,"confidence":6},{"trial_n":182,"n_dots":2.75,"target":"left","response":"left","rt":502.5,"correct":true,"confidence":6},{"trial_n":183,"n_dots":2.75,"target":"left","response":"left","rt":519.90000000596,"correct":true,"confidence":6},{"trial_n":184,"n_dots":2.65,"target":"right","response":"right","rt":1591.8000000119,"correct":true,"confidence":4},{"trial_n":185,"n_dots":2.65,"target":"right","response":"right","rt":726.70000000298,"correct":true,"confidence":6},{"trial_n":186,"n_dots":2.55,"target":"right","response":"right","rt":704.70000000298,"correct":true,"confidence":6},{"trial_n":187,"n_dots":2.55,"target":"left","response":"left","rt":1200.8000000119,"correct":true,"confidence":4},{"trial_n":188,"n_dots":2.45,"target":"right","response":"right","rt":1317.5,"correct":true,"confidence":5},{"trial_n":189,"n_dots":2.45,"target":"left","response":"right","rt":959.60000000894,"correct":false,"confidence":5},{"trial_n":190,"n_dots":2.55,"target":"left","response":"right","rt":1172.200000003,"correct":false,"confidence":3},{"trial_n":191,"n_dots":2.65,"target":"left","response":"left","rt":1359.799999997,"correct":true,"confidence":4},{"trial_n":192,"n_dots":2.65,"target":"left","response":"right","rt":1359.900000006,"correct":false,"confidence":3},{"trial_n":193,"n_dots":2.75,"target":"right","response":"left","rt":269.70000000298,"correct":false,"confidence":6},{"trial_n":194,"n_dots":2.85,"target":"right","response":"right","rt":1521.1000000089,"correct":true,"confidence":3}]