[{"trial_n":1,"n_dots":4.25,"target":"left","response":"right","rt":4611.200000003,"correct":false,"confidence":-1},{"trial_n":2,"n_dots":4.25,"target":"right","response":"right","rt":557.79999999702,"correct":true,"confidence":-1},{"trial_n":3,"n_dots":4.25,"target":"right","response":"right","rt":466.20000000298,"correct":true,"confidence":-1},{"trial_n":4,"n_dots":3.85,"target":"right","response":"left","rt":837.5,"correct":false,"confidence":-1},{"trial_n":5,"n_dots":4.25,"target":"left","response":"left","rt":458.79999999702,"correct":true,"confidence":-1},{"trial_n":6,"n_dots":4.25,"target":"right","response":"right","rt":628.89999999851,"correct":true,"confidence":-1},{"trial_n":7,"n_dots":3.85,"target":"right","response":"right","rt":663,"correct":true,"confidence":-1},{"trial_n":8,"n_dots":3.85,"target":"right","response":"right","rt":1065.6999999955,"correct":true,"confidence":-1},{"trial_n":9,"n_dots":3.65,"target":"right","response":"right","rt":787.19999999553,"correct":true,"confidence":-1},{"trial_n":10,"n_dots":3.65,"target":"left","response":"left","rt":700.30000000447,"correct":true,"confidence":-1},{"trial_n":11,"n_dots":3.45,"target":"right","response":"right","rt":1005.400000006,"correct":true,"confidence":-1},{"trial_n":12,"n_dots":3.45,"target":"left","response":"left","rt":827.30000000447,"correct":true,"confidence":-1},{"trial_n":13,"n_dots":3.35,"target":"left","response":"left","rt":1044.3000000045,"correct":true,"confidence":-1},{"trial_n":14,"n_dots":3.35,"target":"right","response":"right","rt":770.30000000447,"correct":true,"confidence":-1},{"trial_n":15,"n_dots":3.25,"target":"right","response":"right","rt":610.60000000149,"correct":true,"confidence":-1},{"trial_n":16,"n_dots":3.25,"target":"right","response":"right","rt":736.39999999851,"correct":true,"confidence":-1},{"trial_n":17,"n_dots":3.15,"target":"right","response":"right","rt":609.60000000149,"correct":true,"confidence":-1},{"trial_n":18,"n_dots":3.15,"target":"left","response":"left","rt":934.20000000298,"correct":true,"confidence":-1},{"trial_n":19,"n_dots":3.05,"target":"left","response":"left","rt":780.29999999702,"correct":true,"confidence":-1},{"trial_n":20,"n_dots":3.05,"target":"left","response":"left","rt":1069.799999997,"correct":true,"confidence":-1},{"trial_n":21,"n_dots":2.95,"target":"left","response":"left","rt":698.29999999702,"correct":true,"confidence":-1},{"trial_n":22,"n_dots":2.95,"target":"left","response":"left","rt":1004.099999994,"correct":true,"confidence":-1},{"trial_n":23,"n_dots":2.85,"target":"left","response":"right","rt":520.09999999404,"correct":false,"confidence":-1},{"trial_n":24,"n_dots":2.95,"target":"left","response":"left","rt":931,"correct":true,"confidence":-1},{"trial_n":25,"n_dots":2.95,"target":"right","response":"right","rt":1419,"correct":true,"confidence":-1},{"trial_n":26,"n_dots":2.85,"target":"right","response":"right","rt":677.60000000149,"correct":true,"confidence":-1},{"trial_n":27,"n_dots":2.85,"target":"left","response":"right","rt":745.70000000298,"correct":false,"confidence":4},{"trial_n":28,"n_dots":2.95,"target":"left","response":"right","rt":1881,"correct":false,"confidence":3},{"trial_n":29,"n_dots":3.05,"target":"left","response":"right","rt":734.29999999702,"correct":false,"confidence":5},{"trial_n":30,"n_dots":3.15,"target":"left","response":"left","rt":674.29999999702,"correct":true,"confidence":4},{"trial_n":31,"n_dots":3.15,"target":"left","response":"right","rt":1765.8000000045,"correct":false,"confidence":3},{"trial_n":32,"n_dots":3.25,"target":"right","response":"right","rt":787.20000000298,"correct":true,"confidence":5},{"trial_n":33,"n_dots":3.25,"target":"right","response":"right","rt":985,"correct":true,"confidence":4},{"trial_n":34,"n_dots":3.15,"target":"left","response":"right","rt":1321.1000000015,"correct":false,"confidence":2},{"trial_n":35,"n_dots":3.25,"target":"right","response":"right","rt":6290.799999997,"correct":true,"confidence":4},{"trial_n":36,"n_dots":3.25,"target":"right","response":"right","rt":720.29999999702,"correct":true,"confidence":3},{"trial_n":37,"n_dots":3.15,"target":"left","response":"left","rt":799.80000000447,"correct":true,"confidence":5},{"trial_n":38,"n_dots":3.15,"target":"right","response":"left","rt":2125.3999999985,"correct":false,"confidence":2},{"trial_n":39,"n_dots":3.25,"target":"left","response":"left","rt":708.39999999851,"correct":true,"confidence":4},{"trial_n":40,"n_dots":3.25,"target":"left","response":"left","rt":905.60000000149,"correct":true,"confidence":3},{"trial_n":41,"n_dots":3.15,"target":"left","response":"left","rt":907,"correct":true,"confidence":5},{"trial_n":42,"n_dots":3.15,"target":"right","response":"right","rt":3442.6000000015,"correct":true,"confidence":2},{"trial_n":43,"n_dots":3.05,"target":"right","response":"right","rt":738.09999999404,"correct":true,"confidence":5},{"trial_n":44,"n_dots":3.05,"target":"left","response":"left","rt":1111.5,"correct":true,"confidence":2},{"trial_n":45,"n_dots":2.95,"target":"right","response":"right","rt":1524.700000003,"correct":true,"confidence":3},{"trial_n":46,"n_dots":2.95,"target":"right","response":"right","rt":873.10000000149,"correct":true,"confidence":4},{"trial_n":47,"n_dots":2.85,"target":"left","response":"left","rt":2566.799999997,"correct":true,"confidence":3},{"trial_n":48,"n_dots":2.85,"target":"right","response":"right","rt":2839,"correct":true,"confidence":1},{"trial_n":49,"n_dots":2.75,"target":"left","response":"left","rt":884,"correct":true,"confidence":3},{"trial_n":50,"n_dots":2.75,"target":"right","response":"right","rt":843.19999999553,"correct":true,"confidence":3},{"trial_n":51,"n_dots":2.65,"target":"right","response":"right","rt":5016.900000006,"correct":true,"confidence":4},{"trial_n":52,"n_dots":2.65,"target":"left","response":"left","rt":1657.8000000045,"correct":true,"confidence":3},{"trial_n":53,"n_dots":2.55,"target":"left","response":"left","rt":1570.8000000045,"correct":true,"confidence":1},{"trial_n":54,"n_dots":2.55,"target":"left","response":"left","rt":816.29999999702,"correct":true,"confidence":3},{"trial_n":55,"n_dots":2.45,"target":"right","response":"right","rt":2016.1999999955,"correct":true,"confidence":4},{"trial_n":56,"n_dots":2.45,"target":"right","response":"left","rt":819.60000000149,"correct":false,"confidence":4},{"trial_n":57,"n_dots":2.55,"target":"left","response":"left","rt":6437.299999997,"correct":true,"confidence":3},{"trial_n":58,"n_dots":2.55,"target":"left","response":"right","rt":2239.1000000015,"correct":false,"confidence":4},{"trial_n":59,"n_dots":2.65,"target":"left","response":"left","rt":3550.8000000045,"correct":true,"confidence":2},{"trial_n":60,"n_dots":2.65,"target":"left","response":"left","rt":5983.3000000045,"correct":true,"confidence":4},{"trial_n":61,"n_dots":2.55,"target":"right","response":"right","rt":745.20000000298,"correct":true,"confidence":4},{"trial_n":62,"n_dots":2.55,"target":"right","response":"right","rt":821.79999999702,"correct":true,"confidence":5},{"trial_n":63,"n_dots":2.45,"target":"left","response":"left","rt":7144.8000000045,"correct":true,"confidence":3},{"trial_n":64,"n_dots":2.45,"target":"right","response":"right","rt":7106.3000000045,"correct":true,"confidence":2},{"trial_n":65,"n_dots":2.35,"target":"left","response":"left","rt":5255.1000000015,"correct":true,"confidence":2},{"trial_n":66,"n_dots":2.35,"target":"right","response":"right","rt":1135.8999999985,"correct":true,"confidence":3},{"trial_n":67,"n_dots":2.25,"target":"right","response":"left","rt":1099.8999999985,"correct":false,"confidence":2},{"trial_n":68,"n_dots":2.35,"target":"left","response":"left","rt":1790.6999999955,"correct":true,"confidence":4},{"trial_n":69,"n_dots":2.35,"target":"right","response":"right","rt":821.69999999553,"correct":true,"confidence":3},{"trial_n":70,"n_dots":2.25,"target":"right","response":"right","rt":2462.700000003,"correct":true,"confidence":2},{"trial_n":71,"n_dots":2.25,"target":"right","response":"right","rt":756.60000000149,"correct":true,"confidence":4},{"trial_n":72,"n_dots":2.15,"target":"left","response":"left","rt":3062.700000003,"correct":true,"confidence":1},{"trial_n":73,"n_dots":2.15,"target":"left","response":"right","rt":22260.399999999,"correct":false,"confidence":1},{"trial_n":74,"n_dots":2.25,"target":"left","response":"left","rt":702.80000000447,"correct":true,"confidence":5},{"trial_n":75,"n_dots":2.25,"target":"right","response":"right","rt":1132.5,"correct":true,"confidence":4},{"trial_n":76,"n_dots":2.15,"target":"right","response":"left","rt":5158.8000000045,"correct":false,"confidence":3},{"trial_n":77,"n_dots":2.25,"target":"left","response":"right","rt":1659.400000006,"correct":false,"confidence":3},{"trial_n":78,"n_dots":2.35,"target":"right","response":"right","rt":695.39999999851,"correct":true,"confidence":4},{"trial_n":79,"n_dots":2.35,"target":"left","response":"right","rt":2171.1000000015,"correct":false,"confidence":2},{"trial_n":80,"n_dots":2.45,"target":"right","response":"right","rt":765.89999999851,"correct":true,"confidence":4},{"trial_n":81,"n_dots":2.45,"target":"left","response":"left","rt":694.29999999702,"correct":true,"confidence":5},{"trial_n":82,"n_dots":2.35,"target":"left","response":"right","rt":1645.700000003,"correct":false,"confidence":3},{"trial_n":83,"n_dots":2.45,"target":"right","response":"right","rt":1021.900000006,"correct":true,"confidence":4},{"trial_n":84,"n_dots":2.45,"target":"right","response":"right","rt":723.20000000298,"correct":true,"confidence":5},{"trial_n":85,"n_dots":2.35,"target":"left","response":"right","rt":993.70000000298,"correct":false,"confidence":3},{"trial_n":86,"n_dots":2.45,"target":"left","response":"right","rt":2555.8999999985,"correct":false,"confidence":2},{"trial_n":87,"n_dots":2.55,"target":"right","response":"right","rt":1405,"correct":true,"confidence":4},{"trial_n":88,"n_dots":2.55,"target":"left","response":"right","rt":4094,"correct":false,"confidence":1},{"trial_n":89,"n_dots":2.65,"target":"left","response":"right","rt":1326.3999999985,"correct":false,"confidence":3},{"trial_n":90,"n_dots":2.75,"target":"right","response":"right","rt":1987.700000003,"correct":true,"confidence":4},{"trial_n":91,"n_dots":2.75,"target":"left","response":"left","rt":5148.8999999985,"correct":true,"confidence":1},{"trial_n":92,"n_dots":2.65,"target":"left","response":"left","rt":1248.3999999985,"correct":true,"confidence":4},{"trial_n":93,"n_dots":2.65,"target":"right","response":"left","rt":2152.1000000015,"correct":false,"confidence":2},{"trial_n":94,"n_dots":2.75,"target":"right","response":"right","rt":1834.6999999955,"correct":true,"confidence":4},{"trial_n":95,"n_dots":2.75,"target":"right","response":"right","rt":909.30000000447,"correct":true,"confidence":3},{"trial_n":96,"n_dots":2.65,"target":"left","response":"left","rt":8989.799999997,"correct":true,"confidence":2},{"trial_n":97,"n_dots":2.65,"target":"right","response":"right","rt":793.60000000149,"correct":true,"confidence":4},{"trial_n":98,"n_dots":2.55,"target":"right","response":"right","rt":10449.299999997,"correct":true,"confidence":3},{"trial_n":99,"n_dots":2.55,"target":"left","response":"right","rt":1200.6999999955,"correct":false,"confidence":3},{"trial_n":100,"n_dots":2.65,"target":"right","response":"right","rt":564.20000000298,"correct":true,"confidence":5},{"trial_n":101,"n_dots":2.65,"target":"left","response":"left","rt":3066.3000000045,"correct":true,"confidence":2},{"trial_n":102,"n_dots":2.55,"target":"left","response":"left","rt":12425.600000001,"correct":true,"confidence":1},{"trial_n":103,"n_dots":2.55,"target":"left","response":"left","rt":842.60000000149,"correct":true,"confidence":4},{"trial_n":104,"n_dots":2.45,"target":"right","response":"left","rt":1236.1999999955,"correct":false,"confidence":3},{"trial_n":105,"n_dots":2.55,"target":"left","response":"left","rt":2986.1999999955,"correct":true,"confidence":2},{"trial_n":106,"n_dots":2.55,"target":"left","response":"left","rt":8053.6000000015,"correct":true,"confidence":1},{"trial_n":107,"n_dots":2.45,"target":"right","response":"right","rt":4196.3999999985,"correct":true,"confidence":1},{"trial_n":108,"n_dots":2.45,"target":"right","response":"left","rt":1427.6000000015,"correct":false,"confidence":2},{"trial_n":109,"n_dots":2.55,"target":"right","response":"right","rt":3283.1999999955,"correct":true,"confidence":2},{"trial_n":110,"n_dots":2.55,"target":"left","response":"left","rt":722.79999999702,"correct":true,"confidence":4},{"trial_n":111,"n_dots":2.45,"target":"right","response":"right","rt":10648.100000001,"correct":true,"confidence":3},{"trial_n":112,"n_dots":2.45,"target":"right","response":"right","rt":974.39999999851,"correct":true,"confidence":4},{"trial_n":113,"n_dots":2.35,"target":"right","response":"left","rt":899.5,"correct":false,"confidence":3},{"trial_n":114,"n_dots":2.45,"target":"left","response":"left","rt":1865.3999999985,"correct":true,"confidence":3},{"trial_n":115,"n_dots":2.45,"target":"right","response":"right","rt":2059.799999997,"correct":true,"confidence":2},{"trial_n":116,"n_dots":2.35,"target":"right","response":"left","rt":923.59999999404,"correct":false,"confidence":3},{"trial_n":117,"n_dots":2.45,"target":"right","response":"right","rt":3120.3000000045,"correct":true,"confidence":1},{"trial_n":118,"n_dots":2.45,"target":"left","response":"right","rt":33844.199999996,"correct":false,"confidence":2},{"trial_n":119,"n_dots":2.55,"target":"right","response":"right","rt":1102.799999997,"correct":true,"confidence":2},{"trial_n":120,"n_dots":2.55,"target":"right","response":"left","rt":1287.1999999955,"correct":false,"confidence":3},{"trial_n":121,"n_dots":2.65,"target":"left","response":"left","rt":6483.8999999985,"correct":true,"confidence":2},{"trial_n":122,"n_dots":2.65,"target":"left","response":"left","rt":690.80000000447,"correct":true,"confidence":4},{"trial_n":123,"n_dots":2.55,"target":"left","response":"left","rt":1196.6000000015,"correct":true,"confidence":3},{"trial_n":124,"n_dots":2.55,"target":"right","response":"right","rt":9823.3999999985,"correct":true,"confidence":3},{"trial_n":125,"n_dots":2.45,"target":"right","response":"right","rt":23806.900000006,"correct":true,"confidence":1},{"trial_n":126,"n_dots":2.45,"target":"left","response":"left","rt":1948.6000000015,"correct":true,"confidence":2},{"trial_n":127,"n_dots":2.35,"target":"right","response":"left","rt":10344.899999999,"correct":false,"confidence":3},{"trial_n":128,"n_dots":2.45,"target":"right","response":"left","rt":17486.699999996,"correct":false,"confidence":2},{"trial_n":129,"n_dots":2.55,"target":"left","response":"left","rt":1291.6000000015,"correct":true,"confidence":4},{"trial_n":130,"n_dots":2.55,"target":"right","response":"right","rt":1060.5,"correct":true,"confidence":3},{"trial_n":131,"n_dots":2.45,"target":"left","response":"left","rt":6653.8999999985,"correct":true,"confidence":2},{"trial_n":132,"n_dots":2.45,"target":"left","response":"left","rt":22838,"correct":true,"confidence":2},{"trial_n":133,"n_dots":2.35,"target":"right","response":"right","rt":850.5,"correct":true,"confidence":4},{"trial_n":134,"n_dots":2.35,"target":"left","response":"right","rt":992.60000000149,"correct":false,"confidence":5},{"trial_n":135,"n_dots":2.45,"target":"right","response":"right","rt":767.89999999851,"correct":true,"confidence":4},{"trial_n":136,"n_dots":2.45,"target":"right","response":"right","rt":876.80000000447,"correct":true,"confidence":4},{"trial_n":137,"n_dots":2.35,"target":"left","response":"left","rt":5602.5,"correct":true,"confidence":2},{"trial_n":138,"n_dots":2.35,"target":"left","response":"left","rt":30871.200000003,"correct":true,"confidence":1},{"trial_n":139,"n_dots":2.25,"target":"left","response":"left","rt":709.70000000298,"correct":true,"confidence":4},{"trial_n":140,"n_dots":2.25,"target":"right","response":"right","rt":5905.299999997,"correct":true,"confidence":3},{"trial_n":141,"n_dots":2.15,"target":"right","response":"right","rt":1064.200000003,"correct":true,"confidence":4},{"trial_n":142,"n_dots":2.15,"target":"right","response":"right","rt":1776.6999999955,"correct":true,"confidence":5},{"trial_n":143,"n_dots":2.05,"target":"right","response":"right","rt":5239.5,"correct":true,"confidence":2},{"trial_n":144,"n_dots":2.05,"target":"left","response":"left","rt":1059.400000006,"correct":true,"confidence":3},{"trial_n":145,"n_dots":1.95,"target":"right","response":"right","rt":1766.700000003,"correct":true,"confidence":3},{"trial_n":146,"n_dots":1.95,"target":"right","response":"right","rt":1697.6000000015,"correct":true,"confidence":2},{"trial_n":147,"n_dots":1.85,"target":"right","response":"left","rt":903.89999999851,"correct":false,"confidence":2},{"trial_n":148,"n_dots":1.95,"target":"right","response":"left","rt":2592.6999999955,"correct":false,"confidence":3},{"trial_n":149,"n_dots":2.05,"target":"left","response":"left","rt":872,"correct":true,"confidence":5},{"trial_n":150,"n_dots":2.05,"target":"right","response":"right","rt":5245.400000006,"correct":true,"confidence":1},{"trial_n":151,"n_dots":1.95,"target":"left","response":"left","rt":4276.8000000045,"correct":true,"confidence":3},{"trial_n":152,"n_dots":1.95,"target":"left","response":"left","rt":1620.8000000045,"correct":true,"confidence":3},{"trial_n":153,"n_dots":1.85,"target":"left","response":"left","rt":3344.299999997,"correct":true,"confidence":3},{"trial_n":154,"n_dots":1.85,"target":"left","response":"right","rt":24657.399999999,"correct":false,"confidence":2},{"trial_n":155,"n_dots":1.95,"target":"right","response":"left","rt":1438.1000000015,"correct":false,"confidence":3},{"trial_n":156,"n_dots":2.05,"target":"left","response":"right","rt":999.10000000149,"correct":false,"confidence":4},{"trial_n":157,"n_dots":2.15,"target":"left","response":"right","rt":1196.6999999955,"correct":false,"confidence":2},{"trial_n":158,"n_dots":2.25,"target":"left","response":"right","rt":922.79999999702,"correct":false,"confidence":3},{"trial_n":159,"n_dots":2.35,"target":"right","response":"right","rt":1658.099999994,"correct":true,"confidence":4},{"trial_n":160,"n_dots":2.35,"target":"right","response":"left","rt":1876.1000000015,"correct":false,"confidence":3},{"trial_n":161,"n_dots":2.45,"target":"left","response":"left","rt":56191.5,"correct":true,"confidence":1},{"trial_n":162,"n_dots":2.45,"target":"right","response":"right","rt":1994.200000003,"correct":true,"confidence":2},{"trial_n":163,"n_dots":2.35,"target":"left","response":"left","rt":1526.299999997,"correct":true,"confidence":2},{"trial_n":164,"n_dots":2.35,"target":"right","response":"right","rt":2474.1000000015,"correct":true,"confidence":3},{"trial_n":165,"n_dots":2.25,"target":"right","response":"right","rt":33789,"correct":true,"confidence":1},{"trial_n":166,"n_dots":2.25,"target":"left","response":"left","rt":2859.5,"correct":true,"confidence":2},{"trial_n":167,"n_dots":2.15,"target":"left","response":"right","rt":11817.199999996,"correct":false,"confidence":1},{"trial_n":168,"n_dots":2.25,"target":"left","response":"left","rt":14301.300000004,"correct":true,"confidence":2},{"trial_n":169,"n_dots":2.25,"target":"right","response":"right","rt":3919.6000000015,"correct":true,"confidence":3},{"trial_n":170,"n_dots":2.15,"target":"left","response":"right","rt":1022.6000000015,"correct":false,"confidence":3},{"trial_n":171,"n_dots":2.25,"target":"right","response":"right","rt":1125.5,"correct":true,"confidence":4},{"trial_n":172,"n_dots":2.25,"target":"left","response":"right","rt":13741.899999999,"correct":false,"confidence":2},{"trial_n":173,"n_dots":2.35,"target":"left","response":"right","rt":861.79999999702,"correct":false,"confidence":4},{"trial_n":174,"n_dots":2.45,"target":"left","response":"left","rt":25889.600000001,"correct":true,"confidence":1},{"trial_n":175,"n_dots":2.45,"target":"right","response":"right","rt":737.89999999851,"correct":true,"confidence":5},{"trial_n":176,"n_dots":2.35,"target":"left","response":"left","rt":3202.299999997,"correct":true,"confidence":3},{"trial_n":177,"n_dots":2.35,"target":"right","response":"right","rt":957.69999999553,"correct":true,"confidence":4},{"trial_n":178,"n_dots":2.25,"target":"right","response":"right","rt":940.10000000149,"correct":true,"confidence":4},{"trial_n":179,"n_dots":2.25,"target":"right","response":"left","rt":2072.599999994,"correct":false,"confidence":2},{"trial_n":180,"n_dots":2.35,"target":"left","response":"right","rt":1043.5,"correct":false,"confidence":3},{"trial_n":181,"n_dots":2.45,"target":"left","response":"left","rt":2643.1000000015,"correct":true,"confidence":4},{"trial_n":182,"n_dots":2.45,"target":"left","response":"right","rt":17242.399999999,"correct":false,"confidence":2},{"trial_n":183,"n_dots":2.55,"target":"right","response":"right","rt":659.79999999702,"correct":true,"confidence":4},{"trial_n":184,"n_dots":2.55,"target":"right","response":"left","rt":20915.700000003,"correct":false,"confidence":1},{"trial_n":185,"n_dots":2.65,"target":"right","response":"right","rt":778.39999999851,"correct":true,"confidence":5},{"trial_n":186,"n_dots":2.65,"target":"right","response":"right","rt":2769.1000000015,"correct":true,"confidence":2},{"trial_n":187,"n_dots":2.55,"target":"left","response":"left","rt":1181,"correct":true,"confidence":3},{"trial_n":188,"n_dots":2.55,"target":"left","response":"left","rt":20053.5,"correct":true,"confidence":1},{"trial_n":189,"n_dots":2.45,"target":"left","response":"left","rt":1957.1000000015,"correct":true,"confidence":3},{"trial_n":190,"n_dots":2.45,"target":"left","response":"left","rt":16663.600000001,"correct":true,"confidence":3},{"trial_n":191,"n_dots":2.35,"target":"left","response":"left","rt":1917.1999999955,"correct":true,"confidence":2},{"trial_n":192,"n_dots":2.35,"target":"left","response":"left","rt":649.80000000447,"correct":true,"confidence":4},{"trial_n":193,"n_dots":2.25,"target":"right","response":"left","rt":1666.200000003,"correct":false,"confidence":3},{"trial_n":194,"n_dots":2.35,"target":"right","response":"right","rt":915.20000000298,"correct":true,"confidence":2}]