[{"trial_n":1,"n_dots":4.25,"target":"left","response":"left","rt":1492,"correct":true,"confidence":-1},{"trial_n":2,"n_dots":4.25,"target":"right","response":"right","rt":551,"correct":true,"confidence":-1},{"trial_n":3,"n_dots":3.85,"target":"left","response":"left","rt":454,"correct":true,"confidence":-1},{"trial_n":4,"n_dots":3.85,"target":"right","response":"right","rt":373,"correct":true,"confidence":-1},{"trial_n":5,"n_dots":3.45,"target":"right","response":"right","rt":403,"correct":true,"confidence":-1},{"trial_n":6,"n_dots":3.45,"target":"left","response":"left","rt":337,"correct":true,"confidence":-1},{"trial_n":7,"n_dots":3.05,"target":"left","response":"left","rt":500,"correct":true,"confidence":-1},{"trial_n":8,"n_dots":3.05,"target":"left","response":"right","rt":414,"correct":false,"confidence":-1},{"trial_n":9,"n_dots":3.25,"target":"left","response":"left","rt":791,"correct":true,"confidence":-1},{"trial_n":10,"n_dots":3.25,"target":"right","response":"left","rt":763,"correct":false,"confidence":-1},{"trial_n":11,"n_dots":3.45,"target":"right","response":"right","rt":576,"correct":true,"confidence":-1},{"trial_n":12,"n_dots":3.45,"target":"right","response":"right","rt":457,"correct":true,"confidence":-1},{"trial_n":13,"n_dots":3.35,"target":"right","response":"right","rt":464,"correct":true,"confidence":-1},{"trial_n":14,"n_dots":3.35,"target":"left","response":"left","rt":498,"correct":true,"confidence":-1},{"trial_n":15,"n_dots":3.25,"target":"right","response":"right","rt":326,"correct":true,"confidence":-1},{"trial_n":16,"n_dots":3.25,"target":"left","response":"left","rt":361,"correct":true,"confidence":-1},{"trial_n":17,"n_dots":3.15,"target":"right","response":"right","rt":326,"correct":true,"confidence":-1},{"trial_n":18,"n_dots":3.15,"target":"right","response":"right","rt":522,"correct":true,"confidence":-1},{"trial_n":19,"n_dots":3.05,"target":"left","response":"left","rt":448,"correct":true,"confidence":-1},{"trial_n":20,"n_dots":3.05,"target":"right","response":"right","rt":177,"correct":true,"confidence":-1},{"trial_n":21,"n_dots":2.95,"target":"right","response":"left","rt":444,"correct":false,"confidence":-1},{"trial_n":22,"n_dots":3.05,"target":"left","response":"left","rt":640,"correct":true,"confidence":-1},{"trial_n":23,"n_dots":3.05,"target":"right","response":"right","rt":454,"correct":true,"confidence":-1},{"trial_n":24,"n_dots":2.95,"target":"right","response":"right","rt":477,"correct":true,"confidence":-1},{"trial_n":25,"n_dots":2.95,"target":"left","response":"left","rt":377,"correct":true,"confidence":-1},{"trial_n":26,"n_dots":2.85,"target":"left","response":"left","rt":272,"correct":true,"confidence":-1},{"trial_n":27,"n_dots":2.85,"target":"left","response":"left","rt":211,"correct":true,"confidence":5},{"trial_n":28,"n_dots":2.75,"target":"right","response":"left","rt":631,"correct":false,"confidence":3},{"trial_n":29,"n_dots":2.85,"target":"left","response":"left","rt":399,"correct":true,"confidence":6},{"trial_n":30,"n_dots":2.85,"target":"left","response":"left","rt":181,"correct":true,"confidence":4},{"trial_n":31,"n_dots":2.75,"target":"left","response":"left","rt":379,"correct":true,"confidence":4},{"trial_n":32,"n_dots":2.75,"target":"right","response":"right","rt":457,"correct":true,"confidence":3},{"trial_n":33,"n_dots":2.65,"target":"left","response":"left","rt":372,"correct":true,"confidence":4},{"trial_n":34,"n_dots":2.65,"target":"left","response":"left","rt":370,"correct":true,"confidence":4},{"trial_n":35,"n_dots":2.55,"target":"right","response":"right","rt":342,"correct":true,"confidence":4},{"trial_n":36,"n_dots":2.55,"target":"left","response":"left","rt":746,"correct":true,"confidence":4},{"trial_n":37,"n_dots":2.45,"target":"right","response":"right","rt":995,"correct":true,"confidence":5},{"trial_n":38,"n_dots":2.45,"target":"right","response":"right","rt":439,"correct":true,"confidence":6},{"trial_n":39,"n_dots":2.35,"target":"left","response":"left","rt":1101,"correct":true,"confidence":4},{"trial_n":40,"n_dots":2.35,"target":"right","response":"left","rt":426,"correct":false,"confidence":5},{"trial_n":41,"n_dots":2.45,"target":"right","response":"left","rt":1026,"correct":false,"confidence":5},{"trial_n":42,"n_dots":2.55,"target":"left","response":"left","rt":460,"correct":true,"confidence":5},{"trial_n":43,"n_dots":2.55,"target":"left","response":"left","rt":406,"correct":true,"confidence":5},{"trial_n":44,"n_dots":2.45,"target":"right","response":"right","rt":678,"correct":true,"confidence":6},{"trial_n":45,"n_dots":2.45,"target":"right","response":"left","rt":528,"correct":false,"confidence":5},{"trial_n":46,"n_dots":2.55,"target":"left","response":"left","rt":301,"correct":true,"confidence":5},{"trial_n":47,"n_dots":2.55,"target":"right","response":"left","rt":401,"correct":false,"confidence":5},{"trial_n":48,"n_dots":2.65,"target":"right","response":"right","rt":1836,"correct":true,"confidence":1},{"trial_n":49,"n_dots":2.65,"target":"right","response":"right","rt":671,"correct":true,"confidence":4},{"trial_n":50,"n_dots":2.55,"target":"right","response":"right","rt":355,"correct":true,"confidence":3},{"trial_n":51,"n_dots":2.55,"target":"right","response":"right","rt":383,"correct":true,"confidence":5},{"trial_n":52,"n_dots":2.45,"target":"right","response":"right","rt":1181,"correct":true,"confidence":2},{"trial_n":53,"n_dots":2.45,"target":"right","response":"right","rt":479,"correct":true,"confidence":5},{"trial_n":54,"n_dots":2.35,"target":"left","response":"right","rt":336,"correct":false,"confidence":4},{"trial_n":55,"n_dots":2.45,"target":"left","response":"left","rt":477,"correct":true,"confidence":5},{"trial_n":56,"n_dots":2.45,"target":"right","response":"right","rt":432,"correct":true,"confidence":3},{"trial_n":57,"n_dots":2.35,"target":"left","response":"left","rt":414,"correct":true,"confidence":5},{"trial_n":58,"n_dots":2.35,"target":"right","response":"left","rt":414,"correct":false,"confidence":3},{"trial_n":59,"n_dots":2.45,"target":"right","response":"right","rt":516,"correct":true,"confidence":4},{"trial_n":60,"n_dots":2.45,"target":"left","response":"left","rt":464,"correct":true,"confidence":5},{"trial_n":61,"n_dots":2.35,"target":"right","response":"right","rt":497,"correct":true,"confidence":4},{"trial_n":62,"n_dots":2.35,"target":"right","response":"right","rt":401,"correct":true,"confidence":5},{"trial_n":63,"n_dots":2.25,"target":"left","response":"left","rt":392,"correct":true,"confidence":5},{"trial_n":64,"n_dots":2.25,"target":"left","response":"left","rt":322,"correct":true,"confidence":6},{"trial_n":65,"n_dots":2.15,"target":"right","response":"right","rt":399,"correct":true,"confidence":4},{"trial_n":66,"n_dots":2.15,"target":"right","response":"left","rt":816,"correct":false,"confidence":5},{"trial_n":67,"n_dots":2.25,"target":"right","response":"right","rt":490,"correct":true,"confidence":4},{"trial_n":68,"n_dots":2.25,"target":"right","response":"right","rt":417,"correct":true,"confidence":5},{"trial_n":69,"n_dots":2.15,"target":"right","response":"left","rt":1175,"correct":false,"confidence":5},{"trial_n":70,"n_dots":2.25,"target":"left","response":"left","rt":399,"correct":true,"confidence":6},{"trial_n":71,"n_dots":2.25,"target":"right","response":"right","rt":399,"correct":true,"confidence":4},{"trial_n":72,"n_dots":2.15,"target":"left","response":"left","rt":346,"correct":true,"confidence":4},{"trial_n":73,"n_dots":2.15,"target":"left","response":"left","rt":343,"correct":true,"confidence":5},{"trial_n":74,"n_dots":2.05,"target":"right","response":"left","rt":449,"correct":false,"confidence":3},{"trial_n":75,"n_dots":2.15,"target":"right","response":"left","rt":488,"correct":false,"confidence":5},{"trial_n":76,"n_dots":2.25,"target":"right","response":"right","rt":1387,"correct":true,"confidence":1},{"trial_n":77,"n_dots":2.25,"target":"left","response":"left","rt":330,"correct":true,"confidence":2},{"trial_n":78,"n_dots":2.15,"target":"right","response":"left","rt":607,"correct":false,"confidence":5},{"trial_n":79,"n_dots":2.25,"target":"right","response":"left","rt":594,"correct":false,"confidence":4},{"trial_n":80,"n_dots":2.35,"target":"right","response":"right","rt":1059,"correct":true,"confidence":1},{"trial_n":81,"n_dots":2.35,"target":"right","response":"left","rt":1170,"correct":false,"confidence":4},{"trial_n":82,"n_dots":2.45,"target":"left","response":"left","rt":315,"correct":true,"confidence":3},{"trial_n":83,"n_dots":2.45,"target":"left","response":"left","rt":405,"correct":true,"confidence":5},{"trial_n":84,"n_dots":2.35,"target":"right","response":"left","rt":548,"correct":false,"confidence":4},{"trial_n":85,"n_dots":2.45,"target":"left","response":"left","rt":408,"correct":true,"confidence":5},{"trial_n":86,"n_dots":2.45,"target":"right","response":"left","rt":900,"correct":false,"confidence":4},{"trial_n":87,"n_dots":2.55,"target":"right","response":"right","rt":700,"correct":true,"confidence":5},{"trial_n":88,"n_dots":2.55,"target":"right","response":"left","rt":337,"correct":false,"confidence":5},{"trial_n":89,"n_dots":2.65,"target":"left","response":"left","rt":366,"correct":true,"confidence":5},{"trial_n":90,"n_dots":2.65,"target":"left","response":"left","rt":447,"correct":true,"confidence":6},{"trial_n":91,"n_dots":2.55,"target":"left","response":"left","rt":384,"correct":true,"confidence":6},{"trial_n":92,"n_dots":2.55,"target":"right","response":"left","rt":500,"correct":false,"confidence":5},{"trial_n":93,"n_dots":2.65,"target":"left","response":"right","rt":909,"correct":false,"confidence":3},{"trial_n":94,"n_dots":2.75,"target":"right","response":"left","rt":1276,"correct":false,"confidence":2},{"trial_n":95,"n_dots":2.85,"target":"left","response":"left","rt":375,"correct":true,"confidence":5},{"trial_n":96,"n_dots":2.85,"target":"left","response":"left","rt":356,"correct":true,"confidence":6},{"trial_n":97,"n_dots":2.75,"target":"left","response":"left","rt":375,"correct":true,"confidence":5},{"trial_n":98,"n_dots":2.75,"target":"left","response":"left","rt":590,"correct":true,"confidence":5},{"trial_n":99,"n_dots":2.65,"target":"right","response":"right","rt":490,"correct":true,"confidence":6},{"trial_n":100,"n_dots":2.65,"target":"right","response":"left","rt":842,"correct":false,"confidence":1},{"trial_n":101,"n_dots":2.75,"target":"right","response":"right","rt":1342,"correct":true,"confidence":2},{"trial_n":102,"n_dots":2.75,"target":"right","response":"right","rt":404,"correct":true,"confidence":5},{"trial_n":103,"n_dots":2.65,"target":"left","response":"left","rt":570,"correct":true,"confidence":5},{"trial_n":104,"n_dots":2.65,"target":"left","response":"left","rt":422,"correct":true,"confidence":6},{"trial_n":105,"n_dots":2.55,"target":"right","response":"right","rt":413,"correct":true,"confidence":5},{"trial_n":106,"n_dots":2.55,"target":"left","response":"left","rt":372,"correct":true,"confidence":6},{"trial_n":107,"n_dots":2.45,"target":"left","response":"left","rt":457,"correct":true,"confidence":6},{"trial_n":108,"n_dots":2.45,"target":"right","response":"right","rt":420,"correct":true,"confidence":6},{"trial_n":109,"n_dots":2.35,"target":"right","response":"right","rt":523,"correct":true,"confidence":5},{"trial_n":110,"n_dots":2.35,"target":"left","response":"left","rt":414,"correct":true,"confidence":6},{"trial_n":111,"n_dots":2.25,"target":"left","response":"left","rt":385,"correct":true,"confidence":6},{"trial_n":112,"n_dots":2.25,"target":"right","response":"left","rt":1517,"correct":false,"confidence":1},{"trial_n":113,"n_dots":2.35,"target":"right","response":"right","rt":337,"correct":true,"confidence":5},{"trial_n":114,"n_dots":2.35,"target":"right","response":"right","rt":427,"correct":true,"confidence":4},{"trial_n":115,"n_dots":2.25,"target":"left","response":"left","rt":449,"correct":true,"confidence":5},{"trial_n":116,"n_dots":2.25,"target":"right","response":"left","rt":430,"correct":false,"confidence":4},{"trial_n":117,"n_dots":2.35,"target":"left","response":"left","rt":498,"correct":true,"confidence":5},{"trial_n":118,"n_dots":2.35,"target":"left","response":"left","rt":399,"correct":true,"confidence":5},{"trial_n":119,"n_dots":2.25,"target":"right","response":"left","rt":665,"correct":false,"confidence":5},{"trial_n":120,"n_dots":2.35,"target":"left","response":"left","rt":1344,"correct":true,"confidence":3},{"trial_n":121,"n_dots":2.35,"target":"left","response":"left","rt":560,"correct":true,"confidence":5},{"trial_n":122,"n_dots":2.25,"target":"right","response":"right","rt":517,"correct":true,"confidence":4},{"trial_n":123,"n_dots":2.25,"target":"right","response":"right","rt":775,"correct":true,"confidence":4},{"trial_n":124,"n_dots":2.15,"target":"left","response":"left","rt":503,"correct":true,"confidence":4},{"trial_n":125,"n_dots":2.15,"target":"right","response":"left","rt":400,"correct":false,"confidence":3},{"trial_n":126,"n_dots":2.25,"target":"left","response":"left","rt":505,"correct":true,"confidence":3},{"trial_n":127,"n_dots":2.25,"target":"right","response":"left","rt":773,"correct":false,"confidence":4},{"trial_n":128,"n_dots":2.35,"target":"right","response":"left","rt":339,"correct":false,"confidence":5},{"trial_n":129,"n_dots":2.45,"target":"right","response":"left","rt":500,"correct":false,"confidence":5},{"trial_n":130,"n_dots":2.55,"target":"right","response":"right","rt":464,"correct":true,"confidence":5},{"trial_n":131,"n_dots":2.55,"target":"right","response":"left","rt":468,"correct":false,"confidence":4},{"trial_n":132,"n_dots":2.65,"target":"right","response":"right","rt":603,"correct":true,"confidence":2},{"trial_n":133,"n_dots":2.65,"target":"left","response":"left","rt":1356,"correct":true,"confidence":1},{"trial_n":134,"n_dots":2.55,"target":"right","response":"right","rt":615,"correct":true,"confidence":3},{"trial_n":135,"n_dots":2.55,"target":"right","response":"right","rt":430,"correct":true,"confidence":5},{"trial_n":136,"n_dots":2.45,"target":"left","response":"left","rt":453,"correct":true,"confidence":3},{"trial_n":137,"n_dots":2.45,"target":"left","response":"right","rt":459,"correct":false,"confidence":1},{"trial_n":138,"n_dots":2.55,"target":"left","response":"left","rt":467,"correct":true,"confidence":4},{"trial_n":139,"n_dots":2.55,"target":"left","response":"right","rt":427,"correct":false,"confidence":3},{"trial_n":140,"n_dots":2.65,"target":"right","response":"left","rt":386,"correct":false,"confidence":4},{"trial_n":141,"n_dots":2.75,"target":"left","response":"left","rt":504,"correct":true,"confidence":5},{"trial_n":142,"n_dots":2.75,"target":"right","response":"right","rt":399,"correct":true,"confidence":5},{"trial_n":143,"n_dots":2.65,"target":"left","response":"left","rt":489,"correct":true,"confidence":5},{"trial_n":144,"n_dots":2.65,"target":"right","response":"left","rt":929,"correct":false,"confidence":5},{"trial_n":145,"n_dots":2.75,"target":"left","response":"left","rt":621,"correct":true,"confidence":4},{"trial_n":146,"n_dots":2.75,"target":"left","response":"left","rt":338,"correct":true,"confidence":6},{"trial_n":147,"n_dots":2.65,"target":"right","response":"right","rt":737,"correct":true,"confidence":2},{"trial_n":148,"n_dots":2.65,"target":"left","response":"left","rt":351,"correct":true,"confidence":5},{"trial_n":149,"n_dots":2.55,"target":"left","response":"left","rt":339,"correct":true,"confidence":6},{"trial_n":150,"n_dots":2.55,"target":"left","response":"left","rt":368,"correct":true,"confidence":6},{"trial_n":151,"n_dots":2.45,"target":"left","response":"left","rt":445,"correct":true,"confidence":6},{"trial_n":152,"n_dots":2.45,"target":"left","response":"left","rt":790,"correct":true,"confidence":5},{"trial_n":153,"n_dots":2.35,"target":"left","response":"left","rt":446,"correct":true,"confidence":5},{"trial_n":154,"n_dots":2.35,"target":"right","response":"right","rt":478,"correct":true,"confidence":5},{"trial_n":155,"n_dots":2.25,"target":"left","response":"left","rt":401,"correct":true,"confidence":5},{"trial_n":156,"n_dots":2.25,"target":"left","response":"left","rt":555,"correct":true,"confidence":5},{"trial_n":157,"n_dots":2.15,"target":"right","response":"left","rt":482,"correct":false,"confidence":4},{"trial_n":158,"n_dots":2.25,"target":"right","response":"right","rt":297,"correct":true,"confidence":4},{"trial_n":159,"n_dots":2.25,"target":"left","response":"left","rt":313,"correct":true,"confidence":4},{"trial_n":160,"n_dots":2.15,"target":"left","response":"left","rt":374,"correct":true,"confidence":5},{"trial_n":161,"n_dots":2.15,"target":"right","response":"left","rt":348,"correct":false,"confidence":5},{"trial_n":162,"n_dots":2.25,"target":"left","response":"left","rt":373,"correct":true,"confidence":5},{"trial_n":163,"n_dots":2.25,"target":"right","response":"right","rt":813,"correct":true,"confidence":5},{"trial_n":164,"n_dots":2.15,"target":"left","response":"left","rt":324,"correct":true,"confidence":5},{"trial_n":165,"n_dots":2.15,"target":"left","response":"left","rt":396,"correct":true,"confidence":4},{"trial_n":166,"n_dots":2.05,"target":"right","response":"left","rt":670,"correct":false,"confidence":2},{"trial_n":167,"n_dots":2.15,"target":"left","response":"left","rt":355,"correct":true,"confidence":5},{"trial_n":168,"n_dots":2.15,"target":"left","response":"left","rt":341,"correct":true,"confidence":5},{"trial_n":169,"n_dots":2.05,"target":"left","response":"right","rt":858,"correct":false,"confidence":2},{"trial_n":170,"n_dots":2.15,"target":"left","response":"left","rt":366,"correct":true,"confidence":5},{"trial_n":171,"n_dots":2.15,"target":"right","response":"left","rt":408,"correct":false,"confidence":5},{"trial_n":172,"n_dots":2.25,"target":"right","response":"left","rt":330,"correct":false,"confidence":5},{"trial_n":173,"n_dots":2.35,"target":"left","response":"left","rt":327,"correct":true,"confidence":6},{"trial_n":174,"n_dots":2.35,"target":"right","response":"right","rt":348,"correct":true,"confidence":3},{"trial_n":175,"n_dots":2.25,"target":"right","response":"left","rt":375,"correct":false,"confidence":4},{"trial_n":176,"n_dots":2.35,"target":"left","response":"left","rt":424,"correct":true,"confidence":4},{"trial_n":177,"n_dots":2.35,"target":"left","response":"left","rt":367,"correct":true,"confidence":5},{"trial_n":178,"n_dots":2.25,"target":"left","response":"left","rt":436,"correct":true,"confidence":3},{"trial_n":179,"n_dots":2.25,"target":"right","response":"left","rt":310,"correct":false,"confidence":5},{"trial_n":180,"n_dots":2.35,"target":"left","response":"left","rt":274,"correct":true,"confidence":6},{"trial_n":181,"n_dots":2.35,"target":"left","response":"left","rt":352,"correct":true,"confidence":3},{"trial_n":182,"n_dots":2.25,"target":"left","response":"left","rt":357,"correct":true,"confidence":5},{"trial_n":183,"n_dots":2.25,"target":"left","response":"left","rt":457,"correct":true,"confidence":6},{"trial_n":184,"n_dots":2.15,"target":"right","response":"right","rt":726,"correct":true,"confidence":3},{"trial_n":185,"n_dots":2.15,"target":"left","response":"left","rt":261,"correct":true,"confidence":4},{"trial_n":186,"n_dots":2.05,"target":"left","response":"left","rt":306,"correct":true,"confidence":5},{"trial_n":187,"n_dots":2.05,"target":"right","response":"left","rt":310,"correct":false,"confidence":4},{"trial_n":188,"n_dots":2.15,"target":"right","response":"left","rt":401,"correct":false,"confidence":3},{"trial_n":189,"n_dots":2.25,"target":"left","response":"left","rt":395,"correct":true,"confidence":5},{"trial_n":190,"n_dots":2.25,"target":"left","response":"left","rt":343,"correct":true,"confidence":5},{"trial_n":191,"n_dots":2.15,"target":"right","response":"right","rt":317,"correct":true,"confidence":6},{"trial_n":192,"n_dots":2.15,"target":"left","response":"left","rt":363,"correct":true,"confidence":4},{"trial_n":193,"n_dots":2.05,"target":"right","response":"right","rt":573,"correct":true,"confidence":4},{"trial_n":194,"n_dots":2.05,"target":"left","response":"left","rt":323,"correct":true,"confidence":5}]