[{"trial_n":1,"n_dots":4.25,"target":"right","response":"left","rt":3836.1000000238,"correct":false,"confidence":-1},{"trial_n":2,"n_dots":4.25,"target":"right","response":"right","rt":2124.5,"correct":true,"confidence":-1},{"trial_n":3,"n_dots":4.25,"target":"left","response":"left","rt":1461.0999999642,"correct":true,"confidence":-1},{"trial_n":4,"n_dots":3.85,"target":"left","response":"left","rt":884.69999998808,"correct":true,"confidence":-1},{"trial_n":5,"n_dots":3.85,"target":"left","response":"right","rt":597.20000004768,"correct":false,"confidence":-1},{"trial_n":6,"n_dots":4.25,"target":"left","response":"left","rt":542.89999997616,"correct":true,"confidence":-1},{"trial_n":7,"n_dots":4.25,"target":"left","response":"left","rt":614.29999995232,"correct":true,"confidence":-1},{"trial_n":8,"n_dots":4.05,"target":"right","response":"left","rt":525.80000001192,"correct":false,"confidence":-1},{"trial_n":9,"n_dots":4.25,"target":"right","response":"right","rt":441.80000001192,"correct":true,"confidence":-1},{"trial_n":10,"n_dots":4.25,"target":"left","response":"left","rt":404,"correct":true,"confidence":-1},{"trial_n":11,"n_dots":4.05,"target":"left","response":"left","rt":407.29999995232,"correct":true,"confidence":-1},{"trial_n":12,"n_dots":4.05,"target":"left","response":"left","rt":842.90000003576,"correct":true,"confidence":-1},{"trial_n":13,"n_dots":3.95,"target":"left","response":"left","rt":732,"correct":true,"confidence":-1},{"trial_n":14,"n_dots":3.95,"target":"left","response":"left","rt":918.10000002384,"correct":true,"confidence":-1},{"trial_n":15,"n_dots":3.85,"target":"right","response":"right","rt":165.5,"correct":true,"confidence":-1},{"trial_n":16,"n_dots":3.85,"target":"right","response":"right","rt":373.80000001192,"correct":true,"confidence":-1},{"trial_n":17,"n_dots":3.75,"target":"left","response":"left","rt":335.19999998808,"correct":true,"confidence":-1},{"trial_n":18,"n_dots":3.75,"target":"right","response":"right","rt":524,"correct":true,"confidence":-1},{"trial_n":19,"n_dots":3.65,"target":"right","response":"right","rt":352.20000004768,"correct":true,"confidence":-1},{"trial_n":20,"n_dots":3.65,"target":"right","response":"left","rt":1675.5,"correct":false,"confidence":-1},{"trial_n":21,"n_dots":3.75,"target":"right","response":"right","rt":649,"correct":true,"confidence":-1},{"trial_n":22,"n_dots":3.75,"target":"left","response":"right","rt":653.5,"correct":false,"confidence":-1},{"trial_n":23,"n_dots":3.85,"target":"left","response":"left","rt":162,"correct":true,"confidence":-1},{"trial_n":24,"n_dots":3.85,"target":"right","response":"right","rt":458.69999998808,"correct":true,"confidence":-1},{"trial_n":25,"n_dots":3.75,"target":"right","response":"right","rt":307,"correct":true,"confidence":-1},{"trial_n":26,"n_dots":3.75,"target":"right","response":"right","rt":554.30000001192,"correct":true,"confidence":-1},{"trial_n":27,"n_dots":3.65,"target":"right","response":"left","rt":1363.3000000119,"correct":false,"confidence":2},{"trial_n":28,"n_dots":3.75,"target":"left","response":"left","rt":559.19999998808,"correct":true,"confidence":4},{"trial_n":29,"n_dots":3.75,"target":"right","response":"right","rt":616.89999997616,"correct":true,"confidence":4},{"trial_n":30,"n_dots":3.65,"target":"right","response":"right","rt":394.80000001192,"correct":true,"confidence":5},{"trial_n":31,"n_dots":3.65,"target":"left","response":"left","rt":978.09999996424,"correct":true,"confidence":5},{"trial_n":32,"n_dots":3.55,"target":"left","response":"left","rt":696.40000003576,"correct":true,"confidence":5},{"trial_n":33,"n_dots":3.55,"target":"right","response":"right","rt":383.39999997616,"correct":true,"confidence":5},{"trial_n":34,"n_dots":3.45,"target":"right","response":"right","rt":442.69999998808,"correct":true,"confidence":5},{"trial_n":35,"n_dots":3.45,"target":"right","response":"right","rt":1008.7000000477,"correct":true,"confidence":1},{"trial_n":36,"n_dots":3.35,"target":"left","response":"left","rt":693.60000002384,"correct":true,"confidence":2},{"trial_n":37,"n_dots":3.35,"target":"left","response":"right","rt":433.5,"correct":false,"confidence":1},{"trial_n":38,"n_dots":3.45,"target":"right","response":"right","rt":1213,"correct":true,"confidence":1},{"trial_n":39,"n_dots":3.45,"target":"right","response":"right","rt":688.59999996424,"correct":true,"confidence":3},{"trial_n":40,"n_dots":3.35,"target":"right","response":"right","rt":371.69999998808,"correct":true,"confidence":5},{"trial_n":41,"n_dots":3.35,"target":"right","response":"right","rt":770.30000001192,"correct":true,"confidence":4},{"trial_n":42,"n_dots":3.25,"target":"right","response":"right","rt":355.70000004768,"correct":true,"confidence":5},{"trial_n":43,"n_dots":3.25,"target":"left","response":"left","rt":516,"correct":true,"confidence":5},{"trial_n":44,"n_dots":3.15,"target":"left","response":"left","rt":406.19999998808,"correct":true,"confidence":5},{"trial_n":45,"n_dots":3.15,"target":"left","response":"right","rt":411.5,"correct":false,"confidence":1},{"trial_n":46,"n_dots":3.25,"target":"left","response":"left","rt":509.20000004768,"correct":true,"confidence":3},{"trial_n":47,"n_dots":3.25,"target":"right","response":"right","rt":379.90000003576,"correct":true,"confidence":4},{"trial_n":48,"n_dots":3.15,"target":"right","response":"left","rt":547.30000001192,"correct":false,"confidence":2},{"trial_n":49,"n_dots":3.25,"target":"left","response":"left","rt":1481.4000000358,"correct":true,"confidence":1},{"trial_n":50,"n_dots":3.25,"target":"left","response":"right","rt":899.90000003576,"correct":false,"confidence":1},{"trial_n":51,"n_dots":3.35,"target":"right","response":"right","rt":215.69999998808,"correct":true,"confidence":5},{"trial_n":52,"n_dots":3.35,"target":"left","response":"left","rt":617.5,"correct":true,"confidence":5},{"trial_n":53,"n_dots":3.25,"target":"left","response":"left","rt":574.5,"correct":true,"confidence":5},{"trial_n":54,"n_dots":3.25,"target":"left","response":"left","rt":869,"correct":true,"confidence":4},{"trial_n":55,"n_dots":3.15,"target":"right","response":"right","rt":756.69999998808,"correct":true,"confidence":1},{"trial_n":56,"n_dots":3.15,"target":"right","response":"left","rt":1841.0999999642,"correct":false,"confidence":1},{"trial_n":57,"n_dots":3.25,"target":"left","response":"left","rt":1592.5,"correct":true,"confidence":1},{"trial_n":58,"n_dots":3.25,"target":"right","response":"right","rt":759.19999998808,"correct":true,"confidence":1},{"trial_n":59,"n_dots":3.15,"target":"right","response":"right","rt":921.80000001192,"correct":true,"confidence":1},{"trial_n":60,"n_dots":3.15,"target":"left","response":"left","rt":465.10000002384,"correct":true,"confidence":5},{"trial_n":61,"n_dots":3.05,"target":"right","response":"right","rt":618.59999996424,"correct":true,"confidence":4},{"trial_n":62,"n_dots":3.05,"target":"left","response":"left","rt":473.39999997616,"correct":true,"confidence":5},{"trial_n":63,"n_dots":2.95,"target":"left","response":"left","rt":493.59999996424,"correct":true,"confidence":5},{"trial_n":64,"n_dots":2.95,"target":"right","response":"left","rt":1479.5999999642,"correct":false,"confidence":4},{"trial_n":65,"n_dots":3.05,"target":"right","response":"right","rt":728.30000001192,"correct":true,"confidence":3},{"trial_n":66,"n_dots":3.05,"target":"left","response":"left","rt":668.80000001192,"correct":true,"confidence":6},{"trial_n":67,"n_dots":2.95,"target":"right","response":"right","rt":432.69999998808,"correct":true,"confidence":3},{"trial_n":68,"n_dots":2.95,"target":"left","response":"left","rt":898.19999998808,"correct":true,"confidence":1},{"trial_n":69,"n_dots":2.85,"target":"left","response":"left","rt":1140.5,"correct":true,"confidence":2},{"trial_n":70,"n_dots":2.85,"target":"left","response":"right","rt":410.5,"correct":false,"confidence":3},{"trial_n":71,"n_dots":2.95,"target":"right","response":"right","rt":903.20000004768,"correct":true,"confidence":4},{"trial_n":72,"n_dots":2.95,"target":"right","response":"right","rt":1733.9000000358,"correct":true,"confidence":1},{"trial_n":73,"n_dots":2.85,"target":"left","response":"left","rt":878.70000004768,"correct":true,"confidence":4},{"trial_n":74,"n_dots":2.85,"target":"left","response":"right","rt":779.69999998808,"correct":false,"confidence":4},{"trial_n":75,"n_dots":2.95,"target":"right","response":"right","rt":176.59999996424,"correct":true,"confidence":5},{"trial_n":76,"n_dots":2.95,"target":"right","response":"right","rt":435.39999997616,"correct":true,"confidence":5},{"trial_n":77,"n_dots":2.85,"target":"left","response":"right","rt":374,"correct":false,"confidence":5},{"trial_n":78,"n_dots":2.95,"target":"left","response":"right","rt":696.69999998808,"correct":false,"confidence":3},{"trial_n":79,"n_dots":3.05,"target":"left","response":"right","rt":402,"correct":false,"confidence":2},{"trial_n":80,"n_dots":3.15,"target":"right","response":"right","rt":391.79999995232,"correct":true,"confidence":6},{"trial_n":81,"n_dots":3.15,"target":"right","response":"right","rt":375.19999998808,"correct":true,"confidence":6},{"trial_n":82,"n_dots":3.05,"target":"left","response":"left","rt":1428,"correct":true,"confidence":1},{"trial_n":83,"n_dots":3.05,"target":"left","response":"left","rt":923.69999998808,"correct":true,"confidence":4},{"trial_n":84,"n_dots":2.95,"target":"right","response":"left","rt":496.59999996424,"correct":false,"confidence":1},{"trial_n":85,"n_dots":3.05,"target":"left","response":"right","rt":1381.3999999762,"correct":false,"confidence":1},{"trial_n":86,"n_dots":3.15,"target":"left","response":"left","rt":821.80000001192,"correct":true,"confidence":4},{"trial_n":87,"n_dots":3.15,"target":"left","response":"right","rt":607.19999998808,"correct":false,"confidence":3},{"trial_n":88,"n_dots":3.25,"target":"left","response":"right","rt":433.19999998808,"correct":false,"confidence":1},{"trial_n":89,"n_dots":3.35,"target":"right","response":"left","rt":254.69999998808,"correct":false,"confidence":3},{"trial_n":90,"n_dots":3.45,"target":"left","response":"right","rt":943.19999998808,"correct":false,"confidence":3},{"trial_n":91,"n_dots":3.55,"target":"left","response":"left","rt":2.5,"correct":true,"confidence":6},{"trial_n":92,"n_dots":3.55,"target":"right","response":"right","rt":285.59999996424,"correct":true,"confidence":6},{"trial_n":93,"n_dots":3.45,"target":"left","response":"left","rt":245.19999998808,"correct":true,"confidence":6},{"trial_n":94,"n_dots":3.45,"target":"left","response":"left","rt":681.5,"correct":true,"confidence":5},{"trial_n":95,"n_dots":3.35,"target":"left","response":"left","rt":485.90000003576,"correct":true,"confidence":6},{"trial_n":96,"n_dots":3.35,"target":"right","response":"right","rt":335.30000001192,"correct":true,"confidence":6},{"trial_n":97,"n_dots":3.25,"target":"right","response":"left","rt":275,"correct":false,"confidence":6},{"trial_n":98,"n_dots":3.35,"target":"left","response":"left","rt":487.09999996424,"correct":true,"confidence":6},{"trial_n":99,"n_dots":3.35,"target":"left","response":"right","rt":806.80000001192,"correct":false,"confidence":5},{"trial_n":100,"n_dots":3.45,"target":"right","response":"right","rt":146.5,"correct":true,"confidence":6},{"trial_n":101,"n_dots":3.45,"target":"left","response":"left","rt":382,"correct":true,"confidence":6},{"trial_n":102,"n_dots":3.35,"target":"left","response":"left","rt":463,"correct":true,"confidence":5},{"trial_n":103,"n_dots":3.35,"target":"right","response":"right","rt":344.20000004768,"correct":true,"confidence":6},{"trial_n":104,"n_dots":3.25,"target":"right","response":"left","rt":331.89999997616,"correct":false,"confidence":2},{"trial_n":105,"n_dots":3.35,"target":"right","response":"right","rt":263.69999998808,"correct":true,"confidence":4},{"trial_n":106,"n_dots":3.35,"target":"right","response":"right","rt":239.79999995232,"correct":true,"confidence":5},{"trial_n":107,"n_dots":3.25,"target":"left","response":"left","rt":155.79999995232,"correct":true,"confidence":6},{"trial_n":108,"n_dots":3.25,"target":"left","response":"left","rt":1168.1000000238,"correct":true,"confidence":6},{"trial_n":109,"n_dots":3.15,"target":"right","response":"right","rt":1228.6999999881,"correct":true,"confidence":2},{"trial_n":110,"n_dots":3.15,"target":"right","response":"left","rt":949.80000001192,"correct":false,"confidence":4},{"trial_n":111,"n_dots":3.25,"target":"left","response":"right","rt":868,"correct":false,"confidence":1},{"trial_n":112,"n_dots":3.35,"target":"left","response":"left","rt":385.59999996424,"correct":true,"confidence":2},{"trial_n":113,"n_dots":3.35,"target":"left","response":"left","rt":999.60000002384,"correct":true,"confidence":2},{"trial_n":114,"n_dots":3.25,"target":"right","response":"right","rt":349.39999997616,"correct":true,"confidence":3},{"trial_n":115,"n_dots":3.25,"target":"left","response":"right","rt":898.39999997616,"correct":false,"confidence":2},{"trial_n":116,"n_dots":3.35,"target":"right","response":"right","rt":623.79999995232,"correct":true,"confidence":5},{"trial_n":117,"n_dots":3.35,"target":"right","response":"left","rt":868.89999997616,"correct":false,"confidence":1},{"trial_n":118,"n_dots":3.45,"target":"right","response":"right","rt":360.09999996424,"correct":true,"confidence":2},{"trial_n":119,"n_dots":3.45,"target":"left","response":"right","rt":895.90000003576,"correct":false,"confidence":3},{"trial_n":120,"n_dots":3.55,"target":"left","response":"right","rt":1029.5999999642,"correct":false,"confidence":3},{"trial_n":121,"n_dots":3.65,"target":"right","response":"right","rt":874.29999995232,"correct":true,"confidence":5},{"trial_n":122,"n_dots":3.65,"target":"left","response":"right","rt":1026.6999999881,"correct":false,"confidence":2},{"trial_n":123,"n_dots":3.75,"target":"right","response":"right","rt":646.5,"correct":true,"confidence":5},{"trial_n":124,"n_dots":3.75,"target":"left","response":"left","rt":760.39999997616,"correct":true,"confidence":6},{"trial_n":125,"n_dots":3.65,"target":"right","response":"right","rt":76.699999988079,"correct":true,"confidence":6},{"trial_n":126,"n_dots":3.65,"target":"left","response":"left","rt":350.19999998808,"correct":true,"confidence":6},{"trial_n":127,"n_dots":3.55,"target":"right","response":"right","rt":1244.2999999523,"correct":true,"confidence":1},{"trial_n":128,"n_dots":3.55,"target":"left","response":"right","rt":236.29999995232,"correct":false,"confidence":2},{"trial_n":129,"n_dots":3.65,"target":"right","response":"right","rt":88.600000023842,"correct":true,"confidence":3},{"trial_n":130,"n_dots":3.65,"target":"left","response":"left","rt":743.60000002384,"correct":true,"confidence":1},{"trial_n":131,"n_dots":3.55,"target":"left","response":"right","rt":237.40000003576,"correct":false,"confidence":1},{"trial_n":132,"n_dots":3.65,"target":"left","response":"left","rt":525.39999997616,"correct":true,"confidence":3},{"trial_n":133,"n_dots":3.65,"target":"left","response":"right","rt":301.80000001192,"correct":false,"confidence":1},{"trial_n":134,"n_dots":3.75,"target":"left","response":"left","rt":374,"correct":true,"confidence":3},{"trial_n":135,"n_dots":3.75,"target":"right","response":"right","rt":12,"correct":true,"confidence":5},{"trial_n":136,"n_dots":3.65,"target":"right","response":"right","rt":244,"correct":true,"confidence":5},{"trial_n":137,"n_dots":3.65,"target":"left","response":"left","rt":60.5,"correct":true,"confidence":5},{"trial_n":138,"n_dots":3.55,"target":"right","response":"right","rt":767.19999998808,"correct":true,"confidence":5},{"trial_n":139,"n_dots":3.55,"target":"left","response":"left","rt":499.69999998808,"correct":true,"confidence":3},{"trial_n":140,"n_dots":3.45,"target":"right","response":"right","rt":124.5,"correct":true,"confidence":6},{"trial_n":141,"n_dots":3.45,"target":"right","response":"right","rt":426.10000002384,"correct":true,"confidence":5},{"trial_n":142,"n_dots":3.35,"target":"right","response":"left","rt":31.699999988079,"correct":false,"confidence":5},{"trial_n":143,"n_dots":3.45,"target":"right","response":"right","rt":1276.3000000119,"correct":true,"confidence":5},{"trial_n":144,"n_dots":3.45,"target":"right","response":"right","rt":267.30000001192,"correct":true,"confidence":5},{"trial_n":145,"n_dots":3.35,"target":"left","response":"left","rt":904.40000003576,"correct":true,"confidence":6},{"trial_n":146,"n_dots":3.35,"target":"left","response":"left","rt":1178.5,"correct":true,"confidence":1},{"trial_n":147,"n_dots":3.25,"target":"right","response":"right","rt":381.70000004768,"correct":true,"confidence":3},{"trial_n":148,"n_dots":3.25,"target":"right","response":"right","rt":306.90000003576,"correct":true,"confidence":3},{"trial_n":149,"n_dots":3.15,"target":"right","response":"right","rt":355.09999996424,"correct":true,"confidence":1},{"trial_n":150,"n_dots":3.15,"target":"right","response":"right","rt":1070.8999999762,"correct":true,"confidence":1},{"trial_n":151,"n_dots":3.05,"target":"left","response":"left","rt":264.80000001192,"correct":true,"confidence":1},{"trial_n":152,"n_dots":3.05,"target":"left","response":"left","rt":64,"correct":true,"confidence":3},{"trial_n":153,"n_dots":2.95,"target":"left","response":"left","rt":506.60000002384,"correct":true,"confidence":4},{"trial_n":154,"n_dots":2.95,"target":"left","response":"left","rt":814.5,"correct":true,"confidence":5},{"trial_n":155,"n_dots":2.85,"target":"left","response":"left","rt":872.89999997616,"correct":true,"confidence":5},{"trial_n":156,"n_dots":2.85,"target":"left","response":"left","rt":1058.4000000358,"correct":true,"confidence":4},{"trial_n":157,"n_dots":2.75,"target":"right","response":"right","rt":1155.1000000238,"correct":true,"confidence":1},{"trial_n":158,"n_dots":2.75,"target":"left","response":"left","rt":52.399999976158,"correct":true,"confidence":3},{"trial_n":159,"n_dots":2.65,"target":"right","response":"left","rt":1008.8000000119,"correct":false,"confidence":1},{"trial_n":160,"n_dots":2.75,"target":"left","response":"right","rt":190.59999996424,"correct":false,"confidence":1},{"trial_n":161,"n_dots":2.85,"target":"right","response":"left","rt":33.5,"correct":false,"confidence":4},{"trial_n":162,"n_dots":2.95,"target":"right","response":"right","rt":501,"correct":true,"confidence":4},{"trial_n":163,"n_dots":2.95,"target":"right","response":"right","rt":630,"correct":true,"confidence":4},{"trial_n":164,"n_dots":2.85,"target":"right","response":"left","rt":640,"correct":false,"confidence":1},{"trial_n":165,"n_dots":2.95,"target":"left","response":"left","rt":644.40000003576,"correct":true,"confidence":4},{"trial_n":166,"n_dots":2.95,"target":"right","response":"left","rt":1134.6999999881,"correct":false,"confidence":1},{"trial_n":167,"n_dots":3.05,"target":"left","response":"left","rt":479,"correct":true,"confidence":3},{"trial_n":168,"n_dots":3.05,"target":"right","response":"right","rt":233.10000002384,"correct":true,"confidence":2},{"trial_n":169,"n_dots":2.95,"target":"right","response":"left","rt":948.39999997616,"correct":false,"confidence":1},{"trial_n":170,"n_dots":3.05,"target":"left","response":"left","rt":829.59999996424,"correct":true,"confidence":4},{"trial_n":171,"n_dots":3.05,"target":"right","response":"right","rt":1139.1999999881,"correct":true,"confidence":4},{"trial_n":172,"n_dots":2.95,"target":"left","response":"left","rt":400.19999998808,"correct":true,"confidence":5},{"trial_n":173,"n_dots":2.95,"target":"right","response":"right","rt":209.19999998808,"correct":true,"confidence":4},{"trial_n":174,"n_dots":2.85,"target":"right","response":"right","rt":820.80000001192,"correct":true,"confidence":4},{"trial_n":175,"n_dots":2.85,"target":"right","response":"right","rt":1157.6000000238,"correct":true,"confidence":5},{"trial_n":176,"n_dots":2.75,"target":"right","response":"left","rt":5.8999999761581,"correct":false,"confidence":2},{"trial_n":177,"n_dots":2.85,"target":"right","response":"right","rt":943.5,"correct":true,"confidence":3},{"trial_n":178,"n_dots":2.85,"target":"right","response":"right","rt":117.5,"correct":true,"confidence":3},{"trial_n":179,"n_dots":2.75,"target":"right","response":"right","rt":1069.6000000238,"correct":true,"confidence":5},{"trial_n":180,"n_dots":2.75,"target":"left","response":"left","rt":248.5,"correct":true,"confidence":5},{"trial_n":181,"n_dots":2.65,"target":"left","response":"left","rt":259.09999996424,"correct":true,"confidence":1},{"trial_n":182,"n_dots":2.65,"target":"right","response":"right","rt":350.29999995232,"correct":true,"confidence":2},{"trial_n":183,"n_dots":2.55,"target":"right","response":"right","rt":327.30000001192,"correct":true,"confidence":2},{"trial_n":184,"n_dots":2.55,"target":"left","response":"right","rt":261.69999998808,"correct":false,"confidence":3},{"trial_n":185,"n_dots":2.65,"target":"left","response":"left","rt":120.40000003576,"correct":true,"confidence":6},{"trial_n":186,"n_dots":2.65,"target":"right","response":"right","rt":74.5,"correct":true,"confidence":5},{"trial_n":187,"n_dots":2.55,"target":"left","response":"right","rt":241.80000001192,"correct":false,"confidence":2},{"trial_n":188,"n_dots":2.65,"target":"left","response":"right","rt":610.10000002384,"correct":false,"confidence":1},{"trial_n":189,"n_dots":2.75,"target":"right","response":"left","rt":52.600000023842,"correct":false,"confidence":6},{"trial_n":190,"n_dots":2.85,"target":"left","response":"left","rt":153.5,"correct":true,"confidence":5},{"trial_n":191,"n_dots":2.85,"target":"left","response":"left","rt":653.70000004768,"correct":true,"confidence":6},{"trial_n":192,"n_dots":2.75,"target":"right","response":"left","rt":813.20000004768,"correct":false,"confidence":6},{"trial_n":193,"n_dots":2.85,"target":"right","response":"right","rt":36.599999964237,"correct":true,"confidence":6},{"trial_n":194,"n_dots":2.85,"target":"left","response":"left","rt":626.60000002384,"correct":true,"confidence":6}]