[{"trial_n":1,"n_dots":4.25,"target":"right","response":"left","rt":10234.6,"correct":false,"confidence":-1},{"trial_n":2,"n_dots":4.25,"target":"right","response":"right","rt":403.5,"correct":true,"confidence":-1},{"trial_n":3,"n_dots":4.25,"target":"left","response":"left","rt":212.80000000028,"correct":true,"confidence":-1},{"trial_n":4,"n_dots":3.85,"target":"left","response":"left","rt":457.29999999981,"correct":true,"confidence":-1},{"trial_n":5,"n_dots":3.85,"target":"right","response":"right","rt":274.60000000009,"correct":true,"confidence":-1},{"trial_n":6,"n_dots":3.45,"target":"left","response":"left","rt":277.39999999991,"correct":true,"confidence":-1},{"trial_n":7,"n_dots":3.45,"target":"left","response":"left","rt":357.89999999991,"correct":true,"confidence":-1},{"trial_n":8,"n_dots":3.25,"target":"left","response":"left","rt":273.89999999991,"correct":true,"confidence":-1},{"trial_n":9,"n_dots":3.25,"target":"right","response":"right","rt":607.89999999991,"correct":true,"confidence":-1},{"trial_n":10,"n_dots":3.05,"target":"left","response":"left","rt":320.70000000019,"correct":true,"confidence":-1},{"trial_n":11,"n_dots":3.05,"target":"right","response":"right","rt":383.70000000019,"correct":true,"confidence":-1},{"trial_n":12,"n_dots":2.85,"target":"right","response":"left","rt":417.29999999981,"correct":false,"confidence":-1},{"trial_n":13,"n_dots":2.95,"target":"right","response":"right","rt":566.20000000019,"correct":true,"confidence":-1},{"trial_n":14,"n_dots":2.95,"target":"right","response":"right","rt":414.29999999981,"correct":true,"confidence":-1},{"trial_n":15,"n_dots":2.85,"target":"right","response":"right","rt":262.20000000019,"correct":true,"confidence":-1},{"trial_n":16,"n_dots":2.85,"target":"right","response":"right","rt":344.89999999991,"correct":true,"confidence":-1},{"trial_n":17,"n_dots":2.75,"target":"right","response":"right","rt":269.29999999981,"correct":true,"confidence":-1},{"trial_n":18,"n_dots":2.75,"target":"right","response":"right","rt":342.60000000009,"correct":true,"confidence":-1},{"trial_n":19,"n_dots":2.65,"target":"left","response":"right","rt":257.70000000019,"correct":false,"confidence":-1},{"trial_n":20,"n_dots":2.75,"target":"left","response":"left","rt":313.10000000009,"correct":true,"confidence":-1},{"trial_n":21,"n_dots":2.75,"target":"right","response":"left","rt":398.5,"correct":false,"confidence":-1},{"trial_n":22,"n_dots":2.85,"target":"left","response":"left","rt":270.60000000009,"correct":true,"confidence":-1},{"trial_n":23,"n_dots":2.85,"target":"right","response":"right","rt":389.29999999981,"correct":true,"confidence":-1},{"trial_n":24,"n_dots":2.75,"target":"right","response":"left","rt":481.10000000009,"correct":false,"confidence":-1},{"trial_n":25,"n_dots":2.85,"target":"left","response":"right","rt":300.29999999981,"correct":false,"confidence":-1},{"trial_n":26,"n_dots":2.95,"target":"right","response":"right","rt":457.20000000019,"correct":true,"confidence":-1},{"trial_n":27,"n_dots":2.95,"target":"left","response":"right","rt":1346.6999999997,"correct":false,"confidence":2},{"trial_n":28,"n_dots":3.05,"target":"right","response":"right","rt":688,"correct":true,"confidence":3},{"trial_n":29,"n_dots":3.05,"target":"right","response":"left","rt":599.79999999981,"correct":false,"confidence":3},{"trial_n":30,"n_dots":3.15,"target":"right","response":"left","rt":620,"correct":false,"confidence":5},{"trial_n":31,"n_dots":3.25,"target":"left","response":"left","rt":826.60000000009,"correct":true,"confidence":4},{"trial_n":32,"n_dots":3.25,"target":"left","response":"left","rt":762,"correct":true,"confidence":2},{"trial_n":33,"n_dots":3.15,"target":"left","response":"right","rt":800.90000000037,"correct":false,"confidence":4},{"trial_n":34,"n_dots":3.25,"target":"left","response":"right","rt":530.20000000019,"correct":false,"confidence":3},{"trial_n":35,"n_dots":3.35,"target":"right","response":"right","rt":446.29999999981,"correct":true,"confidence":3},{"trial_n":36,"n_dots":3.35,"target":"left","response":"left","rt":492.20000000019,"correct":true,"confidence":2},{"trial_n":37,"n_dots":3.25,"target":"right","response":"right","rt":679.10000000009,"correct":true,"confidence":4},{"trial_n":38,"n_dots":3.25,"target":"right","response":"right","rt":560.90000000037,"correct":true,"confidence":4},{"trial_n":39,"n_dots":3.15,"target":"left","response":"left","rt":488.60000000009,"correct":true,"confidence":4},{"trial_n":40,"n_dots":3.15,"target":"left","response":"left","rt":519.90000000037,"correct":true,"confidence":4},{"trial_n":41,"n_dots":3.05,"target":"left","response":"left","rt":452.5,"correct":true,"confidence":6},{"trial_n":42,"n_dots":3.05,"target":"left","response":"left","rt":701.70000000019,"correct":true,"confidence":2},{"trial_n":43,"n_dots":2.95,"target":"right","response":"right","rt":446.39999999991,"correct":true,"confidence":3},{"trial_n":44,"n_dots":2.95,"target":"left","response":"right","rt":572.59999999963,"correct":false,"confidence":2},{"trial_n":45,"n_dots":3.05,"target":"left","response":"left","rt":432.09999999963,"correct":true,"confidence":3},{"trial_n":46,"n_dots":3.05,"target":"left","response":"left","rt":444.10000000009,"correct":true,"confidence":5},{"trial_n":47,"n_dots":2.95,"target":"left","response":"left","rt":454.79999999981,"correct":true,"confidence":6},{"trial_n":48,"n_dots":2.95,"target":"left","response":"left","rt":481,"correct":true,"confidence":6},{"trial_n":49,"n_dots":2.85,"target":"right","response":"left","rt":886.19999999972,"correct":false,"confidence":2},{"trial_n":50,"n_dots":2.95,"target":"left","response":"left","rt":415.10000000009,"correct":true,"confidence":3},{"trial_n":51,"n_dots":2.95,"target":"left","response":"left","rt":415.29999999981,"correct":true,"confidence":4},{"trial_n":52,"n_dots":2.85,"target":"right","response":"right","rt":494.89999999991,"correct":true,"confidence":4},{"trial_n":53,"n_dots":2.85,"target":"right","response":"left","rt":485.20000000019,"correct":false,"confidence":4},{"trial_n":54,"n_dots":2.95,"target":"left","response":"left","rt":321.20000000019,"correct":true,"confidence":4},{"trial_n":55,"n_dots":2.95,"target":"left","response":"left","rt":601.5,"correct":true,"confidence":4},{"trial_n":56,"n_dots":2.85,"target":"right","response":"right","rt":396.20000000019,"correct":true,"confidence":6},{"trial_n":57,"n_dots":2.85,"target":"left","response":"right","rt":539.5,"correct":false,"confidence":4},{"trial_n":58,"n_dots":2.95,"target":"right","response":"right","rt":528.80000000028,"correct":true,"confidence":3},{"trial_n":59,"n_dots":2.95,"target":"left","response":"right","rt":873,"correct":false,"confidence":2},{"trial_n":60,"n_dots":3.05,"target":"right","response":"right","rt":636,"correct":true,"confidence":3},{"trial_n":61,"n_dots":3.05,"target":"left","response":"left","rt":428.89999999991,"correct":true,"confidence":4},{"trial_n":62,"n_dots":2.95,"target":"right","response":"right","rt":642,"correct":true,"confidence":5},{"trial_n":63,"n_dots":2.95,"target":"left","response":"right","rt":535.60000000009,"correct":false,"confidence":4},{"trial_n":64,"n_dots":3.05,"target":"right","response":"right","rt":668.79999999981,"correct":true,"confidence":4},{"trial_n":65,"n_dots":3.05,"target":"right","response":"right","rt":523.79999999981,"correct":true,"confidence":5},{"trial_n":66,"n_dots":2.95,"target":"left","response":"left","rt":559.30000000028,"correct":true,"confidence":2},{"trial_n":67,"n_dots":2.95,"target":"right","response":"left","rt":402.60000000009,"correct":false,"confidence":3},{"trial_n":68,"n_dots":3.05,"target":"left","response":"left","rt":472.89999999991,"correct":true,"confidence":5},{"trial_n":69,"n_dots":3.05,"target":"right","response":"right","rt":599,"correct":true,"confidence":4},{"trial_n":70,"n_dots":2.95,"target":"left","response":"left","rt":416.10000000009,"correct":true,"confidence":5},{"trial_n":71,"n_dots":2.95,"target":"right","response":"left","rt":608.30000000028,"correct":false,"confidence":5},{"trial_n":72,"n_dots":3.05,"target":"left","response":"right","rt":692.70000000019,"correct":false,"confidence":5},{"trial_n":73,"n_dots":3.15,"target":"right","response":"right","rt":642.19999999972,"correct":true,"confidence":4},{"trial_n":74,"n_dots":3.15,"target":"right","response":"right","rt":603.69999999972,"correct":true,"confidence":4},{"trial_n":75,"n_dots":3.05,"target":"left","response":"left","rt":594,"correct":true,"confidence":6},{"trial_n":76,"n_dots":3.05,"target":"left","response":"left","rt":758.29999999981,"correct":true,"confidence":5},{"trial_n":77,"n_dots":2.95,"target":"right","response":"left","rt":752.39999999991,"correct":false,"confidence":4},{"trial_n":78,"n_dots":3.05,"target":"left","response":"left","rt":880.69999999972,"correct":true,"confidence":1},{"trial_n":79,"n_dots":3.05,"target":"left","response":"left","rt":402.80000000028,"correct":true,"confidence":5},{"trial_n":80,"n_dots":2.95,"target":"left","response":"left","rt":625.39999999991,"correct":true,"confidence":4},{"trial_n":81,"n_dots":2.95,"target":"left","response":"right","rt":1003.1000000001,"correct":false,"confidence":1},{"trial_n":82,"n_dots":3.05,"target":"left","response":"left","rt":508.39999999991,"correct":true,"confidence":3},{"trial_n":83,"n_dots":3.05,"target":"left","response":"left","rt":724,"correct":true,"confidence":3},{"trial_n":84,"n_dots":2.95,"target":"left","response":"left","rt":561.39999999991,"correct":true,"confidence":3},{"trial_n":85,"n_dots":2.95,"target":"right","response":"left","rt":315.89999999991,"correct":false,"confidence":4},{"trial_n":86,"n_dots":3.05,"target":"left","response":"left","rt":399.29999999981,"correct":true,"confidence":5},{"trial_n":87,"n_dots":3.05,"target":"right","response":"right","rt":625.29999999981,"correct":true,"confidence":4},{"trial_n":88,"n_dots":2.95,"target":"right","response":"right","rt":763.30000000028,"correct":true,"confidence":5},{"trial_n":89,"n_dots":2.95,"target":"right","response":"left","rt":663.10000000009,"correct":false,"confidence":4},{"trial_n":90,"n_dots":3.05,"target":"right","response":"left","rt":698.10000000009,"correct":false,"confidence":3},{"trial_n":91,"n_dots":3.15,"target":"right","response":"right","rt":545.5,"correct":true,"confidence":4},{"trial_n":92,"n_dots":3.15,"target":"left","response":"left","rt":498.10000000009,"correct":true,"confidence":5},{"trial_n":93,"n_dots":3.05,"target":"left","response":"left","rt":457.10000000009,"correct":true,"confidence":6},{"trial_n":94,"n_dots":3.05,"target":"left","response":"left","rt":684.19999999972,"correct":true,"confidence":6},{"trial_n":95,"n_dots":2.95,"target":"right","response":"left","rt":1446.3999999999,"correct":false,"confidence":1},{"trial_n":96,"n_dots":3.05,"target":"right","response":"right","rt":660,"correct":true,"confidence":5},{"trial_n":97,"n_dots":3.05,"target":"left","response":"right","rt":972.20000000019,"correct":false,"confidence":1},{"trial_n":98,"n_dots":3.15,"target":"right","response":"right","rt":647.39999999991,"correct":true,"confidence":2},{"trial_n":99,"n_dots":3.15,"target":"left","response":"left","rt":508.30000000028,"correct":true,"confidence":4},{"trial_n":100,"n_dots":3.05,"target":"right","response":"right","rt":42783,"correct":true,"confidence":2},{"trial_n":101,"n_dots":3.05,"target":"right","response":"right","rt":620.20000000019,"correct":true,"confidence":2},{"trial_n":102,"n_dots":2.95,"target":"right","response":"left","rt":432.60000000009,"correct":false,"confidence":1},{"trial_n":103,"n_dots":3.05,"target":"left","response":"left","rt":321.89999999991,"correct":true,"confidence":6},{"trial_n":104,"n_dots":3.05,"target":"right","response":"right","rt":518.10000000009,"correct":true,"confidence":5},{"trial_n":105,"n_dots":2.95,"target":"right","response":"right","rt":818.89999999991,"correct":true,"confidence":2},{"trial_n":106,"n_dots":2.95,"target":"left","response":"left","rt":395.19999999972,"correct":true,"confidence":3},{"trial_n":107,"n_dots":2.85,"target":"right","response":"right","rt":616.5,"correct":true,"confidence":1},{"trial_n":108,"n_dots":2.85,"target":"right","response":"right","rt":1244.3999999999,"correct":true,"confidence":2},{"trial_n":109,"n_dots":2.75,"target":"right","response":"right","rt":802.20000000019,"correct":true,"confidence":6},{"trial_n":110,"n_dots":2.75,"target":"right","response":"right","rt":928.39999999991,"correct":true,"confidence":3},{"trial_n":111,"n_dots":2.65,"target":"right","response":"right","rt":1079.1999999997,"correct":true,"confidence":1},{"trial_n":112,"n_dots":2.65,"target":"left","response":"left","rt":990.60000000009,"correct":true,"confidence":2},{"trial_n":113,"n_dots":2.55,"target":"right","response":"right","rt":570.30000000028,"correct":true,"confidence":1},{"trial_n":114,"n_dots":2.55,"target":"right","response":"right","rt":653.5,"correct":true,"confidence":3},{"trial_n":115,"n_dots":2.45,"target":"left","response":"right","rt":817.29999999981,"correct":false,"confidence":2},{"trial_n":116,"n_dots":2.55,"target":"right","response":"right","rt":1523.6000000001,"correct":true,"confidence":2},{"trial_n":117,"n_dots":2.55,"target":"right","response":"right","rt":593.69999999972,"correct":true,"confidence":3},{"trial_n":118,"n_dots":2.45,"target":"left","response":"right","rt":620.90000000037,"correct":false,"confidence":1},{"trial_n":119,"n_dots":2.55,"target":"right","response":"left","rt":578.30000000028,"correct":false,"confidence":3},{"trial_n":120,"n_dots":2.65,"target":"right","response":"right","rt":839,"correct":true,"confidence":3},{"trial_n":121,"n_dots":2.65,"target":"left","response":"left","rt":931.79999999981,"correct":true,"confidence":2},{"trial_n":122,"n_dots":2.55,"target":"right","response":"right","rt":643.79999999981,"correct":true,"confidence":2},{"trial_n":123,"n_dots":2.55,"target":"left","response":"left","rt":506.60000000009,"correct":true,"confidence":4},{"trial_n":124,"n_dots":2.45,"target":"right","response":"right","rt":616.70000000019,"correct":true,"confidence":3},{"trial_n":125,"n_dots":2.45,"target":"right","response":"right","rt":885,"correct":true,"confidence":2},{"trial_n":126,"n_dots":2.35,"target":"left","response":"left","rt":739.5,"correct":true,"confidence":2},{"trial_n":127,"n_dots":2.35,"target":"left","response":"left","rt":714.39999999991,"correct":true,"confidence":1},{"trial_n":128,"n_dots":2.25,"target":"left","response":"left","rt":436.30000000028,"correct":true,"confidence":2},{"trial_n":129,"n_dots":2.25,"target":"right","response":"right","rt":532.20000000019,"correct":true,"confidence":2},{"trial_n":130,"n_dots":2.15,"target":"left","response":"right","rt":783.29999999981,"correct":false,"confidence":1},{"trial_n":131,"n_dots":2.25,"target":"right","response":"left","rt":666.69999999972,"correct":false,"confidence":2},{"trial_n":132,"n_dots":2.35,"target":"left","response":"left","rt":488.10000000009,"correct":true,"confidence":2},{"trial_n":133,"n_dots":2.35,"target":"left","response":"left","rt":693.30000000028,"correct":true,"confidence":1},{"trial_n":134,"n_dots":2.25,"target":"left","response":"right","rt":630.59999999963,"correct":false,"confidence":2},{"trial_n":135,"n_dots":2.35,"target":"right","response":"left","rt":489.30000000028,"correct":false,"confidence":2},{"trial_n":136,"n_dots":2.45,"target":"right","response":"left","rt":673.60000000009,"correct":false,"confidence":2},{"trial_n":137,"n_dots":2.55,"target":"right","response":"right","rt":448.79999999981,"correct":true,"confidence":2},{"trial_n":138,"n_dots":2.55,"target":"right","response":"left","rt":430.29999999981,"correct":false,"confidence":3},{"trial_n":139,"n_dots":2.65,"target":"left","response":"left","rt":563.40000000037,"correct":true,"confidence":4},{"trial_n":140,"n_dots":2.65,"target":"right","response":"right","rt":466.80000000028,"correct":true,"confidence":5},{"trial_n":141,"n_dots":2.55,"target":"right","response":"right","rt":1044.5,"correct":true,"confidence":1},{"trial_n":142,"n_dots":2.55,"target":"left","response":"left","rt":549.5,"correct":true,"confidence":5},{"trial_n":143,"n_dots":2.45,"target":"left","response":"right","rt":1185.3999999999,"correct":false,"confidence":2},{"trial_n":144,"n_dots":2.55,"target":"right","response":"right","rt":545.79999999981,"correct":true,"confidence":3},{"trial_n":145,"n_dots":2.55,"target":"left","response":"left","rt":406.29999999981,"correct":true,"confidence":5},{"trial_n":146,"n_dots":2.45,"target":"left","response":"right","rt":484.80000000028,"correct":false,"confidence":3},{"trial_n":147,"n_dots":2.55,"target":"right","response":"left","rt":502.89999999991,"correct":false,"confidence":5},{"trial_n":148,"n_dots":2.65,"target":"left","response":"right","rt":627.19999999972,"correct":false,"confidence":3},{"trial_n":149,"n_dots":2.75,"target":"left","response":"left","rt":633.89999999991,"correct":true,"confidence":4},{"trial_n":150,"n_dots":2.75,"target":"right","response":"right","rt":712.80000000028,"correct":true,"confidence":3},{"trial_n":151,"n_dots":2.65,"target":"right","response":"right","rt":596.60000000009,"correct":true,"confidence":3},{"trial_n":152,"n_dots":2.65,"target":"left","response":"left","rt":398.39999999991,"correct":true,"confidence":5},{"trial_n":153,"n_dots":2.55,"target":"left","response":"left","rt":548,"correct":true,"confidence":4},{"trial_n":154,"n_dots":2.55,"target":"left","response":"left","rt":528.19999999972,"correct":true,"confidence":4},{"trial_n":155,"n_dots":2.45,"target":"right","response":"right","rt":703,"correct":true,"confidence":3},{"trial_n":156,"n_dots":2.45,"target":"right","response":"left","rt":1267.8000000003,"correct":false,"confidence":3},{"trial_n":157,"n_dots":2.55,"target":"right","response":"left","rt":506.10000000009,"correct":false,"confidence":5},{"trial_n":158,"n_dots":2.65,"target":"right","response":"left","rt":1420.2000000002,"correct":false,"confidence":4},{"trial_n":159,"n_dots":2.75,"target":"left","response":"left","rt":985,"correct":true,"confidence":4},{"trial_n":160,"n_dots":2.75,"target":"right","response":"right","rt":568.80000000028,"correct":true,"confidence":4},{"trial_n":161,"n_dots":2.65,"target":"left","response":"left","rt":492.79999999981,"correct":true,"confidence":4},{"trial_n":162,"n_dots":2.65,"target":"left","response":"left","rt":751.5,"correct":true,"confidence":3},{"trial_n":163,"n_dots":2.55,"target":"left","response":"right","rt":569.90000000037,"correct":false,"confidence":5},{"trial_n":164,"n_dots":2.65,"target":"left","response":"left","rt":474.20000000019,"correct":true,"confidence":5},{"trial_n":165,"n_dots":2.65,"target":"left","response":"right","rt":608.70000000019,"correct":false,"confidence":3},{"trial_n":166,"n_dots":2.75,"target":"left","response":"right","rt":1170.8999999999,"correct":false,"confidence":1},{"trial_n":167,"n_dots":2.85,"target":"left","response":"left","rt":483.60000000009,"correct":true,"confidence":5},{"trial_n":168,"n_dots":2.85,"target":"left","response":"right","rt":1785,"correct":false,"confidence":3},{"trial_n":169,"n_dots":2.95,"target":"right","response":"left","rt":657.30000000028,"correct":false,"confidence":4},{"trial_n":170,"n_dots":3.05,"target":"right","response":"left","rt":539.5,"correct":false,"confidence":3},{"trial_n":171,"n_dots":3.15,"target":"left","response":"left","rt":472.10000000009,"correct":true,"confidence":3},{"trial_n":172,"n_dots":3.15,"target":"right","response":"right","rt":390.20000000019,"correct":true,"confidence":6},{"trial_n":173,"n_dots":3.05,"target":"right","response":"right","rt":729.90000000037,"correct":true,"confidence":3},{"trial_n":174,"n_dots":3.05,"target":"right","response":"left","rt":457.20000000019,"correct":false,"confidence":3},{"trial_n":175,"n_dots":3.15,"target":"left","response":"right","rt":493.79999999981,"correct":false,"confidence":3},{"trial_n":176,"n_dots":3.25,"target":"left","response":"left","rt":631.69999999972,"correct":true,"confidence":3},{"trial_n":177,"n_dots":3.25,"target":"left","response":"left","rt":430.20000000019,"correct":true,"confidence":4},{"trial_n":178,"n_dots":3.15,"target":"right","response":"right","rt":567.60000000009,"correct":true,"confidence":3},{"trial_n":179,"n_dots":3.15,"target":"left","response":"left","rt":546.89999999991,"correct":true,"confidence":3},{"trial_n":180,"n_dots":3.05,"target":"right","response":"right","rt":760.30000000028,"correct":true,"confidence":2},{"trial_n":181,"n_dots":3.05,"target":"right","response":"right","rt":595.80000000028,"correct":true,"confidence":3},{"trial_n":182,"n_dots":2.95,"target":"right","response":"left","rt":823.10000000009,"correct":false,"confidence":2},{"trial_n":183,"n_dots":3.05,"target":"right","response":"right","rt":632.79999999981,"correct":true,"confidence":3},{"trial_n":184,"n_dots":3.05,"target":"right","response":"right","rt":510.10000000009,"correct":true,"confidence":2},{"trial_n":185,"n_dots":2.95,"target":"right","response":"right","rt":472.29999999981,"correct":true,"confidence":2},{"trial_n":186,"n_dots":2.95,"target":"right","response":"right","rt":680.70000000019,"correct":true,"confidence":2},{"trial_n":187,"n_dots":2.85,"target":"right","response":"right","rt":813.89999999991,"correct":true,"confidence":2},{"trial_n":188,"n_dots":2.85,"target":"left","response":"left","rt":521.89999999991,"correct":true,"confidence":4},{"trial_n":189,"n_dots":2.75,"target":"left","response":"right","rt":655.29999999981,"correct":false,"confidence":2},{"trial_n":190,"n_dots":2.85,"target":"left","response":"left","rt":661.5,"correct":true,"confidence":2},{"trial_n":191,"n_dots":2.85,"target":"left","response":"left","rt":574.60000000009,"correct":true,"confidence":2},{"trial_n":192,"n_dots":2.75,"target":"left","response":"left","rt":540.20000000019,"correct":true,"confidence":4},{"trial_n":193,"n_dots":2.75,"target":"left","response":"left","rt":710.70000000019,"correct":true,"confidence":4},{"trial_n":194,"n_dots":2.65,"target":"left","response":"left","rt":2236.5,"correct":true,"confidence":1}]