[{"trial_n":1,"n_dots":4.25,"target":"right","response":"right","rt":629.39999999851,"correct":true,"confidence":-1},{"trial_n":2,"n_dots":4.25,"target":"left","response":"left","rt":281.69999999553,"correct":true,"confidence":-1},{"trial_n":3,"n_dots":3.85,"target":"left","response":"left","rt":255.30000000447,"correct":true,"confidence":-1},{"trial_n":4,"n_dots":3.85,"target":"right","response":"right","rt":272.10000000149,"correct":true,"confidence":-1},{"trial_n":5,"n_dots":3.45,"target":"left","response":"right","rt":521.09999999404,"correct":false,"confidence":-1},{"trial_n":6,"n_dots":3.85,"target":"left","response":"left","rt":622.79999999702,"correct":true,"confidence":-1},{"trial_n":7,"n_dots":3.85,"target":"left","response":"left","rt":0.10000000149012,"correct":true,"confidence":-1},{"trial_n":8,"n_dots":3.65,"target":"right","response":"right","rt":232.60000000149,"correct":true,"confidence":-1},{"trial_n":9,"n_dots":3.65,"target":"left","response":"left","rt":659.39999999851,"correct":true,"confidence":-1},{"trial_n":10,"n_dots":3.45,"target":"right","response":"left","rt":421.10000000149,"correct":false,"confidence":-1},{"trial_n":11,"n_dots":3.65,"target":"right","response":"right","rt":336.39999999851,"correct":true,"confidence":-1},{"trial_n":12,"n_dots":3.65,"target":"left","response":"left","rt":421.79999999702,"correct":true,"confidence":-1},{"trial_n":13,"n_dots":3.55,"target":"right","response":"left","rt":625.10000000149,"correct":false,"confidence":-1},{"trial_n":14,"n_dots":3.65,"target":"left","response":"left","rt":47.70000000298,"correct":true,"confidence":-1},{"trial_n":15,"n_dots":3.65,"target":"right","response":"left","rt":283.89999999851,"correct":false,"confidence":-1},{"trial_n":16,"n_dots":3.75,"target":"right","response":"left","rt":277.29999999702,"correct":false,"confidence":-1},{"trial_n":17,"n_dots":3.85,"target":"left","response":"left","rt":231.70000000298,"correct":true,"confidence":-1},{"trial_n":18,"n_dots":3.85,"target":"left","response":"left","rt":8.3999999985099,"correct":true,"confidence":-1},{"trial_n":19,"n_dots":3.75,"target":"right","response":"right","rt":297.60000000149,"correct":true,"confidence":-1},{"trial_n":20,"n_dots":3.75,"target":"right","response":"right","rt":331.89999999851,"correct":true,"confidence":-1},{"trial_n":21,"n_dots":3.65,"target":"left","response":"left","rt":243.40000000596,"correct":true,"confidence":-1},{"trial_n":22,"n_dots":3.65,"target":"right","response":"left","rt":320.89999999851,"correct":false,"confidence":-1},{"trial_n":23,"n_dots":3.75,"target":"left","response":"left","rt":417.29999999702,"correct":true,"confidence":-1},{"trial_n":24,"n_dots":3.75,"target":"left","response":"left","rt":291.69999999553,"correct":true,"confidence":-1},{"trial_n":25,"n_dots":3.65,"target":"left","response":"left","rt":274.5,"correct":true,"confidence":-1},{"trial_n":26,"n_dots":3.65,"target":"left","response":"left","rt":2.7999999970198,"correct":true,"confidence":-1},{"trial_n":27,"n_dots":3.55,"target":"left","response":"left","rt":234.30000000447,"correct":true,"confidence":4},{"trial_n":28,"n_dots":3.55,"target":"right","response":"right","rt":402.10000000149,"correct":true,"confidence":4},{"trial_n":29,"n_dots":3.45,"target":"right","response":"right","rt":824.89999999851,"correct":true,"confidence":2},{"trial_n":30,"n_dots":3.45,"target":"left","response":"left","rt":746.60000000149,"correct":true,"confidence":2},{"trial_n":31,"n_dots":3.35,"target":"right","response":"right","rt":515.79999999702,"correct":true,"confidence":3},{"trial_n":32,"n_dots":3.35,"target":"right","response":"right","rt":705.20000000298,"correct":true,"confidence":4},{"trial_n":33,"n_dots":3.25,"target":"left","response":"left","rt":333.10000000149,"correct":true,"confidence":4},{"trial_n":34,"n_dots":3.25,"target":"left","response":"right","rt":947.79999999702,"correct":false,"confidence":2},{"trial_n":35,"n_dots":3.35,"target":"left","response":"left","rt":540.60000000149,"correct":true,"confidence":4},{"trial_n":36,"n_dots":3.35,"target":"left","response":"right","rt":2235.1000000015,"correct":false,"confidence":2},{"trial_n":37,"n_dots":3.45,"target":"right","response":"left","rt":852.39999999851,"correct":false,"confidence":5},{"trial_n":38,"n_dots":3.55,"target":"left","response":"left","rt":432.20000000298,"correct":true,"confidence":5},{"trial_n":39,"n_dots":3.55,"target":"left","response":"left","rt":520.29999999702,"correct":true,"confidence":4},{"trial_n":40,"n_dots":3.45,"target":"left","response":"left","rt":102.29999999702,"correct":true,"confidence":4},{"trial_n":41,"n_dots":3.45,"target":"left","response":"left","rt":674.29999999702,"correct":true,"confidence":2},{"trial_n":42,"n_dots":3.35,"target":"right","response":"right","rt":467.89999999851,"correct":true,"confidence":4},{"trial_n":43,"n_dots":3.35,"target":"right","response":"left","rt":827.60000000149,"correct":false,"confidence":3},{"trial_n":44,"n_dots":3.45,"target":"left","response":"left","rt":1652.6999999955,"correct":true,"confidence":4},{"trial_n":45,"n_dots":3.45,"target":"left","response":"left","rt":454.39999999851,"correct":true,"confidence":4},{"trial_n":46,"n_dots":3.35,"target":"right","response":"right","rt":462,"correct":true,"confidence":4},{"trial_n":47,"n_dots":3.35,"target":"right","response":"left","rt":538,"correct":false,"confidence":3},{"trial_n":48,"n_dots":3.45,"target":"left","response":"left","rt":300.10000000149,"correct":true,"confidence":3},{"trial_n":49,"n_dots":3.45,"target":"right","response":"right","rt":297.5,"correct":true,"confidence":3},{"trial_n":50,"n_dots":3.35,"target":"left","response":"left","rt":80.39999999851,"correct":true,"confidence":3},{"trial_n":51,"n_dots":3.35,"target":"left","response":"left","rt":179.10000000149,"correct":true,"confidence":4},{"trial_n":52,"n_dots":3.25,"target":"left","response":"left","rt":34.5,"correct":true,"confidence":5},{"trial_n":53,"n_dots":3.25,"target":"right","response":"right","rt":735.19999999553,"correct":true,"confidence":3},{"trial_n":54,"n_dots":3.15,"target":"right","response":"left","rt":235,"correct":false,"confidence":4},{"trial_n":55,"n_dots":3.25,"target":"right","response":"left","rt":769.39999999851,"correct":false,"confidence":4},{"trial_n":56,"n_dots":3.35,"target":"right","response":"right","rt":621.60000000149,"correct":true,"confidence":4},{"trial_n":57,"n_dots":3.35,"target":"left","response":"left","rt":127.39999999851,"correct":true,"confidence":5},{"trial_n":58,"n_dots":3.25,"target":"right","response":"right","rt":539.29999999702,"correct":true,"confidence":5},{"trial_n":59,"n_dots":3.25,"target":"left","response":"left","rt":500.60000000149,"correct":true,"confidence":4},{"trial_n":60,"n_dots":3.15,"target":"right","response":"right","rt":273.79999999702,"correct":true,"confidence":5},{"trial_n":61,"n_dots":3.15,"target":"left","response":"left","rt":616.20000000298,"correct":true,"confidence":5},{"trial_n":62,"n_dots":3.05,"target":"left","response":"left","rt":529.89999999851,"correct":true,"confidence":4},{"trial_n":63,"n_dots":3.05,"target":"right","response":"right","rt":482.29999999702,"correct":true,"confidence":5},{"trial_n":64,"n_dots":2.95,"target":"right","response":"right","rt":706.70000000298,"correct":true,"confidence":4},{"trial_n":65,"n_dots":2.95,"target":"right","response":"left","rt":528.60000000149,"correct":false,"confidence":5},{"trial_n":66,"n_dots":3.05,"target":"left","response":"left","rt":193.20000000298,"correct":true,"confidence":5},{"trial_n":67,"n_dots":3.05,"target":"right","response":"left","rt":82,"correct":false,"confidence":4},{"trial_n":68,"n_dots":3.15,"target":"left","response":"left","rt":139.80000000447,"correct":true,"confidence":5},{"trial_n":69,"n_dots":3.15,"target":"left","response":"left","rt":428.89999999851,"correct":true,"confidence":5},{"trial_n":70,"n_dots":3.05,"target":"left","response":"right","rt":360.89999999851,"correct":false,"confidence":4},{"trial_n":71,"n_dots":3.15,"target":"left","response":"right","rt":1334,"correct":false,"confidence":2},{"trial_n":72,"n_dots":3.25,"target":"left","response":"left","rt":437,"correct":true,"confidence":3},{"trial_n":73,"n_dots":3.25,"target":"right","response":"right","rt":395.89999999851,"correct":true,"confidence":4},{"trial_n":74,"n_dots":3.15,"target":"right","response":"right","rt":254.80000000447,"correct":true,"confidence":4},{"trial_n":75,"n_dots":3.15,"target":"right","response":"right","rt":333.5,"correct":true,"confidence":4},{"trial_n":76,"n_dots":3.05,"target":"right","response":"left","rt":669.39999999851,"correct":false,"confidence":2},{"trial_n":77,"n_dots":3.15,"target":"right","response":"right","rt":567.20000000298,"correct":true,"confidence":4},{"trial_n":78,"n_dots":3.15,"target":"left","response":"left","rt":330.29999999702,"correct":true,"confidence":4},{"trial_n":79,"n_dots":3.05,"target":"left","response":"left","rt":432.80000000447,"correct":true,"confidence":4},{"trial_n":80,"n_dots":3.05,"target":"left","response":"right","rt":519,"correct":false,"confidence":4},{"trial_n":81,"n_dots":3.15,"target":"right","response":"left","rt":997.39999999851,"correct":false,"confidence":1},{"trial_n":82,"n_dots":3.25,"target":"right","response":"right","rt":518.60000000149,"correct":true,"confidence":4},{"trial_n":83,"n_dots":3.25,"target":"left","response":"left","rt":350.39999999851,"correct":true,"confidence":4},{"trial_n":84,"n_dots":3.15,"target":"right","response":"right","rt":637.89999999851,"correct":true,"confidence":1},{"trial_n":85,"n_dots":3.15,"target":"left","response":"left","rt":702.10000000149,"correct":true,"confidence":3},{"trial_n":86,"n_dots":3.05,"target":"right","response":"left","rt":1441.6000000015,"correct":false,"confidence":4},{"trial_n":87,"n_dots":3.15,"target":"right","response":"right","rt":762.89999999851,"correct":true,"confidence":4},{"trial_n":88,"n_dots":3.15,"target":"right","response":"right","rt":885,"correct":true,"confidence":3},{"trial_n":89,"n_dots":3.05,"target":"left","response":"left","rt":387.10000000149,"correct":true,"confidence":5},{"trial_n":90,"n_dots":3.05,"target":"right","response":"right","rt":668,"correct":true,"confidence":4},{"trial_n":91,"n_dots":2.95,"target":"right","response":"left","rt":1182.5,"correct":false,"confidence":2},{"trial_n":92,"n_dots":3.05,"target":"left","response":"left","rt":515.30000000447,"correct":true,"confidence":4},{"trial_n":93,"n_dots":3.05,"target":"right","response":"left","rt":732.29999999702,"correct":false,"confidence":4},{"trial_n":94,"n_dots":3.15,"target":"left","response":"left","rt":336.19999999553,"correct":true,"confidence":5},{"trial_n":95,"n_dots":3.15,"target":"right","response":"left","rt":544.5,"correct":false,"confidence":3},{"trial_n":96,"n_dots":3.25,"target":"right","response":"right","rt":502.79999999702,"correct":true,"confidence":4},{"trial_n":97,"n_dots":3.25,"target":"left","response":"left","rt":76.29999999702,"correct":true,"confidence":5},{"trial_n":98,"n_dots":3.15,"target":"right","response":"left","rt":324.10000000149,"correct":false,"confidence":4},{"trial_n":99,"n_dots":3.25,"target":"left","response":"left","rt":256,"correct":true,"confidence":3},{"trial_n":100,"n_dots":3.25,"target":"left","response":"left","rt":1207.1000000015,"correct":true,"confidence":4},{"trial_n":101,"n_dots":3.15,"target":"right","response":"right","rt":225.60000000149,"correct":true,"confidence":4},{"trial_n":102,"n_dots":3.15,"target":"left","response":"left","rt":140.39999999851,"correct":true,"confidence":4},{"trial_n":103,"n_dots":3.05,"target":"left","response":"left","rt":319.5,"correct":true,"confidence":3},{"trial_n":104,"n_dots":3.05,"target":"left","response":"left","rt":861.10000000149,"correct":true,"confidence":4},{"trial_n":105,"n_dots":2.95,"target":"right","response":"left","rt":1388.799999997,"correct":false,"confidence":3},{"trial_n":106,"n_dots":3.05,"target":"right","response":"left","rt":979.80000000447,"correct":false,"confidence":3},{"trial_n":107,"n_dots":3.15,"target":"left","response":"left","rt":587.5,"correct":true,"confidence":4},{"trial_n":108,"n_dots":3.15,"target":"right","response":"right","rt":222.80000000447,"correct":true,"confidence":3},{"trial_n":109,"n_dots":3.05,"target":"left","response":"left","rt":237.5,"correct":true,"confidence":5},{"trial_n":110,"n_dots":3.05,"target":"left","response":"right","rt":498,"correct":false,"confidence":4},{"trial_n":111,"n_dots":3.15,"target":"right","response":"right","rt":181.80000000447,"correct":true,"confidence":3},{"trial_n":112,"n_dots":3.15,"target":"right","response":"right","rt":524,"correct":true,"confidence":3},{"trial_n":113,"n_dots":3.05,"target":"right","response":"right","rt":332.79999999702,"correct":true,"confidence":4},{"trial_n":114,"n_dots":3.05,"target":"right","response":"left","rt":1058.5,"correct":false,"confidence":2},{"trial_n":115,"n_dots":3.15,"target":"left","response":"left","rt":308,"correct":true,"confidence":4},{"trial_n":116,"n_dots":3.15,"target":"right","response":"right","rt":415,"correct":true,"confidence":3},{"trial_n":117,"n_dots":3.05,"target":"left","response":"right","rt":312.69999999553,"correct":false,"confidence":4},{"trial_n":118,"n_dots":3.15,"target":"left","response":"left","rt":649.5,"correct":true,"confidence":2},{"trial_n":119,"n_dots":3.15,"target":"right","response":"right","rt":29.60000000149,"correct":true,"confidence":5},{"trial_n":120,"n_dots":3.05,"target":"right","response":"right","rt":422.30000000447,"correct":true,"confidence":5},{"trial_n":121,"n_dots":3.05,"target":"left","response":"left","rt":730,"correct":true,"confidence":4},{"trial_n":122,"n_dots":2.95,"target":"right","response":"right","rt":616,"correct":true,"confidence":5},{"trial_n":123,"n_dots":2.95,"target":"left","response":"left","rt":-1.1999999955297,"correct":true,"confidence":5},{"trial_n":124,"n_dots":2.85,"target":"right","response":"right","rt":294,"correct":true,"confidence":5},{"trial_n":125,"n_dots":2.85,"target":"left","response":"left","rt":828.5,"correct":true,"confidence":1},{"trial_n":126,"n_dots":2.75,"target":"left","response":"left","rt":505.60000000149,"correct":true,"confidence":4},{"trial_n":127,"n_dots":2.75,"target":"left","response":"right","rt":756,"correct":false,"confidence":3},{"trial_n":128,"n_dots":2.85,"target":"right","response":"right","rt":679.5,"correct":true,"confidence":4},{"trial_n":129,"n_dots":2.85,"target":"left","response":"right","rt":592.40000000596,"correct":false,"confidence":4},{"trial_n":130,"n_dots":2.95,"target":"right","response":"right","rt":442.60000000149,"correct":true,"confidence":3},{"trial_n":131,"n_dots":2.95,"target":"right","response":"right","rt":45.70000000298,"correct":true,"confidence":5},{"trial_n":132,"n_dots":2.85,"target":"left","response":"left","rt":260,"correct":true,"confidence":5},{"trial_n":133,"n_dots":2.85,"target":"right","response":"right","rt":485.5,"correct":true,"confidence":4},{"trial_n":134,"n_dots":2.75,"target":"left","response":"left","rt":761.20000000298,"correct":true,"confidence":3},{"trial_n":135,"n_dots":2.75,"target":"right","response":"right","rt":241,"correct":true,"confidence":4},{"trial_n":136,"n_dots":2.65,"target":"left","response":"right","rt":210.20000000298,"correct":false,"confidence":4},{"trial_n":137,"n_dots":2.75,"target":"right","response":"right","rt":278.10000000149,"correct":true,"confidence":4},{"trial_n":138,"n_dots":2.75,"target":"right","response":"right","rt":294,"correct":true,"confidence":3},{"trial_n":139,"n_dots":2.65,"target":"right","response":"right","rt":302.40000000596,"correct":true,"confidence":4},{"trial_n":140,"n_dots":2.65,"target":"right","response":"right","rt":26.39999999851,"correct":true,"confidence":4},{"trial_n":141,"n_dots":2.55,"target":"right","response":"right","rt":368.5,"correct":true,"confidence":3},{"trial_n":142,"n_dots":2.55,"target":"right","response":"right","rt":230.39999999851,"correct":true,"confidence":5},{"trial_n":143,"n_dots":2.45,"target":"right","response":"left","rt":368.89999999851,"correct":false,"confidence":3},{"trial_n":144,"n_dots":2.55,"target":"right","response":"right","rt":636.89999999851,"correct":true,"confidence":4},{"trial_n":145,"n_dots":2.55,"target":"right","response":"right","rt":139.39999999851,"correct":true,"confidence":5},{"trial_n":146,"n_dots":2.45,"target":"right","response":"right","rt":540.80000000447,"correct":true,"confidence":4},{"trial_n":147,"n_dots":2.45,"target":"right","response":"right","rt":620.5,"correct":true,"confidence":3},{"trial_n":148,"n_dots":2.35,"target":"right","response":"right","rt":334.30000000447,"correct":true,"confidence":5},{"trial_n":149,"n_dots":2.35,"target":"left","response":"left","rt":252,"correct":true,"confidence":4},{"trial_n":150,"n_dots":2.25,"target":"right","response":"right","rt":1246.1999999955,"correct":true,"confidence":4},{"trial_n":151,"n_dots":2.25,"target":"right","response":"left","rt":507.10000000149,"correct":false,"confidence":4},{"trial_n":152,"n_dots":2.35,"target":"right","response":"left","rt":183.60000000149,"correct":false,"confidence":5},{"trial_n":153,"n_dots":2.45,"target":"left","response":"left","rt":296.09999999404,"correct":true,"confidence":5},{"trial_n":154,"n_dots":2.45,"target":"right","response":"right","rt":515.20000000298,"correct":true,"confidence":3},{"trial_n":155,"n_dots":2.35,"target":"left","response":"left","rt":204.39999999851,"correct":true,"confidence":4},{"trial_n":156,"n_dots":2.35,"target":"left","response":"left","rt":201.19999999553,"correct":true,"confidence":5},{"trial_n":157,"n_dots":2.25,"target":"left","response":"left","rt":175.60000000149,"correct":true,"confidence":5},{"trial_n":158,"n_dots":2.25,"target":"right","response":"right","rt":243.89999999851,"correct":true,"confidence":3},{"trial_n":159,"n_dots":2.15,"target":"right","response":"left","rt":442.20000000298,"correct":false,"confidence":4},{"trial_n":160,"n_dots":2.25,"target":"right","response":"left","rt":269.39999999851,"correct":false,"confidence":4},{"trial_n":161,"n_dots":2.35,"target":"left","response":"left","rt":22.70000000298,"correct":true,"confidence":5},{"trial_n":162,"n_dots":2.35,"target":"left","response":"left","rt":275.79999999702,"correct":true,"confidence":5},{"trial_n":163,"n_dots":2.25,"target":"left","response":"right","rt":509.60000000149,"correct":false,"confidence":4},{"trial_n":164,"n_dots":2.35,"target":"left","response":"left","rt":258.5,"correct":true,"confidence":3},{"trial_n":165,"n_dots":2.35,"target":"right","response":"right","rt":475.20000000298,"correct":true,"confidence":4},{"trial_n":166,"n_dots":2.25,"target":"right","response":"left","rt":120.39999999851,"correct":false,"confidence":4},{"trial_n":167,"n_dots":2.35,"target":"left","response":"left","rt":516.79999999702,"correct":true,"confidence":3},{"trial_n":168,"n_dots":2.35,"target":"left","response":"left","rt":1417.8999999985,"correct":true,"confidence":4},{"trial_n":169,"n_dots":2.25,"target":"left","response":"left","rt":456.69999999553,"correct":true,"confidence":4},{"trial_n":170,"n_dots":2.25,"target":"right","response":"right","rt":850.20000000298,"correct":true,"confidence":3},{"trial_n":171,"n_dots":2.15,"target":"left","response":"right","rt":493.20000000298,"correct":false,"confidence":4},{"trial_n":172,"n_dots":2.25,"target":"right","response":"left","rt":255.60000000149,"correct":false,"confidence":3},{"trial_n":173,"n_dots":2.35,"target":"left","response":"left","rt":212.80000000447,"correct":true,"confidence":5},{"trial_n":174,"n_dots":2.35,"target":"right","response":"right","rt":343.60000000149,"correct":true,"confidence":4},{"trial_n":175,"n_dots":2.25,"target":"left","response":"left","rt":221.5,"correct":true,"confidence":4},{"trial_n":176,"n_dots":2.25,"target":"right","response":"right","rt":796.20000000298,"correct":true,"confidence":2},{"trial_n":177,"n_dots":2.15,"target":"right","response":"right","rt":381.39999999851,"correct":true,"confidence":4},{"trial_n":178,"n_dots":2.15,"target":"right","response":"left","rt":808.89999999851,"correct":false,"confidence":4},{"trial_n":179,"n_dots":2.25,"target":"left","response":"left","rt":297.5,"correct":true,"confidence":4},{"trial_n":180,"n_dots":2.25,"target":"left","response":"left","rt":550.60000000149,"correct":true,"confidence":3},{"trial_n":181,"n_dots":2.15,"target":"left","response":"left","rt":2363.5,"correct":true,"confidence":4},{"trial_n":182,"n_dots":2.15,"target":"right","response":"left","rt":553.89999999851,"correct":false,"confidence":4},{"trial_n":183,"n_dots":2.25,"target":"left","response":"right","rt":276.89999999851,"correct":false,"confidence":3},{"trial_n":184,"n_dots":2.35,"target":"right","response":"right","rt":281.69999999553,"correct":true,"confidence":4},{"trial_n":185,"n_dots":2.35,"target":"right","response":"right","rt":323.5,"correct":true,"confidence":5},{"trial_n":186,"n_dots":2.25,"target":"left","response":"left","rt":571.20000000298,"correct":true,"confidence":3},{"trial_n":187,"n_dots":2.25,"target":"left","response":"left","rt":512.10000000149,"correct":true,"confidence":4},{"trial_n":188,"n_dots":2.15,"target":"left","response":"left","rt":832.80000000447,"correct":true,"confidence":4},{"trial_n":189,"n_dots":2.15,"target":"left","response":"left","rt":277.10000000149,"correct":true,"confidence":5},{"trial_n":190,"n_dots":2.05,"target":"left","response":"left","rt":283,"correct":true,"confidence":5},{"trial_n":191,"n_dots":2.05,"target":"right","response":"left","rt":251.69999999553,"correct":false,"confidence":5},{"trial_n":192,"n_dots":2.15,"target":"left","response":"left","rt":174.60000000149,"correct":true,"confidence":6},{"trial_n":193,"n_dots":2.15,"target":"left","response":"left","rt":258.39999999851,"correct":true,"confidence":5},{"trial_n":194,"n_dots":2.05,"target":"left","response":"left","rt":672.39999999851,"correct":true,"confidence":4}]