[{"trial_n":1,"n_dots":4.25,"target":"left","response":"right","rt":979.70000004768,"correct":false,"confidence":-1},{"trial_n":2,"n_dots":4.25,"target":"right","response":"right","rt":659.89999985695,"correct":true,"confidence":-1},{"trial_n":3,"n_dots":4.25,"target":"right","response":"right","rt":481.5,"correct":true,"confidence":-1},{"trial_n":4,"n_dots":3.85,"target":"right","response":"left","rt":599.70000004768,"correct":false,"confidence":-1},{"trial_n":5,"n_dots":4.25,"target":"right","response":"right","rt":352.70000004768,"correct":true,"confidence":-1},{"trial_n":6,"n_dots":4.25,"target":"left","response":"left","rt":304.40000009537,"correct":true,"confidence":-1},{"trial_n":7,"n_dots":3.85,"target":"right","response":"right","rt":512.70000004768,"correct":true,"confidence":-1},{"trial_n":8,"n_dots":3.85,"target":"right","response":"right","rt":917.70000004768,"correct":true,"confidence":-1},{"trial_n":9,"n_dots":3.65,"target":"right","response":"right","rt":309.80000019073,"correct":true,"confidence":-1},{"trial_n":10,"n_dots":3.65,"target":"left","response":"left","rt":283.90000009537,"correct":true,"confidence":-1},{"trial_n":11,"n_dots":3.45,"target":"right","response":"right","rt":463.89999985695,"correct":true,"confidence":-1},{"trial_n":12,"n_dots":3.45,"target":"left","response":"left","rt":632,"correct":true,"confidence":-1},{"trial_n":13,"n_dots":3.35,"target":"left","response":"right","rt":550.30000019073,"correct":false,"confidence":-1},{"trial_n":14,"n_dots":3.45,"target":"left","response":"left","rt":331.79999995232,"correct":true,"confidence":-1},{"trial_n":15,"n_dots":3.45,"target":"right","response":"right","rt":714,"correct":true,"confidence":-1},{"trial_n":16,"n_dots":3.35,"target":"right","response":"right","rt":446.70000004768,"correct":true,"confidence":-1},{"trial_n":17,"n_dots":3.35,"target":"right","response":"right","rt":531.10000014305,"correct":true,"confidence":-1},{"trial_n":18,"n_dots":3.25,"target":"right","response":"right","rt":238.90000009537,"correct":true,"confidence":-1},{"trial_n":19,"n_dots":3.25,"target":"left","response":"right","rt":729.09999990463,"correct":false,"confidence":-1},{"trial_n":20,"n_dots":3.35,"target":"left","response":"left","rt":445.70000004768,"correct":true,"confidence":-1},{"trial_n":21,"n_dots":3.35,"target":"left","response":"left","rt":334.89999985695,"correct":true,"confidence":-1},{"trial_n":22,"n_dots":3.25,"target":"right","response":"right","rt":445.19999980927,"correct":true,"confidence":-1},{"trial_n":23,"n_dots":3.25,"target":"right","response":"right","rt":322.89999985695,"correct":true,"confidence":-1},{"trial_n":24,"n_dots":3.15,"target":"left","response":"left","rt":478.5,"correct":true,"confidence":-1},{"trial_n":25,"n_dots":3.15,"target":"left","response":"left","rt":359.90000009537,"correct":true,"confidence":-1},{"trial_n":26,"n_dots":3.05,"target":"left","response":"left","rt":346.20000004768,"correct":true,"confidence":-1},{"trial_n":27,"n_dots":3.05,"target":"right","response":"right","rt":411,"correct":true,"confidence":6},{"trial_n":28,"n_dots":2.95,"target":"left","response":"left","rt":599.89999985695,"correct":true,"confidence":5},{"trial_n":29,"n_dots":2.95,"target":"right","response":"right","rt":780.70000004768,"correct":true,"confidence":2},{"trial_n":30,"n_dots":2.85,"target":"left","response":"left","rt":440.20000004768,"correct":true,"confidence":4},{"trial_n":31,"n_dots":2.85,"target":"left","response":"left","rt":761.90000009537,"correct":true,"confidence":4},{"trial_n":32,"n_dots":2.75,"target":"left","response":"right","rt":659,"correct":false,"confidence":3},{"trial_n":33,"n_dots":2.85,"target":"left","response":"left","rt":615,"correct":true,"confidence":6},{"trial_n":34,"n_dots":2.85,"target":"right","response":"left","rt":670.5,"correct":false,"confidence":4},{"trial_n":35,"n_dots":2.95,"target":"right","response":"right","rt":496.89999985695,"correct":true,"confidence":6},{"trial_n":36,"n_dots":2.95,"target":"left","response":"left","rt":691.60000014305,"correct":true,"confidence":3},{"trial_n":37,"n_dots":2.85,"target":"right","response":"right","rt":1019.0999999046,"correct":true,"confidence":2},{"trial_n":38,"n_dots":2.85,"target":"left","response":"left","rt":418.09999990463,"correct":true,"confidence":6},{"trial_n":39,"n_dots":2.75,"target":"left","response":"left","rt":397,"correct":true,"confidence":5},{"trial_n":40,"n_dots":2.75,"target":"right","response":"left","rt":617.5,"correct":false,"confidence":4},{"trial_n":41,"n_dots":2.85,"target":"left","response":"left","rt":385.79999995232,"correct":true,"confidence":5},{"trial_n":42,"n_dots":2.85,"target":"left","response":"right","rt":755,"correct":false,"confidence":2},{"trial_n":43,"n_dots":2.95,"target":"right","response":"right","rt":979.70000004768,"correct":true,"confidence":3},{"trial_n":44,"n_dots":2.95,"target":"left","response":"left","rt":479.39999985695,"correct":true,"confidence":3},{"trial_n":45,"n_dots":2.85,"target":"right","response":"right","rt":512.39999985695,"correct":true,"confidence":5},{"trial_n":46,"n_dots":2.85,"target":"right","response":"right","rt":599.39999985695,"correct":true,"confidence":5},{"trial_n":47,"n_dots":2.75,"target":"left","response":"left","rt":498.70000004768,"correct":true,"confidence":6},{"trial_n":48,"n_dots":2.75,"target":"right","response":"right","rt":668.79999995232,"correct":true,"confidence":4},{"trial_n":49,"n_dots":2.65,"target":"left","response":"left","rt":348,"correct":true,"confidence":6},{"trial_n":50,"n_dots":2.65,"target":"left","response":"left","rt":1241.7000000477,"correct":true,"confidence":2},{"trial_n":51,"n_dots":2.55,"target":"right","response":"right","rt":434.40000009537,"correct":true,"confidence":6},{"trial_n":52,"n_dots":2.55,"target":"right","response":"right","rt":503.5,"correct":true,"confidence":6},{"trial_n":53,"n_dots":2.45,"target":"left","response":"left","rt":821.60000014305,"correct":true,"confidence":1},{"trial_n":54,"n_dots":2.45,"target":"left","response":"left","rt":522,"correct":true,"confidence":3},{"trial_n":55,"n_dots":2.35,"target":"right","response":"left","rt":551.10000014305,"correct":false,"confidence":5},{"trial_n":56,"n_dots":2.45,"target":"right","response":"right","rt":867,"correct":true,"confidence":3},{"trial_n":57,"n_dots":2.45,"target":"left","response":"left","rt":744.09999990463,"correct":true,"confidence":1},{"trial_n":58,"n_dots":2.35,"target":"left","response":"left","rt":690.89999985695,"correct":true,"confidence":2},{"trial_n":59,"n_dots":2.35,"target":"right","response":"right","rt":462.80000019073,"correct":true,"confidence":4},{"trial_n":60,"n_dots":2.25,"target":"right","response":"right","rt":536.70000004768,"correct":true,"confidence":6},{"trial_n":61,"n_dots":2.25,"target":"right","response":"right","rt":922.70000004768,"correct":true,"confidence":3},{"trial_n":62,"n_dots":2.15,"target":"right","response":"left","rt":2132.7999999523,"correct":false,"confidence":1},{"trial_n":63,"n_dots":2.25,"target":"right","response":"right","rt":617.40000009537,"correct":true,"confidence":3},{"trial_n":64,"n_dots":2.25,"target":"right","response":"right","rt":496.59999990463,"correct":true,"confidence":6},{"trial_n":65,"n_dots":2.15,"target":"left","response":"left","rt":561.89999985695,"correct":true,"confidence":4},{"trial_n":66,"n_dots":2.15,"target":"left","response":"right","rt":665.59999990463,"correct":false,"confidence":3},{"trial_n":67,"n_dots":2.25,"target":"right","response":"right","rt":715.5,"correct":true,"confidence":1},{"trial_n":68,"n_dots":2.25,"target":"right","response":"right","rt":1177.2999999523,"correct":true,"confidence":1},{"trial_n":69,"n_dots":2.15,"target":"right","response":"right","rt":1004.3999998569,"correct":true,"confidence":4},{"trial_n":70,"n_dots":2.15,"target":"left","response":"right","rt":923.5,"correct":false,"confidence":3},{"trial_n":71,"n_dots":2.25,"target":"right","response":"left","rt":505.79999995232,"correct":false,"confidence":5},{"trial_n":72,"n_dots":2.35,"target":"right","response":"right","rt":572.79999995232,"correct":true,"confidence":3},{"trial_n":73,"n_dots":2.35,"target":"right","response":"right","rt":442.79999995232,"correct":true,"confidence":6},{"trial_n":74,"n_dots":2.25,"target":"right","response":"right","rt":566.09999990463,"correct":true,"confidence":5},{"trial_n":75,"n_dots":2.25,"target":"left","response":"left","rt":409.29999995232,"correct":true,"confidence":6},{"trial_n":76,"n_dots":2.15,"target":"left","response":"left","rt":515.79999995232,"correct":true,"confidence":2},{"trial_n":77,"n_dots":2.15,"target":"left","response":"left","rt":618.5,"correct":true,"confidence":1},{"trial_n":78,"n_dots":2.05,"target":"left","response":"right","rt":511.80000019073,"correct":false,"confidence":6},{"trial_n":79,"n_dots":2.15,"target":"left","response":"right","rt":497.10000014305,"correct":false,"confidence":4},{"trial_n":80,"n_dots":2.25,"target":"right","response":"right","rt":391,"correct":true,"confidence":6},{"trial_n":81,"n_dots":2.25,"target":"left","response":"left","rt":580.10000014305,"correct":true,"confidence":4},{"trial_n":82,"n_dots":2.15,"target":"right","response":"right","rt":474.59999990463,"correct":true,"confidence":6},{"trial_n":83,"n_dots":2.15,"target":"left","response":"left","rt":667.09999990463,"correct":true,"confidence":4},{"trial_n":84,"n_dots":2.05,"target":"left","response":"left","rt":985.30000019073,"correct":true,"confidence":1},{"trial_n":85,"n_dots":2.05,"target":"right","response":"right","rt":801,"correct":true,"confidence":2},{"trial_n":86,"n_dots":1.95,"target":"left","response":"left","rt":614,"correct":true,"confidence":5},{"trial_n":87,"n_dots":1.95,"target":"right","response":"left","rt":607.10000014305,"correct":false,"confidence":6},{"trial_n":88,"n_dots":2.05,"target":"right","response":"left","rt":564.90000009537,"correct":false,"confidence":4},{"trial_n":89,"n_dots":2.15,"target":"left","response":"left","rt":650.10000014305,"correct":true,"confidence":2},{"trial_n":90,"n_dots":2.15,"target":"left","response":"right","rt":792.70000004768,"correct":false,"confidence":1},{"trial_n":91,"n_dots":2.25,"target":"left","response":"right","rt":860.79999995232,"correct":false,"confidence":4},{"trial_n":92,"n_dots":2.35,"target":"right","response":"right","rt":562.39999985695,"correct":true,"confidence":6},{"trial_n":93,"n_dots":2.35,"target":"left","response":"left","rt":285.90000009537,"correct":true,"confidence":6},{"trial_n":94,"n_dots":2.25,"target":"right","response":"right","rt":787.5,"correct":true,"confidence":2},{"trial_n":95,"n_dots":2.25,"target":"left","response":"left","rt":920.20000004768,"correct":true,"confidence":1},{"trial_n":96,"n_dots":2.15,"target":"left","response":"left","rt":761.40000009537,"correct":true,"confidence":5},{"trial_n":97,"n_dots":2.15,"target":"left","response":"left","rt":664.5,"correct":true,"confidence":6},{"trial_n":98,"n_dots":2.05,"target":"right","response":"left","rt":658.30000019073,"correct":false,"confidence":6},{"trial_n":99,"n_dots":2.15,"target":"left","response":"left","rt":593.79999995232,"correct":true,"confidence":3},{"trial_n":100,"n_dots":2.15,"target":"left","response":"right","rt":542.70000004768,"correct":false,"confidence":6},{"trial_n":101,"n_dots":2.25,"target":"right","response":"left","rt":661.29999995232,"correct":false,"confidence":2},{"trial_n":102,"n_dots":2.35,"target":"right","response":"right","rt":626.59999990463,"correct":true,"confidence":6},{"trial_n":103,"n_dots":2.35,"target":"right","response":"left","rt":740.20000004768,"correct":false,"confidence":3},{"trial_n":104,"n_dots":2.45,"target":"left","response":"left","rt":913.29999995232,"correct":true,"confidence":2},{"trial_n":105,"n_dots":2.45,"target":"left","response":"left","rt":662.20000004768,"correct":true,"confidence":6},{"trial_n":106,"n_dots":2.35,"target":"left","response":"left","rt":705.5,"correct":true,"confidence":5},{"trial_n":107,"n_dots":2.35,"target":"left","response":"left","rt":1421.4000000954,"correct":true,"confidence":2},{"trial_n":108,"n_dots":2.25,"target":"left","response":"right","rt":1158.3000001907,"correct":false,"confidence":1},{"trial_n":109,"n_dots":2.35,"target":"left","response":"left","rt":497,"correct":true,"confidence":4},{"trial_n":110,"n_dots":2.35,"target":"right","response":"right","rt":497.30000019073,"correct":true,"confidence":6},{"trial_n":111,"n_dots":2.25,"target":"left","response":"right","rt":693.10000014305,"correct":false,"confidence":2},{"trial_n":112,"n_dots":2.35,"target":"left","response":"left","rt":522.70000004768,"correct":true,"confidence":3},{"trial_n":113,"n_dots":2.35,"target":"right","response":"left","rt":604.5,"correct":false,"confidence":4},{"trial_n":114,"n_dots":2.45,"target":"left","response":"right","rt":458.5,"correct":false,"confidence":5},{"trial_n":115,"n_dots":2.55,"target":"right","response":"left","rt":725.20000004768,"correct":false,"confidence":3},{"trial_n":116,"n_dots":2.65,"target":"right","response":"left","rt":524.20000004768,"correct":false,"confidence":2},{"trial_n":117,"n_dots":2.75,"target":"left","response":"left","rt":559.70000004768,"correct":true,"confidence":3},{"trial_n":118,"n_dots":2.75,"target":"left","response":"left","rt":677.80000019073,"correct":true,"confidence":1},{"trial_n":119,"n_dots":2.65,"target":"left","response":"right","rt":489.30000019073,"correct":false,"confidence":6},{"trial_n":120,"n_dots":2.75,"target":"right","response":"right","rt":686.60000014305,"correct":true,"confidence":5},{"trial_n":121,"n_dots":2.75,"target":"left","response":"left","rt":584.20000004768,"correct":true,"confidence":6},{"trial_n":122,"n_dots":2.65,"target":"right","response":"left","rt":789.29999995232,"correct":false,"confidence":1},{"trial_n":123,"n_dots":2.75,"target":"right","response":"right","rt":443.60000014305,"correct":true,"confidence":6},{"trial_n":124,"n_dots":2.75,"target":"right","response":"right","rt":738.40000009537,"correct":true,"confidence":3},{"trial_n":125,"n_dots":2.65,"target":"left","response":"right","rt":727.5,"correct":false,"confidence":1},{"trial_n":126,"n_dots":2.75,"target":"right","response":"left","rt":552.09999990463,"correct":false,"confidence":5},{"trial_n":127,"n_dots":2.85,"target":"right","response":"right","rt":515.30000019073,"correct":true,"confidence":6},{"trial_n":128,"n_dots":2.85,"target":"right","response":"left","rt":983.5,"correct":false,"confidence":2},{"trial_n":129,"n_dots":2.95,"target":"right","response":"right","rt":350.80000019073,"correct":true,"confidence":6},{"trial_n":130,"n_dots":2.95,"target":"left","response":"right","rt":612.10000014305,"correct":false,"confidence":5},{"trial_n":131,"n_dots":3.05,"target":"right","response":"left","rt":684.5,"correct":false,"confidence":2},{"trial_n":132,"n_dots":3.15,"target":"left","response":"right","rt":541.10000014305,"correct":false,"confidence":1},{"trial_n":133,"n_dots":3.25,"target":"left","response":"left","rt":524.20000004768,"correct":true,"confidence":3},{"trial_n":134,"n_dots":3.25,"target":"left","response":"left","rt":438.40000009537,"correct":true,"confidence":6},{"trial_n":135,"n_dots":3.15,"target":"left","response":"right","rt":1320.8000001907,"correct":false,"confidence":1},{"trial_n":136,"n_dots":3.25,"target":"right","response":"left","rt":965.80000019073,"correct":false,"confidence":5},{"trial_n":137,"n_dots":3.35,"target":"left","response":"left","rt":502.5,"correct":true,"confidence":6},{"trial_n":138,"n_dots":3.35,"target":"left","response":"left","rt":312.70000004768,"correct":true,"confidence":4},{"trial_n":139,"n_dots":3.25,"target":"right","response":"right","rt":574.09999990463,"correct":true,"confidence":6},{"trial_n":140,"n_dots":3.25,"target":"right","response":"left","rt":1797.2000000477,"correct":false,"confidence":1},{"trial_n":141,"n_dots":3.35,"target":"left","response":"left","rt":592.70000004768,"correct":true,"confidence":6},{"trial_n":142,"n_dots":3.35,"target":"left","response":"left","rt":371,"correct":true,"confidence":4},{"trial_n":143,"n_dots":3.25,"target":"left","response":"left","rt":515.30000019073,"correct":true,"confidence":6},{"trial_n":144,"n_dots":3.25,"target":"left","response":"left","rt":450.70000004768,"correct":true,"confidence":5},{"trial_n":145,"n_dots":3.15,"target":"right","response":"right","rt":950.30000019073,"correct":true,"confidence":3},{"trial_n":146,"n_dots":3.15,"target":"right","response":"right","rt":381.20000004768,"correct":true,"confidence":6},{"trial_n":147,"n_dots":3.05,"target":"left","response":"left","rt":707.30000019073,"correct":true,"confidence":6},{"trial_n":148,"n_dots":3.05,"target":"right","response":"left","rt":686.5,"correct":false,"confidence":5},{"trial_n":149,"n_dots":3.15,"target":"left","response":"left","rt":985.30000019073,"correct":true,"confidence":2},{"trial_n":150,"n_dots":3.15,"target":"right","response":"right","rt":419.20000004768,"correct":true,"confidence":5},{"trial_n":151,"n_dots":3.05,"target":"left","response":"left","rt":649.70000004768,"correct":true,"confidence":5},{"trial_n":152,"n_dots":3.05,"target":"left","response":"right","rt":578,"correct":false,"confidence":6},{"trial_n":153,"n_dots":3.15,"target":"right","response":"right","rt":262.10000014305,"correct":true,"confidence":5},{"trial_n":154,"n_dots":3.15,"target":"right","response":"right","rt":500.5,"correct":true,"confidence":4},{"trial_n":155,"n_dots":3.05,"target":"left","response":"right","rt":986.60000014305,"correct":false,"confidence":3},{"trial_n":156,"n_dots":3.15,"target":"left","response":"left","rt":502.20000004768,"correct":true,"confidence":6},{"trial_n":157,"n_dots":3.15,"target":"right","response":"left","rt":435.90000009537,"correct":false,"confidence":2},{"trial_n":158,"n_dots":3.25,"target":"right","response":"left","rt":434,"correct":false,"confidence":3},{"trial_n":159,"n_dots":3.35,"target":"right","response":"right","rt":340.10000014305,"correct":true,"confidence":5},{"trial_n":160,"n_dots":3.35,"target":"right","response":"right","rt":397.20000004768,"correct":true,"confidence":2},{"trial_n":161,"n_dots":3.25,"target":"left","response":"left","rt":555.60000014305,"correct":true,"confidence":1},{"trial_n":162,"n_dots":3.25,"target":"right","response":"right","rt":416.30000019073,"correct":true,"confidence":6},{"trial_n":163,"n_dots":3.15,"target":"left","response":"left","rt":537,"correct":true,"confidence":4},{"trial_n":164,"n_dots":3.15,"target":"right","response":"left","rt":622.09999990463,"correct":false,"confidence":5},{"trial_n":165,"n_dots":3.25,"target":"right","response":"right","rt":435.5,"correct":true,"confidence":6},{"trial_n":166,"n_dots":3.25,"target":"right","response":"left","rt":423.20000004768,"correct":false,"confidence":3},{"trial_n":167,"n_dots":3.35,"target":"left","response":"left","rt":708.70000004768,"correct":true,"confidence":4},{"trial_n":168,"n_dots":3.35,"target":"left","response":"left","rt":740.10000014305,"correct":true,"confidence":2},{"trial_n":169,"n_dots":3.25,"target":"right","response":"left","rt":568.80000019073,"correct":false,"confidence":4},{"trial_n":170,"n_dots":3.35,"target":"left","response":"left","rt":622.5,"correct":true,"confidence":4},{"trial_n":171,"n_dots":3.35,"target":"left","response":"left","rt":389,"correct":true,"confidence":5},{"trial_n":172,"n_dots":3.25,"target":"left","response":"left","rt":468.5,"correct":true,"confidence":6},{"trial_n":173,"n_dots":3.25,"target":"left","response":"left","rt":644.89999985695,"correct":true,"confidence":3},{"trial_n":174,"n_dots":3.15,"target":"left","response":"left","rt":386.60000014305,"correct":true,"confidence":4},{"trial_n":175,"n_dots":3.15,"target":"right","response":"right","rt":329.59999990463,"correct":true,"confidence":6},{"trial_n":176,"n_dots":3.05,"target":"right","response":"left","rt":897.70000004768,"correct":false,"confidence":1},{"trial_n":177,"n_dots":3.15,"target":"left","response":"left","rt":1328.7000000477,"correct":true,"confidence":2},{"trial_n":178,"n_dots":3.15,"target":"right","response":"right","rt":511.59999990463,"correct":true,"confidence":5},{"trial_n":179,"n_dots":3.05,"target":"right","response":"right","rt":410.29999995232,"correct":true,"confidence":4},{"trial_n":180,"n_dots":3.05,"target":"right","response":"right","rt":440.60000014305,"correct":true,"confidence":6},{"trial_n":181,"n_dots":2.95,"target":"right","response":"right","rt":314,"correct":true,"confidence":5},{"trial_n":182,"n_dots":2.95,"target":"right","response":"right","rt":1047,"correct":true,"confidence":2},{"trial_n":183,"n_dots":2.85,"target":"right","response":"right","rt":1017.4000000954,"correct":true,"confidence":1},{"trial_n":184,"n_dots":2.85,"target":"right","response":"right","rt":356.70000004768,"correct":true,"confidence":5},{"trial_n":185,"n_dots":2.75,"target":"left","response":"left","rt":806.20000004768,"correct":true,"confidence":4},{"trial_n":186,"n_dots":2.75,"target":"left","response":"right","rt":1353,"correct":false,"confidence":1},{"trial_n":187,"n_dots":2.85,"target":"right","response":"right","rt":358.20000004768,"correct":true,"confidence":4},{"trial_n":188,"n_dots":2.85,"target":"right","response":"right","rt":564.09999990463,"correct":true,"confidence":6},{"trial_n":189,"n_dots":2.75,"target":"right","response":"left","rt":479.90000009537,"correct":false,"confidence":5},{"trial_n":190,"n_dots":2.85,"target":"right","response":"right","rt":768.5,"correct":true,"confidence":3},{"trial_n":191,"n_dots":2.85,"target":"left","response":"left","rt":598.70000004768,"correct":true,"confidence":6},{"trial_n":192,"n_dots":2.75,"target":"right","response":"left","rt":2252.9000000954,"correct":false,"confidence":2},{"trial_n":193,"n_dots":2.85,"target":"left","response":"left","rt":712,"correct":true,"confidence":4},{"trial_n":194,"n_dots":2.85,"target":"left","response":"left","rt":457.09999990463,"correct":true,"confidence":5}]