[{"trial_n":1,"n_dots":4.25,"target":"left","response":"right","rt":13087,"correct":false,"confidence":-1},{"trial_n":2,"n_dots":4.25,"target":"right","response":"right","rt":963,"correct":true,"confidence":-1},{"trial_n":3,"n_dots":4.25,"target":"right","response":"right","rt":524,"correct":true,"confidence":-1},{"trial_n":4,"n_dots":3.85,"target":"right","response":"right","rt":572,"correct":true,"confidence":-1},{"trial_n":5,"n_dots":3.85,"target":"left","response":"left","rt":540,"correct":true,"confidence":-1},{"trial_n":6,"n_dots":3.45,"target":"right","response":"right","rt":411,"correct":true,"confidence":-1},{"trial_n":7,"n_dots":3.45,"target":"right","response":"right","rt":500,"correct":true,"confidence":-1},{"trial_n":8,"n_dots":3.25,"target":"left","response":"left","rt":731,"correct":true,"confidence":-1},{"trial_n":9,"n_dots":3.25,"target":"left","response":"left","rt":570,"correct":true,"confidence":-1},{"trial_n":10,"n_dots":3.05,"target":"right","response":"right","rt":410,"correct":true,"confidence":-1},{"trial_n":11,"n_dots":3.05,"target":"left","response":"right","rt":1123,"correct":false,"confidence":-1},{"trial_n":12,"n_dots":3.25,"target":"left","response":"left","rt":957,"correct":true,"confidence":-1},{"trial_n":13,"n_dots":3.25,"target":"left","response":"right","rt":940,"correct":false,"confidence":-1},{"trial_n":14,"n_dots":3.35,"target":"left","response":"right","rt":835,"correct":false,"confidence":-1},{"trial_n":15,"n_dots":3.45,"target":"right","response":"right","rt":619,"correct":true,"confidence":-1},{"trial_n":16,"n_dots":3.45,"target":"right","response":"right","rt":819,"correct":true,"confidence":-1},{"trial_n":17,"n_dots":3.35,"target":"left","response":"left","rt":708,"correct":true,"confidence":-1},{"trial_n":18,"n_dots":3.35,"target":"right","response":"left","rt":548,"correct":false,"confidence":-1},{"trial_n":19,"n_dots":3.45,"target":"right","response":"right","rt":540,"correct":true,"confidence":-1},{"trial_n":20,"n_dots":3.45,"target":"left","response":"left","rt":562,"correct":true,"confidence":-1},{"trial_n":21,"n_dots":3.35,"target":"right","response":"right","rt":437,"correct":true,"confidence":-1},{"trial_n":22,"n_dots":3.35,"target":"right","response":"right","rt":450,"correct":true,"confidence":-1},{"trial_n":23,"n_dots":3.25,"target":"left","response":"left","rt":481,"correct":true,"confidence":-1},{"trial_n":24,"n_dots":3.25,"target":"left","response":"left","rt":2003,"correct":true,"confidence":-1},{"trial_n":25,"n_dots":3.15,"target":"right","response":"right","rt":420,"correct":true,"confidence":-1},{"trial_n":26,"n_dots":3.15,"target":"right","response":"right","rt":444,"correct":true,"confidence":-1},{"trial_n":27,"n_dots":3.05,"target":"right","response":"right","rt":425,"correct":true,"confidence":6},{"trial_n":28,"n_dots":3.05,"target":"left","response":"left","rt":696,"correct":true,"confidence":4},{"trial_n":29,"n_dots":2.95,"target":"right","response":"left","rt":816,"correct":false,"confidence":4},{"trial_n":30,"n_dots":3.05,"target":"right","response":"right","rt":513,"correct":true,"confidence":5},{"trial_n":31,"n_dots":3.05,"target":"left","response":"left","rt":417,"correct":true,"confidence":6},{"trial_n":32,"n_dots":2.95,"target":"right","response":"right","rt":911,"correct":true,"confidence":3},{"trial_n":33,"n_dots":2.95,"target":"left","response":"left","rt":504,"correct":true,"confidence":6},{"trial_n":34,"n_dots":2.85,"target":"left","response":"left","rt":497,"correct":true,"confidence":6},{"trial_n":35,"n_dots":2.85,"target":"left","response":"right","rt":480,"correct":false,"confidence":4},{"trial_n":36,"n_dots":2.95,"target":"left","response":"left","rt":456,"correct":true,"confidence":5},{"trial_n":37,"n_dots":2.95,"target":"right","response":"right","rt":1910,"correct":true,"confidence":2},{"trial_n":38,"n_dots":2.85,"target":"right","response":"right","rt":585,"correct":true,"confidence":4},{"trial_n":39,"n_dots":2.85,"target":"left","response":"left","rt":481,"correct":true,"confidence":4},{"trial_n":40,"n_dots":2.75,"target":"right","response":"left","rt":1152,"correct":false,"confidence":3},{"trial_n":41,"n_dots":2.85,"target":"right","response":"left","rt":624,"correct":false,"confidence":5},{"trial_n":42,"n_dots":2.95,"target":"left","response":"right","rt":1072,"correct":false,"confidence":3},{"trial_n":43,"n_dots":3.05,"target":"left","response":"right","rt":586,"correct":false,"confidence":4},{"trial_n":44,"n_dots":3.15,"target":"right","response":"right","rt":528,"correct":true,"confidence":5},{"trial_n":45,"n_dots":3.15,"target":"right","response":"right","rt":602,"correct":true,"confidence":4},{"trial_n":46,"n_dots":3.05,"target":"right","response":"right","rt":582,"correct":true,"confidence":4},{"trial_n":47,"n_dots":3.05,"target":"right","response":"right","rt":576,"correct":true,"confidence":5},{"trial_n":48,"n_dots":2.95,"target":"right","response":"right","rt":2047,"correct":true,"confidence":3},{"trial_n":49,"n_dots":2.95,"target":"right","response":"left","rt":1398,"correct":false,"confidence":3},{"trial_n":50,"n_dots":3.05,"target":"left","response":"right","rt":862,"correct":false,"confidence":2},{"trial_n":51,"n_dots":3.15,"target":"right","response":"right","rt":1070,"correct":true,"confidence":4},{"trial_n":52,"n_dots":3.15,"target":"left","response":"right","rt":1072,"correct":false,"confidence":4},{"trial_n":53,"n_dots":3.25,"target":"left","response":"left","rt":560,"correct":true,"confidence":6},{"trial_n":54,"n_dots":3.25,"target":"right","response":"right","rt":3794,"correct":true,"confidence":3},{"trial_n":55,"n_dots":3.15,"target":"left","response":"left","rt":536,"correct":true,"confidence":6},{"trial_n":56,"n_dots":3.15,"target":"right","response":"right","rt":584,"correct":true,"confidence":5},{"trial_n":57,"n_dots":3.05,"target":"right","response":"right","rt":512,"correct":true,"confidence":5},{"trial_n":58,"n_dots":3.05,"target":"left","response":"left","rt":471,"correct":true,"confidence":4},{"trial_n":59,"n_dots":2.95,"target":"right","response":"right","rt":416,"correct":true,"confidence":5},{"trial_n":60,"n_dots":2.95,"target":"right","response":"right","rt":1231,"correct":true,"confidence":3},{"trial_n":61,"n_dots":2.85,"target":"right","response":"right","rt":513,"correct":true,"confidence":2},{"trial_n":62,"n_dots":2.85,"target":"left","response":"left","rt":455,"correct":true,"confidence":5},{"trial_n":63,"n_dots":2.75,"target":"left","response":"left","rt":504,"correct":true,"confidence":5},{"trial_n":64,"n_dots":2.75,"target":"left","response":"left","rt":464,"correct":true,"confidence":6},{"trial_n":65,"n_dots":2.65,"target":"right","response":"left","rt":1473,"correct":false,"confidence":2},{"trial_n":66,"n_dots":2.75,"target":"left","response":"left","rt":489,"correct":true,"confidence":6},{"trial_n":67,"n_dots":2.75,"target":"right","response":"left","rt":1951,"correct":false,"confidence":5},{"trial_n":68,"n_dots":2.85,"target":"right","response":"right","rt":1169,"correct":true,"confidence":1},{"trial_n":69,"n_dots":2.85,"target":"left","response":"left","rt":481,"correct":true,"confidence":6},{"trial_n":70,"n_dots":2.75,"target":"right","response":"right","rt":769,"correct":true,"confidence":5},{"trial_n":71,"n_dots":2.75,"target":"left","response":"right","rt":512,"correct":false,"confidence":5},{"trial_n":72,"n_dots":2.85,"target":"left","response":"right","rt":2328,"correct":false,"confidence":2},{"trial_n":73,"n_dots":2.95,"target":"right","response":"right","rt":434,"correct":true,"confidence":5},{"trial_n":74,"n_dots":2.95,"target":"right","response":"left","rt":456,"correct":false,"confidence":4},{"trial_n":75,"n_dots":3.05,"target":"right","response":"right","rt":410,"correct":true,"confidence":5},{"trial_n":76,"n_dots":3.05,"target":"right","response":"left","rt":1336,"correct":false,"confidence":1},{"trial_n":77,"n_dots":3.15,"target":"left","response":"left","rt":418,"correct":true,"confidence":6},{"trial_n":78,"n_dots":3.15,"target":"left","response":"left","rt":433,"correct":true,"confidence":5},{"trial_n":79,"n_dots":3.05,"target":"left","response":"left","rt":537,"correct":true,"confidence":5},{"trial_n":80,"n_dots":3.05,"target":"left","response":"left","rt":624,"correct":true,"confidence":5},{"trial_n":81,"n_dots":2.95,"target":"right","response":"right","rt":1233,"correct":true,"confidence":2},{"trial_n":82,"n_dots":2.95,"target":"left","response":"left","rt":447,"correct":true,"confidence":5},{"trial_n":83,"n_dots":2.85,"target":"right","response":"left","rt":641,"correct":false,"confidence":4},{"trial_n":84,"n_dots":2.95,"target":"left","response":"left","rt":417,"correct":true,"confidence":5},{"trial_n":85,"n_dots":2.95,"target":"right","response":"left","rt":561,"correct":false,"confidence":4},{"trial_n":86,"n_dots":3.05,"target":"left","response":"left","rt":424,"correct":true,"confidence":4},{"trial_n":87,"n_dots":3.05,"target":"right","response":"left","rt":464,"correct":false,"confidence":5},{"trial_n":88,"n_dots":3.15,"target":"left","response":"left","rt":402,"correct":true,"confidence":5},{"trial_n":89,"n_dots":3.15,"target":"right","response":"right","rt":391,"correct":true,"confidence":6},{"trial_n":90,"n_dots":3.05,"target":"left","response":"left","rt":440,"correct":true,"confidence":5},{"trial_n":91,"n_dots":3.05,"target":"right","response":"right","rt":505,"correct":true,"confidence":4},{"trial_n":92,"n_dots":2.95,"target":"left","response":"left","rt":368,"correct":true,"confidence":4},{"trial_n":93,"n_dots":2.95,"target":"right","response":"left","rt":457,"correct":false,"confidence":5},{"trial_n":94,"n_dots":3.05,"target":"right","response":"left","rt":433,"correct":false,"confidence":3},{"trial_n":95,"n_dots":3.15,"target":"right","response":"right","rt":425,"correct":true,"confidence":4},{"trial_n":96,"n_dots":3.15,"target":"right","response":"left","rt":560,"correct":false,"confidence":3},{"trial_n":97,"n_dots":3.25,"target":"right","response":"right","rt":347,"correct":true,"confidence":6},{"trial_n":98,"n_dots":3.25,"target":"right","response":"right","rt":1160,"correct":true,"confidence":6},{"trial_n":99,"n_dots":3.15,"target":"left","response":"left","rt":616,"correct":true,"confidence":4},{"trial_n":100,"n_dots":3.15,"target":"left","response":"left","rt":473,"correct":true,"confidence":4},{"trial_n":101,"n_dots":3.05,"target":"left","response":"left","rt":314,"correct":true,"confidence":5},{"trial_n":102,"n_dots":3.05,"target":"right","response":"right","rt":368,"correct":true,"confidence":5},{"trial_n":103,"n_dots":2.95,"target":"right","response":"right","rt":353,"correct":true,"confidence":6},{"trial_n":104,"n_dots":2.95,"target":"left","response":"right","rt":432,"correct":false,"confidence":3},{"trial_n":105,"n_dots":3.05,"target":"left","response":"left","rt":642,"correct":true,"confidence":4},{"trial_n":106,"n_dots":3.05,"target":"right","response":"right","rt":599,"correct":true,"confidence":6},{"trial_n":107,"n_dots":2.95,"target":"left","response":"left","rt":801,"correct":true,"confidence":6},{"trial_n":108,"n_dots":2.95,"target":"right","response":"left","rt":801,"correct":false,"confidence":4},{"trial_n":109,"n_dots":3.05,"target":"left","response":"left","rt":579,"correct":true,"confidence":3},{"trial_n":110,"n_dots":3.05,"target":"left","response":"left","rt":823,"correct":true,"confidence":5},{"trial_n":111,"n_dots":2.95,"target":"left","response":"left","rt":593,"correct":true,"confidence":4},{"trial_n":112,"n_dots":2.95,"target":"left","response":"left","rt":488,"correct":true,"confidence":6},{"trial_n":113,"n_dots":2.85,"target":"left","response":"left","rt":465,"correct":true,"confidence":5},{"trial_n":114,"n_dots":2.85,"target":"left","response":"left","rt":609,"correct":true,"confidence":5},{"trial_n":115,"n_dots":2.75,"target":"right","response":"left","rt":904,"correct":false,"confidence":5},{"trial_n":116,"n_dots":2.85,"target":"left","response":"left","rt":377,"correct":true,"confidence":6},{"trial_n":117,"n_dots":2.85,"target":"right","response":"right","rt":2671,"correct":true,"confidence":1},{"trial_n":118,"n_dots":2.75,"target":"left","response":"left","rt":449,"correct":true,"confidence":6},{"trial_n":119,"n_dots":2.75,"target":"left","response":"left","rt":671,"correct":true,"confidence":6},{"trial_n":120,"n_dots":2.65,"target":"right","response":"right","rt":416,"correct":true,"confidence":6},{"trial_n":121,"n_dots":2.65,"target":"left","response":"left","rt":464,"correct":true,"confidence":5},{"trial_n":122,"n_dots":2.55,"target":"left","response":"left","rt":433,"correct":true,"confidence":5},{"trial_n":123,"n_dots":2.55,"target":"left","response":"left","rt":489,"correct":true,"confidence":4},{"trial_n":124,"n_dots":2.45,"target":"right","response":"right","rt":385,"correct":true,"confidence":6},{"trial_n":125,"n_dots":2.45,"target":"left","response":"left","rt":736,"correct":true,"confidence":5},{"trial_n":126,"n_dots":2.35,"target":"right","response":"right","rt":274,"correct":true,"confidence":6},{"trial_n":127,"n_dots":2.35,"target":"left","response":"right","rt":440,"correct":false,"confidence":6},{"trial_n":128,"n_dots":2.45,"target":"left","response":"right","rt":1447,"correct":false,"confidence":2},{"trial_n":129,"n_dots":2.55,"target":"right","response":"right","rt":432,"correct":true,"confidence":4},{"trial_n":130,"n_dots":2.55,"target":"left","response":"left","rt":408,"correct":true,"confidence":5},{"trial_n":131,"n_dots":2.45,"target":"left","response":"left","rt":465,"correct":true,"confidence":6},{"trial_n":132,"n_dots":2.45,"target":"right","response":"left","rt":745,"correct":false,"confidence":5},{"trial_n":133,"n_dots":2.55,"target":"left","response":"left","rt":344,"correct":true,"confidence":5},{"trial_n":134,"n_dots":2.55,"target":"right","response":"right","rt":424,"correct":true,"confidence":5},{"trial_n":135,"n_dots":2.45,"target":"right","response":"right","rt":360,"correct":true,"confidence":5},{"trial_n":136,"n_dots":2.45,"target":"left","response":"left","rt":535,"correct":true,"confidence":6},{"trial_n":137,"n_dots":2.35,"target":"left","response":"right","rt":313,"correct":false,"confidence":5},{"trial_n":138,"n_dots":2.45,"target":"right","response":"right","rt":350,"correct":true,"confidence":5},{"trial_n":139,"n_dots":2.45,"target":"right","response":"right","rt":426,"correct":true,"confidence":4},{"trial_n":140,"n_dots":2.35,"target":"right","response":"right","rt":439,"correct":true,"confidence":3},{"trial_n":141,"n_dots":2.35,"target":"right","response":"left","rt":622,"correct":false,"confidence":5},{"trial_n":142,"n_dots":2.45,"target":"right","response":"left","rt":2424,"correct":false,"confidence":2},{"trial_n":143,"n_dots":2.55,"target":"left","response":"right","rt":1929,"correct":false,"confidence":5},{"trial_n":144,"n_dots":2.65,"target":"left","response":"right","rt":1063,"correct":false,"confidence":6},{"trial_n":145,"n_dots":2.75,"target":"left","response":"left","rt":531,"correct":true,"confidence":6},{"trial_n":146,"n_dots":2.75,"target":"left","response":"left","rt":904,"correct":true,"confidence":4},{"trial_n":147,"n_dots":2.65,"target":"right","response":"left","rt":798,"correct":false,"confidence":4},{"trial_n":148,"n_dots":2.75,"target":"left","response":"left","rt":544,"correct":true,"confidence":5},{"trial_n":149,"n_dots":2.75,"target":"left","response":"left","rt":355,"correct":true,"confidence":6},{"trial_n":150,"n_dots":2.65,"target":"left","response":"left","rt":398,"correct":true,"confidence":4},{"trial_n":151,"n_dots":2.65,"target":"right","response":"right","rt":336,"correct":true,"confidence":4},{"trial_n":152,"n_dots":2.55,"target":"right","response":"left","rt":519,"correct":false,"confidence":6},{"trial_n":153,"n_dots":2.65,"target":"right","response":"left","rt":1112,"correct":false,"confidence":4},{"trial_n":154,"n_dots":2.75,"target":"left","response":"left","rt":602,"correct":true,"confidence":5},{"trial_n":155,"n_dots":2.75,"target":"right","response":"left","rt":439,"correct":false,"confidence":4},{"trial_n":156,"n_dots":2.85,"target":"left","response":"left","rt":481,"correct":true,"confidence":3},{"trial_n":157,"n_dots":2.85,"target":"left","response":"left","rt":514,"correct":true,"confidence":3},{"trial_n":158,"n_dots":2.75,"target":"left","response":"left","rt":526,"correct":true,"confidence":4},{"trial_n":159,"n_dots":2.75,"target":"right","response":"left","rt":464,"correct":false,"confidence":5},{"trial_n":160,"n_dots":2.85,"target":"right","response":"left","rt":462,"correct":false,"confidence":4},{"trial_n":161,"n_dots":2.95,"target":"left","response":"left","rt":312,"correct":true,"confidence":3},{"trial_n":162,"n_dots":2.95,"target":"right","response":"left","rt":359,"correct":false,"confidence":2},{"trial_n":163,"n_dots":3.05,"target":"right","response":"right","rt":1255,"correct":true,"confidence":5},{"trial_n":164,"n_dots":3.05,"target":"left","response":"left","rt":391,"correct":true,"confidence":6},{"trial_n":165,"n_dots":2.95,"target":"right","response":"left","rt":441,"correct":false,"confidence":5},{"trial_n":166,"n_dots":3.05,"target":"right","response":"left","rt":759,"correct":false,"confidence":4},{"trial_n":167,"n_dots":3.15,"target":"left","response":"left","rt":471,"correct":true,"confidence":6},{"trial_n":168,"n_dots":3.15,"target":"left","response":"left","rt":545,"correct":true,"confidence":5},{"trial_n":169,"n_dots":3.05,"target":"right","response":"left","rt":394,"correct":false,"confidence":3},{"trial_n":170,"n_dots":3.15,"target":"left","response":"left","rt":359,"correct":true,"confidence":6},{"trial_n":171,"n_dots":3.15,"target":"right","response":"left","rt":1064,"correct":false,"confidence":4},{"trial_n":172,"n_dots":3.25,"target":"left","response":"left","rt":480,"correct":true,"confidence":6},{"trial_n":173,"n_dots":3.25,"target":"right","response":"right","rt":384,"correct":true,"confidence":4},{"trial_n":174,"n_dots":3.15,"target":"left","response":"left","rt":217,"correct":true,"confidence":5},{"trial_n":175,"n_dots":3.15,"target":"left","response":"left","rt":407,"correct":true,"confidence":6},{"trial_n":176,"n_dots":3.05,"target":"right","response":"right","rt":528,"correct":true,"confidence":4},{"trial_n":177,"n_dots":3.05,"target":"right","response":"left","rt":528,"correct":false,"confidence":6},{"trial_n":178,"n_dots":3.15,"target":"left","response":"left","rt":287,"correct":true,"confidence":6},{"trial_n":179,"n_dots":3.15,"target":"left","response":"left","rt":536,"correct":true,"confidence":6},{"trial_n":180,"n_dots":3.05,"target":"left","response":"left","rt":160,"correct":true,"confidence":6},{"trial_n":181,"n_dots":3.05,"target":"right","response":"right","rt":456,"correct":true,"confidence":4},{"trial_n":182,"n_dots":2.95,"target":"left","response":"left","rt":393,"correct":true,"confidence":5},{"trial_n":183,"n_dots":2.95,"target":"right","response":"right","rt":457,"correct":true,"confidence":6},{"trial_n":184,"n_dots":2.85,"target":"left","response":"left","rt":504,"correct":true,"confidence":5},{"trial_n":185,"n_dots":2.85,"target":"right","response":"left","rt":639,"correct":false,"confidence":6},{"trial_n":186,"n_dots":2.95,"target":"right","response":"left","rt":576,"correct":false,"confidence":4},{"trial_n":187,"n_dots":3.05,"target":"left","response":"left","rt":361,"correct":true,"confidence":6},{"trial_n":188,"n_dots":3.05,"target":"right","response":"right","rt":351,"correct":true,"confidence":4},{"trial_n":189,"n_dots":2.95,"target":"left","response":"left","rt":305,"correct":true,"confidence":3},{"trial_n":190,"n_dots":2.95,"target":"right","response":"left","rt":704,"correct":false,"confidence":4},{"trial_n":191,"n_dots":3.05,"target":"left","response":"left","rt":784,"correct":true,"confidence":6},{"trial_n":192,"n_dots":3.05,"target":"right","response":"right","rt":1256,"correct":true,"confidence":4},{"trial_n":193,"n_dots":2.95,"target":"right","response":"left","rt":575,"correct":false,"confidence":4},{"trial_n":194,"n_dots":3.05,"target":"left","response":"left","rt":438,"correct":true,"confidence":6}]