[{"trial_n":1,"n_dots":4.25,"target":"right","response":"left","rt":2911,"correct":false,"confidence":-1},{"trial_n":2,"n_dots":4.25,"target":"left","response":"left","rt":545,"correct":true,"confidence":-1},{"trial_n":3,"n_dots":4.25,"target":"left","response":"left","rt":389,"correct":true,"confidence":-1},{"trial_n":4,"n_dots":3.85,"target":"right","response":"right","rt":534,"correct":true,"confidence":-1},{"trial_n":5,"n_dots":3.85,"target":"right","response":"right","rt":491,"correct":true,"confidence":-1},{"trial_n":6,"n_dots":3.45,"target":"right","response":"left","rt":262,"correct":false,"confidence":-1},{"trial_n":7,"n_dots":3.85,"target":"left","response":"right","rt":180,"correct":false,"confidence":-1},{"trial_n":8,"n_dots":4.05,"target":"right","response":"right","rt":88,"correct":true,"confidence":-1},{"trial_n":9,"n_dots":4.05,"target":"left","response":"left","rt":125,"correct":true,"confidence":-1},{"trial_n":10,"n_dots":3.85,"target":"left","response":"left","rt":134,"correct":true,"confidence":-1},{"trial_n":11,"n_dots":3.85,"target":"left","response":"left","rt":5946,"correct":true,"confidence":-1},{"trial_n":12,"n_dots":3.65,"target":"right","response":"right","rt":436,"correct":true,"confidence":-1},{"trial_n":13,"n_dots":3.65,"target":"right","response":"right","rt":991,"correct":true,"confidence":-1},{"trial_n":14,"n_dots":3.55,"target":"left","response":"left","rt":137,"correct":true,"confidence":-1},{"trial_n":15,"n_dots":3.55,"target":"left","response":"left","rt":12,"correct":true,"confidence":-1},{"trial_n":16,"n_dots":3.45,"target":"right","response":"right","rt":2081,"correct":true,"confidence":-1},{"trial_n":17,"n_dots":3.45,"target":"right","response":"left","rt":781,"correct":false,"confidence":-1},{"trial_n":18,"n_dots":3.55,"target":"right","response":"right","rt":696,"correct":true,"confidence":-1},{"trial_n":19,"n_dots":3.55,"target":"right","response":"right","rt":468,"correct":true,"confidence":-1},{"trial_n":20,"n_dots":3.45,"target":"right","response":"right","rt":581,"correct":true,"confidence":-1},{"trial_n":21,"n_dots":3.45,"target":"right","response":"right","rt":549,"correct":true,"confidence":-1},{"trial_n":22,"n_dots":3.35,"target":"left","response":"left","rt":428,"correct":true,"confidence":-1},{"trial_n":23,"n_dots":3.35,"target":"left","response":"left","rt":463,"correct":true,"confidence":-1},{"trial_n":24,"n_dots":3.25,"target":"left","response":"left","rt":58,"correct":true,"confidence":-1},{"trial_n":25,"n_dots":3.25,"target":"right","response":"right","rt":789,"correct":true,"confidence":-1},{"trial_n":26,"n_dots":3.15,"target":"right","response":"left","rt":521,"correct":false,"confidence":-1},{"trial_n":27,"n_dots":3.25,"target":"right","response":"right","rt":515,"correct":true,"confidence":4},{"trial_n":28,"n_dots":3.25,"target":"left","response":"left","rt":2911,"correct":true,"confidence":6},{"trial_n":29,"n_dots":3.15,"target":"left","response":"left","rt":547,"correct":true,"confidence":6},{"trial_n":30,"n_dots":3.15,"target":"left","response":"left","rt":609,"correct":true,"confidence":6},{"trial_n":31,"n_dots":3.05,"target":"right","response":"right","rt":1042,"correct":true,"confidence":4},{"trial_n":32,"n_dots":3.05,"target":"right","response":"left","rt":400,"correct":false,"confidence":4},{"trial_n":33,"n_dots":3.15,"target":"left","response":"left","rt":317,"correct":true,"confidence":6},{"trial_n":34,"n_dots":3.15,"target":"left","response":"left","rt":109,"correct":true,"confidence":6},{"trial_n":35,"n_dots":3.05,"target":"right","response":"right","rt":781,"correct":true,"confidence":6},{"trial_n":36,"n_dots":3.05,"target":"left","response":"left","rt":112,"correct":true,"confidence":6},{"trial_n":37,"n_dots":2.95,"target":"right","response":"left","rt":882,"correct":false,"confidence":6},{"trial_n":38,"n_dots":3.05,"target":"left","response":"left","rt":4035,"correct":true,"confidence":6},{"trial_n":39,"n_dots":3.05,"target":"left","response":"right","rt":780,"correct":false,"confidence":4},{"trial_n":40,"n_dots":3.15,"target":"right","response":"right","rt":850,"correct":true,"confidence":6},{"trial_n":41,"n_dots":3.15,"target":"left","response":"left","rt":225,"correct":true,"confidence":6},{"trial_n":42,"n_dots":3.05,"target":"left","response":"left","rt":1250,"correct":true,"confidence":6},{"trial_n":43,"n_dots":3.05,"target":"left","response":"left","rt":2173,"correct":true,"confidence":6},{"trial_n":44,"n_dots":2.95,"target":"right","response":"right","rt":793,"correct":true,"confidence":6},{"trial_n":45,"n_dots":2.95,"target":"left","response":"left","rt":127,"correct":true,"confidence":6},{"trial_n":46,"n_dots":2.85,"target":"left","response":"left","rt":857,"correct":true,"confidence":6},{"trial_n":47,"n_dots":2.85,"target":"left","response":"left","rt":4699,"correct":true,"confidence":6},{"trial_n":48,"n_dots":2.75,"target":"right","response":"right","rt":626,"correct":true,"confidence":6},{"trial_n":49,"n_dots":2.75,"target":"right","response":"right","rt":316,"correct":true,"confidence":6},{"trial_n":50,"n_dots":2.65,"target":"right","response":"right","rt":1180,"correct":true,"confidence":6},{"trial_n":51,"n_dots":2.65,"target":"left","response":"left","rt":124,"correct":true,"confidence":6},{"trial_n":52,"n_dots":2.55,"target":"left","response":"right","rt":107,"correct":false,"confidence":6},{"trial_n":53,"n_dots":2.65,"target":"right","response":"right","rt":76,"correct":true,"confidence":4},{"trial_n":54,"n_dots":2.65,"target":"left","response":"left","rt":152,"correct":true,"confidence":6},{"trial_n":55,"n_dots":2.55,"target":"right","response":"right","rt":450,"correct":true,"confidence":6},{"trial_n":56,"n_dots":2.55,"target":"right","response":"right","rt":131,"correct":true,"confidence":6},{"trial_n":57,"n_dots":2.45,"target":"left","response":"left","rt":786,"correct":true,"confidence":6},{"trial_n":58,"n_dots":2.45,"target":"right","response":"right","rt":541,"correct":true,"confidence":6},{"trial_n":59,"n_dots":2.35,"target":"right","response":"left","rt":801,"correct":false,"confidence":6},{"trial_n":60,"n_dots":2.45,"target":"right","response":"right","rt":5379,"correct":true,"confidence":6},{"trial_n":61,"n_dots":2.45,"target":"right","response":"right","rt":474,"correct":true,"confidence":5},{"trial_n":62,"n_dots":2.35,"target":"right","response":"right","rt":503,"correct":true,"confidence":6},{"trial_n":63,"n_dots":2.35,"target":"left","response":"left","rt":599,"correct":true,"confidence":6},{"trial_n":64,"n_dots":2.25,"target":"left","response":"right","rt":1954,"correct":false,"confidence":6},{"trial_n":65,"n_dots":2.35,"target":"left","response":"right","rt":672,"correct":false,"confidence":6},{"trial_n":66,"n_dots":2.45,"target":"left","response":"left","rt":689,"correct":true,"confidence":6},{"trial_n":67,"n_dots":2.45,"target":"right","response":"right","rt":1605,"correct":true,"confidence":6},{"trial_n":68,"n_dots":2.35,"target":"left","response":"right","rt":10788,"correct":false,"confidence":6},{"trial_n":69,"n_dots":2.45,"target":"right","response":"right","rt":996,"correct":true,"confidence":4},{"trial_n":70,"n_dots":2.45,"target":"right","response":"right","rt":84,"correct":true,"confidence":6},{"trial_n":71,"n_dots":2.35,"target":"right","response":"right","rt":45,"correct":true,"confidence":6},{"trial_n":72,"n_dots":2.35,"target":"right","response":"left","rt":147,"correct":false,"confidence":6},{"trial_n":73,"n_dots":2.45,"target":"right","response":"left","rt":402,"correct":false,"confidence":6},{"trial_n":74,"n_dots":2.55,"target":"right","response":"left","rt":1615,"correct":false,"confidence":6},{"trial_n":75,"n_dots":2.65,"target":"left","response":"left","rt":105,"correct":true,"confidence":6},{"trial_n":76,"n_dots":2.65,"target":"left","response":"left","rt":152,"correct":true,"confidence":6},{"trial_n":77,"n_dots":2.55,"target":"right","response":"right","rt":17,"correct":true,"confidence":6},{"trial_n":78,"n_dots":2.55,"target":"right","response":"left","rt":1189,"correct":false,"confidence":6},{"trial_n":79,"n_dots":2.65,"target":"right","response":"left","rt":-3,"correct":false,"confidence":6},{"trial_n":80,"n_dots":2.75,"target":"right","response":"left","rt":1130,"correct":false,"confidence":5},{"trial_n":81,"n_dots":2.85,"target":"right","response":"left","rt":158,"correct":false,"confidence":6},{"trial_n":82,"n_dots":2.95,"target":"left","response":"left","rt":86,"correct":true,"confidence":6},{"trial_n":83,"n_dots":2.95,"target":"left","response":"left","rt":49,"correct":true,"confidence":6},{"trial_n":84,"n_dots":2.85,"target":"left","response":"right","rt":1388,"correct":false,"confidence":6},{"trial_n":85,"n_dots":2.95,"target":"left","response":"right","rt":683,"correct":false,"confidence":5},{"trial_n":86,"n_dots":3.05,"target":"right","response":"left","rt":18,"correct":false,"confidence":6},{"trial_n":87,"n_dots":3.15,"target":"right","response":"left","rt":852,"correct":false,"confidence":5},{"trial_n":88,"n_dots":3.25,"target":"right","response":"right","rt":757,"correct":true,"confidence":6},{"trial_n":89,"n_dots":3.25,"target":"right","response":"right","rt":9713,"correct":true,"confidence":6},{"trial_n":90,"n_dots":3.15,"target":"right","response":"right","rt":701,"correct":true,"confidence":6},{"trial_n":91,"n_dots":3.15,"target":"left","response":"left","rt":196,"correct":true,"confidence":6},{"trial_n":92,"n_dots":3.05,"target":"right","response":"left","rt":596,"correct":false,"confidence":6},{"trial_n":93,"n_dots":3.15,"target":"left","response":"right","rt":561,"correct":false,"confidence":5},{"trial_n":94,"n_dots":3.25,"target":"right","response":"right","rt":280,"correct":true,"confidence":6},{"trial_n":95,"n_dots":3.25,"target":"left","response":"left","rt":448,"correct":true,"confidence":6},{"trial_n":96,"n_dots":3.15,"target":"left","response":"left","rt":544,"correct":true,"confidence":5},{"trial_n":97,"n_dots":3.15,"target":"right","response":"left","rt":314,"correct":false,"confidence":5},{"trial_n":98,"n_dots":3.25,"target":"left","response":"left","rt":687,"correct":true,"confidence":6},{"trial_n":99,"n_dots":3.25,"target":"left","response":"left","rt":392,"correct":true,"confidence":6},{"trial_n":100,"n_dots":3.15,"target":"left","response":"left","rt":449,"correct":true,"confidence":5},{"trial_n":101,"n_dots":3.15,"target":"left","response":"left","rt":423,"correct":true,"confidence":6},{"trial_n":102,"n_dots":3.05,"target":"left","response":"left","rt":353,"correct":true,"confidence":6},{"trial_n":103,"n_dots":3.05,"target":"right","response":"left","rt":274,"correct":false,"confidence":6},{"trial_n":104,"n_dots":3.15,"target":"left","response":"right","rt":11804,"correct":false,"confidence":5},{"trial_n":105,"n_dots":3.25,"target":"left","response":"left","rt":804,"correct":true,"confidence":5},{"trial_n":106,"n_dots":3.25,"target":"left","response":"left","rt":861,"correct":true,"confidence":4},{"trial_n":107,"n_dots":3.15,"target":"right","response":"right","rt":776,"correct":true,"confidence":5},{"trial_n":108,"n_dots":3.15,"target":"right","response":"right","rt":498,"correct":true,"confidence":5},{"trial_n":109,"n_dots":3.05,"target":"right","response":"right","rt":617,"correct":true,"confidence":5},{"trial_n":110,"n_dots":3.05,"target":"right","response":"right","rt":761,"correct":true,"confidence":5},{"trial_n":111,"n_dots":2.95,"target":"left","response":"left","rt":2890,"correct":true,"confidence":4},{"trial_n":112,"n_dots":2.95,"target":"right","response":"right","rt":365,"correct":true,"confidence":1},{"trial_n":113,"n_dots":2.85,"target":"right","response":"right","rt":491,"correct":true,"confidence":5},{"trial_n":114,"n_dots":2.85,"target":"right","response":"left","rt":47,"correct":false,"confidence":5},{"trial_n":115,"n_dots":2.95,"target":"left","response":"left","rt":247,"correct":true,"confidence":5},{"trial_n":116,"n_dots":2.95,"target":"left","response":"left","rt":261,"correct":true,"confidence":1},{"trial_n":117,"n_dots":2.85,"target":"right","response":"left","rt":539,"correct":false,"confidence":6},{"trial_n":118,"n_dots":2.95,"target":"right","response":"right","rt":942,"correct":true,"confidence":6},{"trial_n":119,"n_dots":2.95,"target":"left","response":"left","rt":21,"correct":true,"confidence":6},{"trial_n":120,"n_dots":2.85,"target":"right","response":"right","rt":420,"correct":true,"confidence":6},{"trial_n":121,"n_dots":2.85,"target":"right","response":"right","rt":351,"correct":true,"confidence":6},{"trial_n":122,"n_dots":2.75,"target":"right","response":"right","rt":599,"correct":true,"confidence":6},{"trial_n":123,"n_dots":2.75,"target":"right","response":"right","rt":159,"correct":true,"confidence":6},{"trial_n":124,"n_dots":2.65,"target":"right","response":"left","rt":1006,"correct":false,"confidence":6},{"trial_n":125,"n_dots":2.75,"target":"right","response":"right","rt":141,"correct":true,"confidence":5},{"trial_n":126,"n_dots":2.75,"target":"left","response":"left","rt":334,"correct":true,"confidence":6},{"trial_n":127,"n_dots":2.65,"target":"left","response":"right","rt":237,"correct":false,"confidence":6},{"trial_n":128,"n_dots":2.75,"target":"left","response":"right","rt":378,"correct":false,"confidence":6},{"trial_n":129,"n_dots":2.85,"target":"right","response":"right","rt":52,"correct":true,"confidence":6},{"trial_n":130,"n_dots":2.85,"target":"left","response":"left","rt":185,"correct":true,"confidence":6},{"trial_n":131,"n_dots":2.75,"target":"right","response":"left","rt":49,"correct":false,"confidence":6},{"trial_n":132,"n_dots":2.85,"target":"left","response":"right","rt":7680,"correct":false,"confidence":6},{"trial_n":133,"n_dots":2.95,"target":"left","response":"right","rt":2086,"correct":false,"confidence":6},{"trial_n":134,"n_dots":3.05,"target":"right","response":"left","rt":152,"correct":false,"confidence":6},{"trial_n":135,"n_dots":3.15,"target":"left","response":"right","rt":868,"correct":false,"confidence":4},{"trial_n":136,"n_dots":3.25,"target":"right","response":"right","rt":205,"correct":true,"confidence":4},{"trial_n":137,"n_dots":3.25,"target":"right","response":"right","rt":689,"correct":true,"confidence":4},{"trial_n":138,"n_dots":3.15,"target":"left","response":"left","rt":193,"correct":true,"confidence":4},{"trial_n":139,"n_dots":3.15,"target":"right","response":"right","rt":146,"correct":true,"confidence":4},{"trial_n":140,"n_dots":3.05,"target":"right","response":"right","rt":669,"correct":true,"confidence":4},{"trial_n":141,"n_dots":3.05,"target":"left","response":"left","rt":697,"correct":true,"confidence":4},{"trial_n":142,"n_dots":2.95,"target":"right","response":"right","rt":98,"correct":true,"confidence":6},{"trial_n":143,"n_dots":2.95,"target":"left","response":"right","rt":458,"correct":false,"confidence":6},{"trial_n":144,"n_dots":3.05,"target":"left","response":"left","rt":270,"correct":true,"confidence":6},{"trial_n":145,"n_dots":3.05,"target":"left","response":"right","rt":2027,"correct":false,"confidence":5},{"trial_n":146,"n_dots":3.15,"target":"right","response":"right","rt":751,"correct":true,"confidence":5},{"trial_n":147,"n_dots":3.15,"target":"left","response":"right","rt":135,"correct":false,"confidence":4},{"trial_n":148,"n_dots":3.25,"target":"right","response":"right","rt":654,"correct":true,"confidence":6},{"trial_n":149,"n_dots":3.25,"target":"right","response":"right","rt":154,"correct":true,"confidence":6},{"trial_n":150,"n_dots":3.15,"target":"right","response":"right","rt":184,"correct":true,"confidence":6},{"trial_n":151,"n_dots":3.15,"target":"left","response":"right","rt":116,"correct":false,"confidence":6},{"trial_n":152,"n_dots":3.25,"target":"right","response":"right","rt":233,"correct":true,"confidence":6},{"trial_n":153,"n_dots":3.25,"target":"right","response":"left","rt":5960,"correct":false,"confidence":3},{"trial_n":154,"n_dots":3.35,"target":"left","response":"right","rt":412,"correct":false,"confidence":5},{"trial_n":155,"n_dots":3.45,"target":"left","response":"left","rt":224,"correct":true,"confidence":3},{"trial_n":156,"n_dots":3.45,"target":"left","response":"right","rt":1674,"correct":false,"confidence":5},{"trial_n":157,"n_dots":3.55,"target":"left","response":"left","rt":33002,"correct":true,"confidence":5},{"trial_n":158,"n_dots":3.55,"target":"left","response":"right","rt":425,"correct":false,"confidence":5},{"trial_n":159,"n_dots":3.65,"target":"right","response":"right","rt":475,"correct":true,"confidence":5},{"trial_n":160,"n_dots":3.65,"target":"left","response":"right","rt":6123,"correct":false,"confidence":6},{"trial_n":161,"n_dots":3.75,"target":"left","response":"right","rt":4064,"correct":false,"confidence":5},{"trial_n":162,"n_dots":3.85,"target":"right","response":"left","rt":550,"correct":false,"confidence":6},{"trial_n":163,"n_dots":3.95,"target":"right","response":"right","rt":1187,"correct":true,"confidence":5},{"trial_n":164,"n_dots":3.95,"target":"left","response":"right","rt":221,"correct":false,"confidence":5},{"trial_n":165,"n_dots":4.05,"target":"left","response":"left","rt":448,"correct":true,"confidence":4},{"trial_n":166,"n_dots":4.05,"target":"right","response":"right","rt":311,"correct":true,"confidence":5},{"trial_n":167,"n_dots":3.95,"target":"right","response":"right","rt":1525,"correct":true,"confidence":5},{"trial_n":168,"n_dots":3.95,"target":"left","response":"left","rt":435,"correct":true,"confidence":6},{"trial_n":169,"n_dots":3.85,"target":"left","response":"left","rt":23,"correct":true,"confidence":6},{"trial_n":170,"n_dots":3.85,"target":"right","response":"right","rt":1355,"correct":true,"confidence":6},{"trial_n":171,"n_dots":3.75,"target":"left","response":"left","rt":246,"correct":true,"confidence":6},{"trial_n":172,"n_dots":3.75,"target":"left","response":"left","rt":106,"correct":true,"confidence":6},{"trial_n":173,"n_dots":3.65,"target":"left","response":"left","rt":144,"correct":true,"confidence":6},{"trial_n":174,"n_dots":3.65,"target":"left","response":"left","rt":364,"correct":true,"confidence":6},{"trial_n":175,"n_dots":3.55,"target":"left","response":"left","rt":132,"correct":true,"confidence":6},{"trial_n":176,"n_dots":3.55,"target":"left","response":"right","rt":3360,"correct":false,"confidence":5},{"trial_n":177,"n_dots":3.65,"target":"left","response":"right","rt":413,"correct":false,"confidence":5},{"trial_n":178,"n_dots":3.75,"target":"left","response":"left","rt":295,"correct":true,"confidence":5},{"trial_n":179,"n_dots":3.75,"target":"left","response":"left","rt":538,"correct":true,"confidence":5},{"trial_n":180,"n_dots":3.65,"target":"right","response":"right","rt":279,"correct":true,"confidence":6},{"trial_n":181,"n_dots":3.65,"target":"left","response":"left","rt":598,"correct":true,"confidence":6},{"trial_n":182,"n_dots":3.55,"target":"right","response":"left","rt":217,"correct":false,"confidence":6},{"trial_n":183,"n_dots":3.65,"target":"left","response":"left","rt":60,"correct":true,"confidence":6},{"trial_n":184,"n_dots":3.65,"target":"right","response":"right","rt":8097,"correct":true,"confidence":6},{"trial_n":185,"n_dots":3.55,"target":"left","response":"left","rt":4906,"correct":true,"confidence":6},{"trial_n":186,"n_dots":3.55,"target":"left","response":"right","rt":258,"correct":false,"confidence":6},{"trial_n":187,"n_dots":3.65,"target":"right","response":"left","rt":15753,"correct":false,"confidence":6},{"trial_n":188,"n_dots":3.75,"target":"left","response":"right","rt":3458,"correct":false,"confidence":6},{"trial_n":189,"n_dots":3.85,"target":"left","response":"left","rt":785,"correct":true,"confidence":6},{"trial_n":190,"n_dots":3.85,"target":"right","response":"left","rt":187,"correct":false,"confidence":6},{"trial_n":191,"n_dots":3.95,"target":"right","response":"right","rt":239,"correct":true,"confidence":6},{"trial_n":192,"n_dots":3.95,"target":"right","response":"right","rt":386,"correct":true,"confidence":6},{"trial_n":193,"n_dots":3.85,"target":"right","response":"right","rt":269,"correct":true,"confidence":6},{"trial_n":194,"n_dots":3.85,"target":"left","response":"left","rt":122,"correct":true,"confidence":6}]