[{"trial_n":1,"n_dots":4.25,"target":"left","response":"left","rt":9111.6999999881,"correct":true,"confidence":-1},{"trial_n":2,"n_dots":4.25,"target":"right","response":"right","rt":1413.4000000358,"correct":true,"confidence":-1},{"trial_n":3,"n_dots":3.85,"target":"right","response":"right","rt":893.69999998808,"correct":true,"confidence":-1},{"trial_n":4,"n_dots":3.85,"target":"left","response":"left","rt":1266.5,"correct":true,"confidence":-1},{"trial_n":5,"n_dots":3.45,"target":"left","response":"right","rt":1136,"correct":false,"confidence":-1},{"trial_n":6,"n_dots":3.85,"target":"left","response":"left","rt":961.30000001192,"correct":true,"confidence":-1},{"trial_n":7,"n_dots":3.85,"target":"right","response":"right","rt":914.5,"correct":true,"confidence":-1},{"trial_n":8,"n_dots":3.65,"target":"left","response":"right","rt":690.39999997616,"correct":false,"confidence":-1},{"trial_n":9,"n_dots":3.85,"target":"left","response":"left","rt":577.30000001192,"correct":true,"confidence":-1},{"trial_n":10,"n_dots":3.85,"target":"right","response":"right","rt":436.69999998808,"correct":true,"confidence":-1},{"trial_n":11,"n_dots":3.65,"target":"right","response":"right","rt":460.5,"correct":true,"confidence":-1},{"trial_n":12,"n_dots":3.65,"target":"right","response":"right","rt":568.89999997616,"correct":true,"confidence":-1},{"trial_n":13,"n_dots":3.55,"target":"left","response":"left","rt":199,"correct":true,"confidence":-1},{"trial_n":14,"n_dots":3.55,"target":"right","response":"right","rt":362,"correct":true,"confidence":-1},{"trial_n":15,"n_dots":3.45,"target":"left","response":"left","rt":874.90000003576,"correct":true,"confidence":-1},{"trial_n":16,"n_dots":3.45,"target":"right","response":"right","rt":509.5,"correct":true,"confidence":-1},{"trial_n":17,"n_dots":3.35,"target":"left","response":"right","rt":529.40000003576,"correct":false,"confidence":-1},{"trial_n":18,"n_dots":3.45,"target":"right","response":"right","rt":618.80000001192,"correct":true,"confidence":-1},{"trial_n":19,"n_dots":3.45,"target":"left","response":"right","rt":396.30000001192,"correct":false,"confidence":-1},{"trial_n":20,"n_dots":3.55,"target":"left","response":"left","rt":438.59999996424,"correct":true,"confidence":-1},{"trial_n":21,"n_dots":3.55,"target":"left","response":"left","rt":464.09999996424,"correct":true,"confidence":-1},{"trial_n":22,"n_dots":3.45,"target":"left","response":"left","rt":367.89999997616,"correct":true,"confidence":-1},{"trial_n":23,"n_dots":3.45,"target":"right","response":"right","rt":472.30000001192,"correct":true,"confidence":-1},{"trial_n":24,"n_dots":3.35,"target":"right","response":"right","rt":595.40000003576,"correct":true,"confidence":-1},{"trial_n":25,"n_dots":3.35,"target":"left","response":"left","rt":496.19999998808,"correct":true,"confidence":-1},{"trial_n":26,"n_dots":3.25,"target":"left","response":"left","rt":884.89999997616,"correct":true,"confidence":-1},{"trial_n":27,"n_dots":3.25,"target":"left","response":"left","rt":1103.6999999881,"correct":true,"confidence":4},{"trial_n":28,"n_dots":3.15,"target":"right","response":"left","rt":1674.4000000358,"correct":false,"confidence":5},{"trial_n":29,"n_dots":3.25,"target":"right","response":"right","rt":747.5,"correct":true,"confidence":6},{"trial_n":30,"n_dots":3.25,"target":"left","response":"left","rt":1137.8000000119,"correct":true,"confidence":5},{"trial_n":31,"n_dots":3.15,"target":"left","response":"left","rt":861.60000002384,"correct":true,"confidence":5},{"trial_n":32,"n_dots":3.15,"target":"right","response":"right","rt":1047.5999999642,"correct":true,"confidence":5},{"trial_n":33,"n_dots":3.05,"target":"right","response":"right","rt":892.5,"correct":true,"confidence":6},{"trial_n":34,"n_dots":3.05,"target":"left","response":"left","rt":1092.0999999642,"correct":true,"confidence":3},{"trial_n":35,"n_dots":2.95,"target":"right","response":"right","rt":1097.3000000119,"correct":true,"confidence":4},{"trial_n":36,"n_dots":2.95,"target":"right","response":"right","rt":710.39999997616,"correct":true,"confidence":5},{"trial_n":37,"n_dots":2.85,"target":"left","response":"left","rt":1792.7999999523,"correct":true,"confidence":3},{"trial_n":38,"n_dots":2.85,"target":"right","response":"right","rt":529.69999998808,"correct":true,"confidence":5},{"trial_n":39,"n_dots":2.75,"target":"right","response":"right","rt":380.60000002384,"correct":true,"confidence":6},{"trial_n":40,"n_dots":2.75,"target":"left","response":"left","rt":365.19999998808,"correct":true,"confidence":5},{"trial_n":41,"n_dots":2.65,"target":"right","response":"left","rt":404.80000001192,"correct":false,"confidence":4},{"trial_n":42,"n_dots":2.75,"target":"right","response":"right","rt":347.90000003576,"correct":true,"confidence":6},{"trial_n":43,"n_dots":2.75,"target":"left","response":"left","rt":549.09999996424,"correct":true,"confidence":4},{"trial_n":44,"n_dots":2.65,"target":"left","response":"right","rt":398.19999998808,"correct":false,"confidence":5},{"trial_n":45,"n_dots":2.75,"target":"right","response":"left","rt":666.5,"correct":false,"confidence":3},{"trial_n":46,"n_dots":2.85,"target":"right","response":"right","rt":379.89999997616,"correct":true,"confidence":5},{"trial_n":47,"n_dots":2.85,"target":"left","response":"right","rt":453.69999998808,"correct":false,"confidence":5},{"trial_n":48,"n_dots":2.95,"target":"right","response":"right","rt":548.19999998808,"correct":true,"confidence":4},{"trial_n":49,"n_dots":2.95,"target":"right","response":"right","rt":1909.8999999762,"correct":true,"confidence":2},{"trial_n":50,"n_dots":2.85,"target":"left","response":"left","rt":992.19999998808,"correct":true,"confidence":3},{"trial_n":51,"n_dots":2.85,"target":"right","response":"right","rt":632,"correct":true,"confidence":4},{"trial_n":52,"n_dots":2.75,"target":"right","response":"right","rt":414.80000001192,"correct":true,"confidence":4},{"trial_n":53,"n_dots":2.75,"target":"right","response":"right","rt":386.90000003576,"correct":true,"confidence":5},{"trial_n":54,"n_dots":2.65,"target":"right","response":"left","rt":4235,"correct":false,"confidence":2},{"trial_n":55,"n_dots":2.75,"target":"right","response":"right","rt":385.29999995232,"correct":true,"confidence":4},{"trial_n":56,"n_dots":2.75,"target":"right","response":"right","rt":497.39999997616,"correct":true,"confidence":4},{"trial_n":57,"n_dots":2.65,"target":"right","response":"left","rt":1206.5,"correct":false,"confidence":3},{"trial_n":58,"n_dots":2.75,"target":"left","response":"right","rt":441.19999998808,"correct":false,"confidence":5},{"trial_n":59,"n_dots":2.85,"target":"left","response":"right","rt":430.09999996424,"correct":false,"confidence":6},{"trial_n":60,"n_dots":2.95,"target":"left","response":"left","rt":1153.6999999881,"correct":true,"confidence":6},{"trial_n":61,"n_dots":2.95,"target":"right","response":"left","rt":4520.1999999881,"correct":false,"confidence":6},{"trial_n":62,"n_dots":3.05,"target":"left","response":"left","rt":1987.2000000477,"correct":true,"confidence":6},{"trial_n":63,"n_dots":3.05,"target":"left","response":"right","rt":657.69999998808,"correct":false,"confidence":5},{"trial_n":64,"n_dots":3.15,"target":"right","response":"right","rt":754.60000002384,"correct":true,"confidence":5},{"trial_n":65,"n_dots":3.15,"target":"right","response":"left","rt":881.90000003576,"correct":false,"confidence":5},{"trial_n":66,"n_dots":3.25,"target":"right","response":"right","rt":554.19999998808,"correct":true,"confidence":5},{"trial_n":67,"n_dots":3.25,"target":"left","response":"left","rt":612.30000001192,"correct":true,"confidence":4},{"trial_n":68,"n_dots":3.15,"target":"right","response":"right","rt":750.80000001192,"correct":true,"confidence":4},{"trial_n":69,"n_dots":3.15,"target":"right","response":"right","rt":805.5,"correct":true,"confidence":4},{"trial_n":70,"n_dots":3.05,"target":"right","response":"right","rt":343.40000003576,"correct":true,"confidence":6},{"trial_n":71,"n_dots":3.05,"target":"right","response":"right","rt":723.69999998808,"correct":true,"confidence":6},{"trial_n":72,"n_dots":2.95,"target":"left","response":"left","rt":472.39999997616,"correct":true,"confidence":3},{"trial_n":73,"n_dots":2.95,"target":"left","response":"left","rt":322.80000001192,"correct":true,"confidence":6},{"trial_n":74,"n_dots":2.85,"target":"left","response":"left","rt":386.5,"correct":true,"confidence":6},{"trial_n":75,"n_dots":2.85,"target":"right","response":"right","rt":995.69999998808,"correct":true,"confidence":3},{"trial_n":76,"n_dots":2.75,"target":"right","response":"left","rt":1909.1000000238,"correct":false,"confidence":3},{"trial_n":77,"n_dots":2.85,"target":"right","response":"left","rt":365.09999996424,"correct":false,"confidence":5},{"trial_n":78,"n_dots":2.95,"target":"left","response":"left","rt":376.10000002384,"correct":true,"confidence":5},{"trial_n":79,"n_dots":2.95,"target":"left","response":"left","rt":452,"correct":true,"confidence":5},{"trial_n":80,"n_dots":2.85,"target":"right","response":"left","rt":551.80000001192,"correct":false,"confidence":4},{"trial_n":81,"n_dots":2.95,"target":"right","response":"right","rt":722.89999997616,"correct":true,"confidence":4},{"trial_n":82,"n_dots":2.95,"target":"right","response":"right","rt":710.09999996424,"correct":true,"confidence":3},{"trial_n":83,"n_dots":2.85,"target":"left","response":"left","rt":441.40000003576,"correct":true,"confidence":3},{"trial_n":84,"n_dots":2.85,"target":"left","response":"left","rt":510.19999998808,"correct":true,"confidence":3},{"trial_n":85,"n_dots":2.75,"target":"left","response":"left","rt":1259.0999999642,"correct":true,"confidence":2},{"trial_n":86,"n_dots":2.75,"target":"left","response":"left","rt":427.5,"correct":true,"confidence":3},{"trial_n":87,"n_dots":2.65,"target":"right","response":"right","rt":522.80000001192,"correct":true,"confidence":4},{"trial_n":88,"n_dots":2.65,"target":"left","response":"right","rt":442.09999996424,"correct":false,"confidence":4},{"trial_n":89,"n_dots":2.75,"target":"right","response":"left","rt":1746.3999999762,"correct":false,"confidence":4},{"trial_n":90,"n_dots":2.85,"target":"left","response":"left","rt":567.80000001192,"correct":true,"confidence":3},{"trial_n":91,"n_dots":2.85,"target":"left","response":"left","rt":586.60000002384,"correct":true,"confidence":4},{"trial_n":92,"n_dots":2.75,"target":"left","response":"left","rt":381.40000003576,"correct":true,"confidence":4},{"trial_n":93,"n_dots":2.75,"target":"right","response":"right","rt":825.40000003576,"correct":true,"confidence":4},{"trial_n":94,"n_dots":2.65,"target":"right","response":"left","rt":4365.3999999762,"correct":false,"confidence":1},{"trial_n":95,"n_dots":2.75,"target":"left","response":"left","rt":256.5,"correct":true,"confidence":6},{"trial_n":96,"n_dots":2.75,"target":"right","response":"left","rt":317.80000001192,"correct":false,"confidence":5},{"trial_n":97,"n_dots":2.85,"target":"left","response":"left","rt":374.69999998808,"correct":true,"confidence":6},{"trial_n":98,"n_dots":2.85,"target":"left","response":"left","rt":410.39999997616,"correct":true,"confidence":5},{"trial_n":99,"n_dots":2.75,"target":"left","response":"left","rt":313.10000002384,"correct":true,"confidence":6},{"trial_n":100,"n_dots":2.75,"target":"right","response":"right","rt":862.39999997616,"correct":true,"confidence":3},{"trial_n":101,"n_dots":2.65,"target":"right","response":"left","rt":619.80000001192,"correct":false,"confidence":4},{"trial_n":102,"n_dots":2.75,"target":"left","response":"left","rt":399.70000004768,"correct":true,"confidence":4},{"trial_n":103,"n_dots":2.75,"target":"right","response":"left","rt":619,"correct":false,"confidence":4},{"trial_n":104,"n_dots":2.85,"target":"left","response":"left","rt":534.5,"correct":true,"confidence":5},{"trial_n":105,"n_dots":2.85,"target":"left","response":"left","rt":421.19999998808,"correct":true,"confidence":5},{"trial_n":106,"n_dots":2.75,"target":"left","response":"left","rt":394.89999997616,"correct":true,"confidence":5},{"trial_n":107,"n_dots":2.75,"target":"right","response":"right","rt":887.80000001192,"correct":true,"confidence":3},{"trial_n":108,"n_dots":2.65,"target":"right","response":"left","rt":304.89999997616,"correct":false,"confidence":4},{"trial_n":109,"n_dots":2.75,"target":"right","response":"right","rt":740.80000001192,"correct":true,"confidence":4},{"trial_n":110,"n_dots":2.75,"target":"left","response":"right","rt":1962.2000000477,"correct":false,"confidence":4},{"trial_n":111,"n_dots":2.85,"target":"right","response":"left","rt":3929.4000000358,"correct":false,"confidence":2},{"trial_n":112,"n_dots":2.95,"target":"left","response":"left","rt":307.59999996424,"correct":true,"confidence":5},{"trial_n":113,"n_dots":2.95,"target":"left","response":"left","rt":524.19999998808,"correct":true,"confidence":5},{"trial_n":114,"n_dots":2.85,"target":"right","response":"right","rt":406.09999996424,"correct":true,"confidence":4},{"trial_n":115,"n_dots":2.85,"target":"left","response":"left","rt":364.19999998808,"correct":true,"confidence":4},{"trial_n":116,"n_dots":2.75,"target":"left","response":"left","rt":586,"correct":true,"confidence":4},{"trial_n":117,"n_dots":2.75,"target":"left","response":"right","rt":1399.6000000238,"correct":false,"confidence":2},{"trial_n":118,"n_dots":2.85,"target":"right","response":"left","rt":1121.1000000238,"correct":false,"confidence":3},{"trial_n":119,"n_dots":2.95,"target":"right","response":"right","rt":181.60000002384,"correct":true,"confidence":3},{"trial_n":120,"n_dots":2.95,"target":"left","response":"left","rt":1042.6999999881,"correct":true,"confidence":4},{"trial_n":121,"n_dots":2.85,"target":"left","response":"right","rt":633.60000002384,"correct":false,"confidence":4},{"trial_n":122,"n_dots":2.95,"target":"right","response":"right","rt":793.39999997616,"correct":true,"confidence":4},{"trial_n":123,"n_dots":2.95,"target":"left","response":"left","rt":308.80000001192,"correct":true,"confidence":5},{"trial_n":124,"n_dots":2.85,"target":"left","response":"right","rt":540.19999998808,"correct":false,"confidence":4},{"trial_n":125,"n_dots":2.95,"target":"left","response":"left","rt":289.29999995232,"correct":true,"confidence":4},{"trial_n":126,"n_dots":2.95,"target":"right","response":"right","rt":314.39999997616,"correct":true,"confidence":5},{"trial_n":127,"n_dots":2.85,"target":"left","response":"left","rt":321,"correct":true,"confidence":4},{"trial_n":128,"n_dots":2.85,"target":"right","response":"left","rt":335.39999997616,"correct":false,"confidence":5},{"trial_n":129,"n_dots":2.95,"target":"left","response":"left","rt":781.89999997616,"correct":true,"confidence":4},{"trial_n":130,"n_dots":2.95,"target":"left","response":"left","rt":286.39999997616,"correct":true,"confidence":4},{"trial_n":131,"n_dots":2.85,"target":"right","response":"right","rt":741.09999996424,"correct":true,"confidence":4},{"trial_n":132,"n_dots":2.85,"target":"left","response":"left","rt":170,"correct":true,"confidence":4},{"trial_n":133,"n_dots":2.75,"target":"right","response":"right","rt":741.5,"correct":true,"confidence":4},{"trial_n":134,"n_dots":2.75,"target":"left","response":"right","rt":932.10000002384,"correct":false,"confidence":4},{"trial_n":135,"n_dots":2.85,"target":"right","response":"left","rt":1118.5999999642,"correct":false,"confidence":4},{"trial_n":136,"n_dots":2.95,"target":"right","response":"left","rt":319.09999996424,"correct":false,"confidence":4},{"trial_n":137,"n_dots":3.05,"target":"right","response":"right","rt":255.70000004768,"correct":true,"confidence":3},{"trial_n":138,"n_dots":3.05,"target":"right","response":"left","rt":264.39999997616,"correct":false,"confidence":4},{"trial_n":139,"n_dots":3.15,"target":"right","response":"left","rt":561.89999997616,"correct":false,"confidence":5},{"trial_n":140,"n_dots":3.25,"target":"right","response":"left","rt":1070.6999999881,"correct":false,"confidence":4},{"trial_n":141,"n_dots":3.35,"target":"right","response":"right","rt":410.30000001192,"correct":true,"confidence":4},{"trial_n":142,"n_dots":3.35,"target":"left","response":"left","rt":768.19999998808,"correct":true,"confidence":4},{"trial_n":143,"n_dots":3.25,"target":"left","response":"right","rt":663.79999995232,"correct":false,"confidence":4},{"trial_n":144,"n_dots":3.35,"target":"left","response":"left","rt":808.60000002384,"correct":true,"confidence":3},{"trial_n":145,"n_dots":3.35,"target":"right","response":"right","rt":659.30000001192,"correct":true,"confidence":5},{"trial_n":146,"n_dots":3.25,"target":"right","response":"right","rt":450.19999998808,"correct":true,"confidence":6},{"trial_n":147,"n_dots":3.25,"target":"left","response":"left","rt":395.60000002384,"correct":true,"confidence":6},{"trial_n":148,"n_dots":3.15,"target":"left","response":"left","rt":428.70000004768,"correct":true,"confidence":5},{"trial_n":149,"n_dots":3.15,"target":"right","response":"right","rt":934.20000004768,"correct":true,"confidence":3},{"trial_n":150,"n_dots":3.05,"target":"right","response":"left","rt":458.5,"correct":false,"confidence":3},{"trial_n":151,"n_dots":3.15,"target":"left","response":"left","rt":434.09999996424,"correct":true,"confidence":4},{"trial_n":152,"n_dots":3.15,"target":"left","response":"left","rt":319.09999996424,"correct":true,"confidence":4},{"trial_n":153,"n_dots":3.05,"target":"left","response":"right","rt":323,"correct":false,"confidence":4},{"trial_n":154,"n_dots":3.15,"target":"left","response":"left","rt":476.80000001192,"correct":true,"confidence":4},{"trial_n":155,"n_dots":3.15,"target":"right","response":"right","rt":353.60000002384,"correct":true,"confidence":6},{"trial_n":156,"n_dots":3.05,"target":"left","response":"left","rt":817.80000001192,"correct":true,"confidence":3},{"trial_n":157,"n_dots":3.05,"target":"right","response":"right","rt":467.60000002384,"correct":true,"confidence":5},{"trial_n":158,"n_dots":2.95,"target":"left","response":"right","rt":371.89999997616,"correct":false,"confidence":3},{"trial_n":159,"n_dots":3.05,"target":"left","response":"left","rt":367.19999998808,"correct":true,"confidence":5},{"trial_n":160,"n_dots":3.05,"target":"left","response":"right","rt":693.19999998808,"correct":false,"confidence":5},{"trial_n":161,"n_dots":3.15,"target":"right","response":"right","rt":491.40000003576,"correct":true,"confidence":4},{"trial_n":162,"n_dots":3.15,"target":"right","response":"right","rt":337.30000001192,"correct":true,"confidence":5},{"trial_n":163,"n_dots":3.05,"target":"left","response":"left","rt":631.40000003576,"correct":true,"confidence":4},{"trial_n":164,"n_dots":3.05,"target":"right","response":"right","rt":338.30000001192,"correct":true,"confidence":6},{"trial_n":165,"n_dots":2.95,"target":"left","response":"left","rt":332.40000003576,"correct":true,"confidence":6},{"trial_n":166,"n_dots":2.95,"target":"right","response":"right","rt":401.19999998808,"correct":true,"confidence":5},{"trial_n":167,"n_dots":2.85,"target":"right","response":"right","rt":352.20000004768,"correct":true,"confidence":5},{"trial_n":168,"n_dots":2.85,"target":"left","response":"right","rt":311.80000001192,"correct":false,"confidence":4},{"trial_n":169,"n_dots":2.95,"target":"left","response":"left","rt":426.5,"correct":true,"confidence":3},{"trial_n":170,"n_dots":2.95,"target":"right","response":"left","rt":306.89999997616,"correct":false,"confidence":4},{"trial_n":171,"n_dots":3.05,"target":"right","response":"right","rt":549.10000002384,"correct":true,"confidence":4},{"trial_n":172,"n_dots":3.05,"target":"right","response":"left","rt":31.600000023842,"correct":false,"confidence":5},{"trial_n":173,"n_dots":3.15,"target":"right","response":"right","rt":316.89999997616,"correct":true,"confidence":6},{"trial_n":174,"n_dots":3.15,"target":"left","response":"left","rt":640.40000003576,"correct":true,"confidence":6},{"trial_n":175,"n_dots":3.05,"target":"left","response":"right","rt":306.19999998808,"correct":false,"confidence":5},{"trial_n":176,"n_dots":3.15,"target":"right","response":"right","rt":488.40000003576,"correct":true,"confidence":5},{"trial_n":177,"n_dots":3.15,"target":"left","response":"left","rt":298.19999998808,"correct":true,"confidence":5},{"trial_n":178,"n_dots":3.05,"target":"left","response":"right","rt":125.30000001192,"correct":false,"confidence":5},{"trial_n":179,"n_dots":3.15,"target":"left","response":"left","rt":232.09999996424,"correct":true,"confidence":5},{"trial_n":180,"n_dots":3.15,"target":"right","response":"right","rt":285,"correct":true,"confidence":5},{"trial_n":181,"n_dots":3.05,"target":"right","response":"right","rt":293.60000002384,"correct":true,"confidence":6},{"trial_n":182,"n_dots":3.05,"target":"right","response":"right","rt":346.60000002384,"correct":true,"confidence":5},{"trial_n":183,"n_dots":2.95,"target":"right","response":"right","rt":418.29999995232,"correct":true,"confidence":4},{"trial_n":184,"n_dots":2.95,"target":"left","response":"left","rt":426.80000001192,"correct":true,"confidence":5},{"trial_n":185,"n_dots":2.85,"target":"left","response":"right","rt":437.19999998808,"correct":false,"confidence":5},{"trial_n":186,"n_dots":2.95,"target":"left","response":"right","rt":411.29999995232,"correct":false,"confidence":6},{"trial_n":187,"n_dots":3.05,"target":"left","response":"left","rt":361.09999996424,"correct":true,"confidence":5},{"trial_n":188,"n_dots":3.05,"target":"left","response":"left","rt":492.5,"correct":true,"confidence":5},{"trial_n":189,"n_dots":2.95,"target":"right","response":"right","rt":450.40000003576,"correct":true,"confidence":5},{"trial_n":190,"n_dots":2.95,"target":"right","response":"right","rt":503.60000002384,"correct":true,"confidence":5},{"trial_n":191,"n_dots":2.85,"target":"right","response":"right","rt":327.5,"correct":true,"confidence":5},{"trial_n":192,"n_dots":2.85,"target":"left","response":"left","rt":353.19999998808,"correct":true,"confidence":4},{"trial_n":193,"n_dots":2.75,"target":"right","response":"right","rt":216.30000001192,"correct":true,"confidence":4},{"trial_n":194,"n_dots":2.75,"target":"left","response":"left","rt":449,"correct":true,"confidence":4}]