[{"trial_n":1,"n_dots":4.25,"target":"right","response":"left","rt":16632.399999976,"correct":false,"confidence":-1},{"trial_n":2,"n_dots":4.25,"target":"right","response":"right","rt":1016.8999999762,"correct":true,"confidence":-1},{"trial_n":3,"n_dots":4.25,"target":"left","response":"left","rt":770.20000004768,"correct":true,"confidence":-1},{"trial_n":4,"n_dots":3.85,"target":"left","response":"left","rt":1195.2000000477,"correct":true,"confidence":-1},{"trial_n":5,"n_dots":3.85,"target":"left","response":"left","rt":566.79999995232,"correct":true,"confidence":-1},{"trial_n":6,"n_dots":3.45,"target":"left","response":"left","rt":704.70000004768,"correct":true,"confidence":-1},{"trial_n":7,"n_dots":3.45,"target":"right","response":"right","rt":509.10000002384,"correct":true,"confidence":-1},{"trial_n":8,"n_dots":3.25,"target":"left","response":"right","rt":434.20000004768,"correct":false,"confidence":-1},{"trial_n":9,"n_dots":3.45,"target":"right","response":"right","rt":434.89999997616,"correct":true,"confidence":-1},{"trial_n":10,"n_dots":3.45,"target":"right","response":"right","rt":497.79999995232,"correct":true,"confidence":-1},{"trial_n":11,"n_dots":3.25,"target":"right","response":"right","rt":514.79999995232,"correct":true,"confidence":-1},{"trial_n":12,"n_dots":3.25,"target":"right","response":"right","rt":496.60000002384,"correct":true,"confidence":-1},{"trial_n":13,"n_dots":3.15,"target":"left","response":"right","rt":564.10000002384,"correct":false,"confidence":-1},{"trial_n":14,"n_dots":3.25,"target":"right","response":"left","rt":451.59999990463,"correct":false,"confidence":-1},{"trial_n":15,"n_dots":3.35,"target":"left","response":"left","rt":680.5,"correct":true,"confidence":-1},{"trial_n":16,"n_dots":3.35,"target":"right","response":"right","rt":458.09999990463,"correct":true,"confidence":-1},{"trial_n":17,"n_dots":3.25,"target":"right","response":"right","rt":541.89999997616,"correct":true,"confidence":-1},{"trial_n":18,"n_dots":3.25,"target":"left","response":"left","rt":700.89999997616,"correct":true,"confidence":-1},{"trial_n":19,"n_dots":3.15,"target":"right","response":"right","rt":506,"correct":true,"confidence":-1},{"trial_n":20,"n_dots":3.15,"target":"left","response":"left","rt":399.19999992847,"correct":true,"confidence":-1},{"trial_n":21,"n_dots":3.05,"target":"right","response":"right","rt":411.10000002384,"correct":true,"confidence":-1},{"trial_n":22,"n_dots":3.05,"target":"right","response":"right","rt":356.40000009537,"correct":true,"confidence":-1},{"trial_n":23,"n_dots":2.95,"target":"right","response":"right","rt":342.5,"correct":true,"confidence":-1},{"trial_n":24,"n_dots":2.95,"target":"left","response":"right","rt":348.30000007153,"correct":false,"confidence":-1},{"trial_n":25,"n_dots":3.05,"target":"left","response":"right","rt":273,"correct":false,"confidence":-1},{"trial_n":26,"n_dots":3.15,"target":"right","response":"left","rt":392.70000004768,"correct":false,"confidence":-1},{"trial_n":27,"n_dots":3.25,"target":"left","response":"left","rt":441.5,"correct":true,"confidence":3},{"trial_n":28,"n_dots":3.25,"target":"left","response":"left","rt":1491.7000000477,"correct":true,"confidence":4},{"trial_n":29,"n_dots":3.15,"target":"right","response":"left","rt":2433.8999999762,"correct":false,"confidence":3},{"trial_n":30,"n_dots":3.25,"target":"left","response":"left","rt":2493.7999999523,"correct":true,"confidence":3},{"trial_n":31,"n_dots":3.25,"target":"left","response":"right","rt":3248.7999999523,"correct":false,"confidence":3},{"trial_n":32,"n_dots":3.35,"target":"left","response":"left","rt":1905.7999999523,"correct":true,"confidence":3},{"trial_n":33,"n_dots":3.35,"target":"right","response":"right","rt":2210.0999999046,"correct":true,"confidence":3},{"trial_n":34,"n_dots":3.25,"target":"left","response":"right","rt":2380.7000000477,"correct":false,"confidence":3},{"trial_n":35,"n_dots":3.35,"target":"right","response":"left","rt":1709.7000000477,"correct":false,"confidence":4},{"trial_n":36,"n_dots":3.45,"target":"right","response":"right","rt":2765,"correct":true,"confidence":4},{"trial_n":37,"n_dots":3.45,"target":"right","response":"right","rt":1303.5,"correct":true,"confidence":4},{"trial_n":38,"n_dots":3.35,"target":"right","response":"right","rt":1928.6000000238,"correct":true,"confidence":3},{"trial_n":39,"n_dots":3.35,"target":"left","response":"left","rt":1951.1999999285,"correct":true,"confidence":4},{"trial_n":40,"n_dots":3.25,"target":"left","response":"left","rt":2211.1999999285,"correct":true,"confidence":3},{"trial_n":41,"n_dots":3.25,"target":"left","response":"left","rt":3271.2000000477,"correct":true,"confidence":3},{"trial_n":42,"n_dots":3.15,"target":"right","response":"left","rt":1935.3000000715,"correct":false,"confidence":3},{"trial_n":43,"n_dots":3.25,"target":"right","response":"right","rt":2565.3000000715,"correct":true,"confidence":3},{"trial_n":44,"n_dots":3.25,"target":"left","response":"left","rt":1652.7999999523,"correct":true,"confidence":3},{"trial_n":45,"n_dots":3.15,"target":"right","response":"right","rt":2620.1000000238,"correct":true,"confidence":3},{"trial_n":46,"n_dots":3.15,"target":"left","response":"left","rt":1798.1000000238,"correct":true,"confidence":4},{"trial_n":47,"n_dots":3.05,"target":"left","response":"right","rt":1486.5,"correct":false,"confidence":4},{"trial_n":48,"n_dots":3.15,"target":"left","response":"left","rt":2111.2999999523,"correct":true,"confidence":3},{"trial_n":49,"n_dots":3.15,"target":"right","response":"left","rt":1445.6999999285,"correct":false,"confidence":4},{"trial_n":50,"n_dots":3.25,"target":"right","response":"right","rt":1620.1000000238,"correct":true,"confidence":3},{"trial_n":51,"n_dots":3.25,"target":"right","response":"right","rt":1281.2000000477,"correct":true,"confidence":4},{"trial_n":52,"n_dots":3.15,"target":"right","response":"left","rt":1486.2000000477,"correct":false,"confidence":4},{"trial_n":53,"n_dots":3.25,"target":"right","response":"right","rt":1538.5,"correct":true,"confidence":3},{"trial_n":54,"n_dots":3.25,"target":"left","response":"left","rt":1604.2000000477,"correct":true,"confidence":5},{"trial_n":55,"n_dots":3.15,"target":"right","response":"right","rt":1454.6000000238,"correct":true,"confidence":4},{"trial_n":56,"n_dots":3.15,"target":"left","response":"left","rt":1540.7999999523,"correct":true,"confidence":3},{"trial_n":57,"n_dots":3.05,"target":"left","response":"right","rt":1701.3999999762,"correct":false,"confidence":5},{"trial_n":58,"n_dots":3.15,"target":"left","response":"left","rt":1450.5,"correct":true,"confidence":1},{"trial_n":59,"n_dots":3.15,"target":"left","response":"left","rt":1506.2999999523,"correct":true,"confidence":3},{"trial_n":60,"n_dots":3.05,"target":"right","response":"right","rt":1544.7999999523,"correct":true,"confidence":4},{"trial_n":61,"n_dots":3.05,"target":"left","response":"left","rt":1494.7000000477,"correct":true,"confidence":3},{"trial_n":62,"n_dots":2.95,"target":"right","response":"right","rt":1281.4000000954,"correct":true,"confidence":4},{"trial_n":63,"n_dots":2.95,"target":"left","response":"left","rt":1586.7000000477,"correct":true,"confidence":4},{"trial_n":64,"n_dots":2.85,"target":"left","response":"left","rt":3269.1000000238,"correct":true,"confidence":2},{"trial_n":65,"n_dots":2.85,"target":"right","response":"left","rt":804.20000004768,"correct":false,"confidence":4},{"trial_n":66,"n_dots":2.95,"target":"left","response":"left","rt":556.10000002384,"correct":true,"confidence":5},{"trial_n":67,"n_dots":2.95,"target":"right","response":"right","rt":2320.2999999523,"correct":true,"confidence":3},{"trial_n":68,"n_dots":2.85,"target":"left","response":"left","rt":1405,"correct":true,"confidence":5},{"trial_n":69,"n_dots":2.85,"target":"left","response":"left","rt":805.79999995232,"correct":true,"confidence":5},{"trial_n":70,"n_dots":2.75,"target":"left","response":"left","rt":1255.1999999285,"correct":true,"confidence":3},{"trial_n":71,"n_dots":2.75,"target":"right","response":"left","rt":2126,"correct":false,"confidence":4},{"trial_n":72,"n_dots":2.85,"target":"right","response":"left","rt":523.90000009537,"correct":false,"confidence":4},{"trial_n":73,"n_dots":2.95,"target":"right","response":"right","rt":10106.899999976,"correct":true,"confidence":2},{"trial_n":74,"n_dots":2.95,"target":"left","response":"left","rt":1212.5,"correct":true,"confidence":3},{"trial_n":75,"n_dots":2.85,"target":"left","response":"left","rt":916.39999997616,"correct":true,"confidence":3},{"trial_n":76,"n_dots":2.85,"target":"left","response":"left","rt":515,"correct":true,"confidence":4},{"trial_n":77,"n_dots":2.75,"target":"left","response":"left","rt":696.79999995232,"correct":true,"confidence":3},{"trial_n":78,"n_dots":2.75,"target":"left","response":"left","rt":500.19999992847,"correct":true,"confidence":4},{"trial_n":79,"n_dots":2.65,"target":"right","response":"left","rt":1153.6999999285,"correct":false,"confidence":3},{"trial_n":80,"n_dots":2.75,"target":"right","response":"right","rt":1709.2999999523,"correct":true,"confidence":4},{"trial_n":81,"n_dots":2.75,"target":"left","response":"left","rt":1698.5,"correct":true,"confidence":4},{"trial_n":82,"n_dots":2.65,"target":"left","response":"left","rt":1776.4000000954,"correct":true,"confidence":3},{"trial_n":83,"n_dots":2.65,"target":"right","response":"left","rt":709.5,"correct":false,"confidence":4},{"trial_n":84,"n_dots":2.75,"target":"left","response":"right","rt":1792.1000000238,"correct":false,"confidence":3},{"trial_n":85,"n_dots":2.85,"target":"left","response":"left","rt":1353.7000000477,"correct":true,"confidence":4},{"trial_n":86,"n_dots":2.85,"target":"left","response":"left","rt":1434.2000000477,"correct":true,"confidence":3},{"trial_n":87,"n_dots":2.75,"target":"left","response":"left","rt":940.29999995232,"correct":true,"confidence":4},{"trial_n":88,"n_dots":2.75,"target":"left","response":"right","rt":1902,"correct":false,"confidence":3},{"trial_n":89,"n_dots":2.85,"target":"left","response":"left","rt":1838.1000000238,"correct":true,"confidence":3},{"trial_n":90,"n_dots":2.85,"target":"left","response":"left","rt":2330,"correct":true,"confidence":3},{"trial_n":91,"n_dots":2.75,"target":"left","response":"left","rt":871.29999995232,"correct":true,"confidence":4},{"trial_n":92,"n_dots":2.75,"target":"right","response":"left","rt":1192.5999999046,"correct":false,"confidence":3},{"trial_n":93,"n_dots":2.85,"target":"left","response":"left","rt":1158.3000000715,"correct":true,"confidence":4},{"trial_n":94,"n_dots":2.85,"target":"right","response":"left","rt":2387.9000000954,"correct":false,"confidence":3},{"trial_n":95,"n_dots":2.95,"target":"right","response":"left","rt":1748.7000000477,"correct":false,"confidence":3},{"trial_n":96,"n_dots":3.05,"target":"left","response":"left","rt":1063.3000000715,"correct":true,"confidence":3},{"trial_n":97,"n_dots":3.05,"target":"left","response":"left","rt":1525.7999999523,"correct":true,"confidence":4},{"trial_n":98,"n_dots":2.95,"target":"left","response":"left","rt":3126.1000000238,"correct":true,"confidence":4},{"trial_n":99,"n_dots":2.95,"target":"right","response":"right","rt":2559.7999999523,"correct":true,"confidence":5},{"trial_n":100,"n_dots":2.85,"target":"right","response":"right","rt":1768.3999999762,"correct":true,"confidence":4},{"trial_n":101,"n_dots":2.85,"target":"left","response":"right","rt":826,"correct":false,"confidence":3},{"trial_n":102,"n_dots":2.95,"target":"right","response":"right","rt":1291.2000000477,"correct":true,"confidence":4},{"trial_n":103,"n_dots":2.95,"target":"left","response":"left","rt":1696.1000000238,"correct":true,"confidence":4},{"trial_n":104,"n_dots":2.85,"target":"right","response":"right","rt":1943.7000000477,"correct":true,"confidence":4},{"trial_n":105,"n_dots":2.85,"target":"right","response":"right","rt":1635.6000000238,"correct":true,"confidence":3},{"trial_n":106,"n_dots":2.75,"target":"right","response":"right","rt":948.5,"correct":true,"confidence":4},{"trial_n":107,"n_dots":2.75,"target":"right","response":"left","rt":2805.2999999523,"correct":false,"confidence":3},{"trial_n":108,"n_dots":2.85,"target":"right","response":"right","rt":1618.2999999523,"correct":true,"confidence":5},{"trial_n":109,"n_dots":2.85,"target":"right","response":"right","rt":1090.1000000238,"correct":true,"confidence":5},{"trial_n":110,"n_dots":2.75,"target":"left","response":"right","rt":1341.5999999046,"correct":false,"confidence":4},{"trial_n":111,"n_dots":2.85,"target":"left","response":"left","rt":1831.4000000954,"correct":true,"confidence":3},{"trial_n":112,"n_dots":2.85,"target":"left","response":"left","rt":706.5,"correct":true,"confidence":4},{"trial_n":113,"n_dots":2.75,"target":"right","response":"right","rt":2094.5,"correct":true,"confidence":5},{"trial_n":114,"n_dots":2.75,"target":"left","response":"left","rt":1638,"correct":true,"confidence":4},{"trial_n":115,"n_dots":2.65,"target":"left","response":"left","rt":718,"correct":true,"confidence":4},{"trial_n":116,"n_dots":2.65,"target":"left","response":"left","rt":898.89999997616,"correct":true,"confidence":4},{"trial_n":117,"n_dots":2.55,"target":"right","response":"right","rt":1922.7999999523,"correct":true,"confidence":3},{"trial_n":118,"n_dots":2.55,"target":"right","response":"left","rt":1477.2999999523,"correct":false,"confidence":4},{"trial_n":119,"n_dots":2.65,"target":"left","response":"left","rt":887.09999990463,"correct":true,"confidence":4},{"trial_n":120,"n_dots":2.65,"target":"left","response":"right","rt":1445.7999999523,"correct":false,"confidence":4},{"trial_n":121,"n_dots":2.75,"target":"left","response":"right","rt":1251.6999999285,"correct":false,"confidence":4},{"trial_n":122,"n_dots":2.85,"target":"left","response":"left","rt":1934.3999999762,"correct":true,"confidence":3},{"trial_n":123,"n_dots":2.85,"target":"right","response":"right","rt":1934.6000000238,"correct":true,"confidence":4},{"trial_n":124,"n_dots":2.75,"target":"left","response":"right","rt":1530.6000000238,"correct":false,"confidence":3},{"trial_n":125,"n_dots":2.85,"target":"right","response":"right","rt":1183.8999999762,"correct":true,"confidence":4},{"trial_n":126,"n_dots":2.85,"target":"left","response":"left","rt":2210.8999999762,"correct":true,"confidence":3},{"trial_n":127,"n_dots":2.75,"target":"right","response":"right","rt":1902.5,"correct":true,"confidence":4},{"trial_n":128,"n_dots":2.75,"target":"right","response":"right","rt":1686.3999999762,"correct":true,"confidence":4},{"trial_n":129,"n_dots":2.65,"target":"left","response":"left","rt":3382.2999999523,"correct":true,"confidence":4},{"trial_n":130,"n_dots":2.65,"target":"left","response":"left","rt":1857.6999999285,"correct":true,"confidence":4},{"trial_n":131,"n_dots":2.55,"target":"right","response":"right","rt":1324.3999999762,"correct":true,"confidence":4},{"trial_n":132,"n_dots":2.55,"target":"right","response":"left","rt":1755.4000000954,"correct":false,"confidence":4},{"trial_n":133,"n_dots":2.65,"target":"right","response":"right","rt":1827.3000000715,"correct":true,"confidence":4},{"trial_n":134,"n_dots":2.65,"target":"right","response":"right","rt":1824.3000000715,"correct":true,"confidence":4},{"trial_n":135,"n_dots":2.55,"target":"left","response":"left","rt":1652.6000000238,"correct":true,"confidence":4},{"trial_n":136,"n_dots":2.55,"target":"left","response":"right","rt":1283,"correct":false,"confidence":4},{"trial_n":137,"n_dots":2.65,"target":"left","response":"left","rt":2252.2999999523,"correct":true,"confidence":4},{"trial_n":138,"n_dots":2.65,"target":"right","response":"right","rt":1397.6999999285,"correct":true,"confidence":4},{"trial_n":139,"n_dots":2.55,"target":"left","response":"right","rt":1944.7999999523,"correct":false,"confidence":4},{"trial_n":140,"n_dots":2.65,"target":"left","response":"right","rt":2281.6999999285,"correct":false,"confidence":3},{"trial_n":141,"n_dots":2.75,"target":"right","response":"right","rt":1818.8999999762,"correct":true,"confidence":5},{"trial_n":142,"n_dots":2.75,"target":"right","response":"right","rt":2135.6999999285,"correct":true,"confidence":4},{"trial_n":143,"n_dots":2.65,"target":"left","response":"right","rt":1920.1000000238,"correct":false,"confidence":3},{"trial_n":144,"n_dots":2.75,"target":"right","response":"right","rt":1605.3999999762,"correct":true,"confidence":4},{"trial_n":145,"n_dots":2.75,"target":"right","response":"right","rt":1610.7000000477,"correct":true,"confidence":4},{"trial_n":146,"n_dots":2.65,"target":"right","response":"right","rt":1614.2000000477,"correct":true,"confidence":4},{"trial_n":147,"n_dots":2.65,"target":"right","response":"left","rt":2145,"correct":false,"confidence":4},{"trial_n":148,"n_dots":2.75,"target":"right","response":"right","rt":1703.1000000238,"correct":true,"confidence":4},{"trial_n":149,"n_dots":2.75,"target":"right","response":"right","rt":2193.7999999523,"correct":true,"confidence":3},{"trial_n":150,"n_dots":2.65,"target":"right","response":"right","rt":1691.8999999762,"correct":true,"confidence":4},{"trial_n":151,"n_dots":2.65,"target":"right","response":"right","rt":1826.8999999762,"correct":true,"confidence":4},{"trial_n":152,"n_dots":2.55,"target":"right","response":"right","rt":1365.5999999046,"correct":true,"confidence":4},{"trial_n":153,"n_dots":2.55,"target":"right","response":"left","rt":1757.5,"correct":false,"confidence":4},{"trial_n":154,"n_dots":2.65,"target":"right","response":"right","rt":1659.3000000715,"correct":true,"confidence":4},{"trial_n":155,"n_dots":2.65,"target":"right","response":"left","rt":2000.3999999762,"correct":false,"confidence":4},{"trial_n":156,"n_dots":2.75,"target":"right","response":"left","rt":1665,"correct":false,"confidence":4},{"trial_n":157,"n_dots":2.85,"target":"left","response":"right","rt":2312.5,"correct":false,"confidence":3},{"trial_n":158,"n_dots":2.95,"target":"right","response":"left","rt":2151.7999999523,"correct":false,"confidence":4},{"trial_n":159,"n_dots":3.05,"target":"right","response":"left","rt":1149.6000000238,"correct":false,"confidence":3},{"trial_n":160,"n_dots":3.15,"target":"left","response":"left","rt":881.70000004768,"correct":true,"confidence":4},{"trial_n":161,"n_dots":3.15,"target":"left","response":"right","rt":2541,"correct":false,"confidence":3},{"trial_n":162,"n_dots":3.25,"target":"left","response":"left","rt":2178.0999999046,"correct":true,"confidence":5},{"trial_n":163,"n_dots":3.25,"target":"left","response":"right","rt":1822.8000000715,"correct":false,"confidence":3},{"trial_n":164,"n_dots":3.35,"target":"right","response":"right","rt":1443.6000000238,"correct":true,"confidence":5},{"trial_n":165,"n_dots":3.35,"target":"left","response":"left","rt":1844.2000000477,"correct":true,"confidence":4},{"trial_n":166,"n_dots":3.25,"target":"right","response":"right","rt":1562.3000000715,"correct":true,"confidence":4},{"trial_n":167,"n_dots":3.25,"target":"right","response":"right","rt":2158.2000000477,"correct":true,"confidence":4},{"trial_n":168,"n_dots":3.15,"target":"left","response":"left","rt":1236.5,"correct":true,"confidence":4},{"trial_n":169,"n_dots":3.15,"target":"right","response":"right","rt":1757.1000000238,"correct":true,"confidence":4},{"trial_n":170,"n_dots":3.05,"target":"right","response":"left","rt":1605.3999999762,"correct":false,"confidence":4},{"trial_n":171,"n_dots":3.15,"target":"left","response":"left","rt":1152.3999999762,"correct":true,"confidence":4},{"trial_n":172,"n_dots":3.15,"target":"right","response":"right","rt":3523.7999999523,"correct":true,"confidence":3},{"trial_n":173,"n_dots":3.05,"target":"right","response":"right","rt":1575.0999999046,"correct":true,"confidence":4},{"trial_n":174,"n_dots":3.05,"target":"left","response":"right","rt":1336.4000000954,"correct":false,"confidence":3},{"trial_n":175,"n_dots":3.15,"target":"right","response":"left","rt":5794.5,"correct":false,"confidence":3},{"trial_n":176,"n_dots":3.25,"target":"left","response":"left","rt":1774.3999999762,"correct":true,"confidence":5},{"trial_n":177,"n_dots":3.25,"target":"left","response":"left","rt":1108.6000000238,"correct":true,"confidence":4},{"trial_n":178,"n_dots":3.15,"target":"left","response":"left","rt":1044.1000000238,"correct":true,"confidence":4},{"trial_n":179,"n_dots":3.15,"target":"right","response":"right","rt":2347.2999999523,"correct":true,"confidence":3},{"trial_n":180,"n_dots":3.05,"target":"left","response":"left","rt":1468.7000000477,"correct":true,"confidence":4},{"trial_n":181,"n_dots":3.05,"target":"right","response":"left","rt":1988.2999999523,"correct":false,"confidence":4},{"trial_n":182,"n_dots":3.15,"target":"left","response":"left","rt":1125.7999999523,"correct":true,"confidence":3},{"trial_n":183,"n_dots":3.15,"target":"right","response":"right","rt":1430.3999999762,"correct":true,"confidence":5},{"trial_n":184,"n_dots":3.05,"target":"left","response":"right","rt":1733.4000000954,"correct":false,"confidence":3},{"trial_n":185,"n_dots":3.15,"target":"left","response":"left","rt":1311.4000000954,"correct":true,"confidence":5},{"trial_n":186,"n_dots":3.15,"target":"left","response":"right","rt":2066.4000000954,"correct":false,"confidence":4},{"trial_n":187,"n_dots":3.25,"target":"right","response":"left","rt":2527.8999999762,"correct":false,"confidence":4},{"trial_n":188,"n_dots":3.35,"target":"right","response":"right","rt":724.5,"correct":true,"confidence":5},{"trial_n":189,"n_dots":3.35,"target":"right","response":"right","rt":825.20000004768,"correct":true,"confidence":4},{"trial_n":190,"n_dots":3.25,"target":"left","response":"left","rt":619.29999995232,"correct":true,"confidence":5},{"trial_n":191,"n_dots":3.25,"target":"right","response":"right","rt":825.10000002384,"correct":true,"confidence":4},{"trial_n":192,"n_dots":3.15,"target":"left","response":"left","rt":786.89999997616,"correct":true,"confidence":4},{"trial_n":193,"n_dots":3.15,"target":"left","response":"left","rt":731.5,"correct":true,"confidence":5},{"trial_n":194,"n_dots":3.05,"target":"right","response":"left","rt":1029.6000000238,"correct":false,"confidence":4}]