[{"trial_n":1,"n_dots":4.25,"target":"right","response":"right","rt":2294.7999999523,"correct":true,"confidence":-1},{"trial_n":2,"n_dots":4.25,"target":"left","response":"left","rt":308.89999997616,"correct":true,"confidence":-1},{"trial_n":3,"n_dots":3.85,"target":"right","response":"right","rt":240,"correct":true,"confidence":-1},{"trial_n":4,"n_dots":3.85,"target":"right","response":"right","rt":220.70000004768,"correct":true,"confidence":-1},{"trial_n":5,"n_dots":3.45,"target":"left","response":"left","rt":314,"correct":true,"confidence":-1},{"trial_n":6,"n_dots":3.45,"target":"right","response":"right","rt":294.79999995232,"correct":true,"confidence":-1},{"trial_n":7,"n_dots":3.05,"target":"right","response":"left","rt":506.80000007153,"correct":false,"confidence":-1},{"trial_n":8,"n_dots":3.25,"target":"right","response":"right","rt":259.60000002384,"correct":true,"confidence":-1},{"trial_n":9,"n_dots":3.25,"target":"right","response":"right","rt":317,"correct":true,"confidence":-1},{"trial_n":10,"n_dots":3.05,"target":"left","response":"left","rt":298,"correct":true,"confidence":-1},{"trial_n":11,"n_dots":3.05,"target":"left","response":"left","rt":292.5,"correct":true,"confidence":-1},{"trial_n":12,"n_dots":2.85,"target":"left","response":"left","rt":1482.2000000477,"correct":true,"confidence":-1},{"trial_n":13,"n_dots":2.85,"target":"right","response":"right","rt":35.799999952316,"correct":true,"confidence":-1},{"trial_n":14,"n_dots":2.75,"target":"left","response":"left","rt":235.70000004768,"correct":true,"confidence":-1},{"trial_n":15,"n_dots":2.75,"target":"right","response":"right","rt":19.200000047684,"correct":true,"confidence":-1},{"trial_n":16,"n_dots":2.65,"target":"left","response":"left","rt":550.70000004768,"correct":true,"confidence":-1},{"trial_n":17,"n_dots":2.65,"target":"right","response":"left","rt":346.29999995232,"correct":false,"confidence":-1},{"trial_n":18,"n_dots":2.75,"target":"left","response":"left","rt":299.90000009537,"correct":true,"confidence":-1},{"trial_n":19,"n_dots":2.75,"target":"left","response":"left","rt":300.29999995232,"correct":true,"confidence":-1},{"trial_n":20,"n_dots":2.65,"target":"right","response":"right","rt":319.5,"correct":true,"confidence":-1},{"trial_n":21,"n_dots":2.65,"target":"right","response":"right","rt":351.60000002384,"correct":true,"confidence":-1},{"trial_n":22,"n_dots":2.55,"target":"right","response":"left","rt":230.10000002384,"correct":false,"confidence":-1},{"trial_n":23,"n_dots":2.65,"target":"right","response":"right","rt":271.60000002384,"correct":true,"confidence":-1},{"trial_n":24,"n_dots":2.65,"target":"right","response":"right","rt":507.60000002384,"correct":true,"confidence":-1},{"trial_n":25,"n_dots":2.55,"target":"left","response":"left","rt":194.39999997616,"correct":true,"confidence":-1},{"trial_n":26,"n_dots":2.55,"target":"right","response":"right","rt":250.80000007153,"correct":true,"confidence":-1},{"trial_n":27,"n_dots":2.45,"target":"right","response":"right","rt":215,"correct":true,"confidence":3},{"trial_n":28,"n_dots":2.45,"target":"right","response":"left","rt":247.80000007153,"correct":false,"confidence":6},{"trial_n":29,"n_dots":2.55,"target":"left","response":"left","rt":246.39999997616,"correct":true,"confidence":4},{"trial_n":30,"n_dots":2.55,"target":"left","response":"right","rt":735.19999992847,"correct":false,"confidence":4},{"trial_n":31,"n_dots":2.65,"target":"right","response":"right","rt":768,"correct":true,"confidence":4},{"trial_n":32,"n_dots":2.65,"target":"left","response":"left","rt":318.5,"correct":true,"confidence":5},{"trial_n":33,"n_dots":2.55,"target":"left","response":"left","rt":293.20000004768,"correct":true,"confidence":5},{"trial_n":34,"n_dots":2.55,"target":"right","response":"right","rt":606.69999992847,"correct":true,"confidence":3},{"trial_n":35,"n_dots":2.45,"target":"left","response":"right","rt":550.60000002384,"correct":false,"confidence":1},{"trial_n":36,"n_dots":2.55,"target":"right","response":"left","rt":92.299999952316,"correct":false,"confidence":3},{"trial_n":37,"n_dots":2.65,"target":"right","response":"right","rt":983.60000002384,"correct":true,"confidence":4},{"trial_n":38,"n_dots":2.65,"target":"right","response":"right","rt":491.5,"correct":true,"confidence":4},{"trial_n":39,"n_dots":2.55,"target":"left","response":"right","rt":428.29999995232,"correct":false,"confidence":1},{"trial_n":40,"n_dots":2.65,"target":"left","response":"left","rt":425,"correct":true,"confidence":3},{"trial_n":41,"n_dots":2.65,"target":"left","response":"left","rt":408.10000002384,"correct":true,"confidence":4},{"trial_n":42,"n_dots":2.55,"target":"right","response":"right","rt":414.89999997616,"correct":true,"confidence":5},{"trial_n":43,"n_dots":2.55,"target":"right","response":"right","rt":430.79999995232,"correct":true,"confidence":2},{"trial_n":44,"n_dots":2.45,"target":"left","response":"right","rt":544.80000007153,"correct":false,"confidence":3},{"trial_n":45,"n_dots":2.55,"target":"left","response":"left","rt":482.5,"correct":true,"confidence":1},{"trial_n":46,"n_dots":2.55,"target":"right","response":"right","rt":149.39999997616,"correct":true,"confidence":4},{"trial_n":47,"n_dots":2.45,"target":"left","response":"right","rt":544.30000007153,"correct":false,"confidence":1},{"trial_n":48,"n_dots":2.55,"target":"left","response":"left","rt":466.29999995232,"correct":true,"confidence":2},{"trial_n":49,"n_dots":2.55,"target":"left","response":"left","rt":507.39999997616,"correct":true,"confidence":2},{"trial_n":50,"n_dots":2.45,"target":"right","response":"right","rt":377.5,"correct":true,"confidence":5},{"trial_n":51,"n_dots":2.45,"target":"left","response":"left","rt":422.89999997616,"correct":true,"confidence":3},{"trial_n":52,"n_dots":2.35,"target":"left","response":"right","rt":494.70000004768,"correct":false,"confidence":3},{"trial_n":53,"n_dots":2.45,"target":"right","response":"left","rt":558.19999992847,"correct":false,"confidence":1},{"trial_n":54,"n_dots":2.55,"target":"left","response":"left","rt":591.5,"correct":true,"confidence":3},{"trial_n":55,"n_dots":2.55,"target":"right","response":"right","rt":381.60000002384,"correct":true,"confidence":4},{"trial_n":56,"n_dots":2.45,"target":"right","response":"right","rt":414.89999997616,"correct":true,"confidence":1},{"trial_n":57,"n_dots":2.45,"target":"left","response":"left","rt":216.10000002384,"correct":true,"confidence":3},{"trial_n":58,"n_dots":2.35,"target":"left","response":"left","rt":403.79999995232,"correct":true,"confidence":5},{"trial_n":59,"n_dots":2.35,"target":"left","response":"right","rt":453.79999995232,"correct":false,"confidence":3},{"trial_n":60,"n_dots":2.45,"target":"right","response":"right","rt":41.100000023842,"correct":true,"confidence":2},{"trial_n":61,"n_dots":2.45,"target":"right","response":"right","rt":684.70000004768,"correct":true,"confidence":4},{"trial_n":62,"n_dots":2.35,"target":"right","response":"right","rt":575.69999992847,"correct":true,"confidence":3},{"trial_n":63,"n_dots":2.35,"target":"right","response":"right","rt":446.20000004768,"correct":true,"confidence":3},{"trial_n":64,"n_dots":2.25,"target":"right","response":"left","rt":403.60000002384,"correct":false,"confidence":2},{"trial_n":65,"n_dots":2.35,"target":"left","response":"right","rt":352.89999997616,"correct":false,"confidence":1},{"trial_n":66,"n_dots":2.45,"target":"right","response":"right","rt":326.70000004768,"correct":true,"confidence":4},{"trial_n":67,"n_dots":2.45,"target":"right","response":"right","rt":388.20000004768,"correct":true,"confidence":4},{"trial_n":68,"n_dots":2.35,"target":"left","response":"right","rt":360.5,"correct":false,"confidence":3},{"trial_n":69,"n_dots":2.45,"target":"left","response":"left","rt":505.39999997616,"correct":true,"confidence":1},{"trial_n":70,"n_dots":2.45,"target":"left","response":"left","rt":387.80000007153,"correct":true,"confidence":2},{"trial_n":71,"n_dots":2.35,"target":"left","response":"right","rt":398.69999992847,"correct":false,"confidence":1},{"trial_n":72,"n_dots":2.45,"target":"left","response":"left","rt":656,"correct":true,"confidence":3},{"trial_n":73,"n_dots":2.45,"target":"left","response":"right","rt":440,"correct":false,"confidence":5},{"trial_n":74,"n_dots":2.55,"target":"right","response":"right","rt":351.79999995232,"correct":true,"confidence":3},{"trial_n":75,"n_dots":2.55,"target":"right","response":"right","rt":479,"correct":true,"confidence":3},{"trial_n":76,"n_dots":2.45,"target":"left","response":"left","rt":481.60000002384,"correct":true,"confidence":2},{"trial_n":77,"n_dots":2.45,"target":"left","response":"right","rt":543,"correct":false,"confidence":3},{"trial_n":78,"n_dots":2.55,"target":"left","response":"right","rt":425.10000002384,"correct":false,"confidence":3},{"trial_n":79,"n_dots":2.65,"target":"right","response":"right","rt":412.59999990463,"correct":true,"confidence":4},{"trial_n":80,"n_dots":2.65,"target":"right","response":"right","rt":557.10000002384,"correct":true,"confidence":2},{"trial_n":81,"n_dots":2.55,"target":"left","response":"right","rt":583.69999992847,"correct":false,"confidence":2},{"trial_n":82,"n_dots":2.65,"target":"right","response":"right","rt":440.89999997616,"correct":true,"confidence":5},{"trial_n":83,"n_dots":2.65,"target":"right","response":"right","rt":378.10000002384,"correct":true,"confidence":6},{"trial_n":84,"n_dots":2.55,"target":"right","response":"right","rt":428.59999990463,"correct":true,"confidence":3},{"trial_n":85,"n_dots":2.55,"target":"left","response":"left","rt":559.10000002384,"correct":true,"confidence":2},{"trial_n":86,"n_dots":2.45,"target":"right","response":"left","rt":593,"correct":false,"confidence":4},{"trial_n":87,"n_dots":2.55,"target":"left","response":"right","rt":703.5,"correct":false,"confidence":4},{"trial_n":88,"n_dots":2.65,"target":"left","response":"left","rt":624.29999995232,"correct":true,"confidence":2},{"trial_n":89,"n_dots":2.65,"target":"left","response":"right","rt":394.39999997616,"correct":false,"confidence":4},{"trial_n":90,"n_dots":2.75,"target":"right","response":"right","rt":224.29999995232,"correct":true,"confidence":3},{"trial_n":91,"n_dots":2.75,"target":"right","response":"right","rt":379.80000007153,"correct":true,"confidence":2},{"trial_n":92,"n_dots":2.65,"target":"right","response":"right","rt":588.5,"correct":true,"confidence":5},{"trial_n":93,"n_dots":2.65,"target":"left","response":"left","rt":279.80000007153,"correct":true,"confidence":2},{"trial_n":94,"n_dots":2.55,"target":"right","response":"right","rt":312,"correct":true,"confidence":3},{"trial_n":95,"n_dots":2.55,"target":"left","response":"right","rt":393,"correct":false,"confidence":1},{"trial_n":96,"n_dots":2.65,"target":"right","response":"right","rt":560.20000004768,"correct":true,"confidence":2},{"trial_n":97,"n_dots":2.65,"target":"left","response":"left","rt":375.79999995232,"correct":true,"confidence":1},{"trial_n":98,"n_dots":2.55,"target":"left","response":"left","rt":137.60000002384,"correct":true,"confidence":3},{"trial_n":99,"n_dots":2.55,"target":"left","response":"left","rt":66.5,"correct":true,"confidence":3},{"trial_n":100,"n_dots":2.45,"target":"left","response":"left","rt":532.30000007153,"correct":true,"confidence":4},{"trial_n":101,"n_dots":2.45,"target":"right","response":"right","rt":532.60000002384,"correct":true,"confidence":1},{"trial_n":102,"n_dots":2.35,"target":"left","response":"right","rt":422,"correct":false,"confidence":1},{"trial_n":103,"n_dots":2.45,"target":"left","response":"right","rt":522.89999997616,"correct":false,"confidence":3},{"trial_n":104,"n_dots":2.55,"target":"right","response":"right","rt":180.30000007153,"correct":true,"confidence":5},{"trial_n":105,"n_dots":2.55,"target":"right","response":"left","rt":182.10000002384,"correct":false,"confidence":1},{"trial_n":106,"n_dots":2.65,"target":"right","response":"right","rt":191.20000004768,"correct":true,"confidence":4},{"trial_n":107,"n_dots":2.65,"target":"right","response":"right","rt":283.70000004768,"correct":true,"confidence":1},{"trial_n":108,"n_dots":2.55,"target":"right","response":"left","rt":420.5,"correct":false,"confidence":3},{"trial_n":109,"n_dots":2.65,"target":"left","response":"left","rt":18.900000095367,"correct":true,"confidence":4},{"trial_n":110,"n_dots":2.65,"target":"right","response":"right","rt":465,"correct":true,"confidence":5},{"trial_n":111,"n_dots":2.55,"target":"left","response":"left","rt":552.89999997616,"correct":true,"confidence":1},{"trial_n":112,"n_dots":2.55,"target":"left","response":"left","rt":714.10000002384,"correct":true,"confidence":3},{"trial_n":113,"n_dots":2.45,"target":"right","response":"right","rt":362,"correct":true,"confidence":4},{"trial_n":114,"n_dots":2.45,"target":"left","response":"right","rt":367.40000009537,"correct":false,"confidence":1},{"trial_n":115,"n_dots":2.55,"target":"left","response":"left","rt":997.79999995232,"correct":true,"confidence":2},{"trial_n":116,"n_dots":2.55,"target":"right","response":"right","rt":145.70000004768,"correct":true,"confidence":3},{"trial_n":117,"n_dots":2.45,"target":"right","response":"right","rt":428.69999992847,"correct":true,"confidence":4},{"trial_n":118,"n_dots":2.45,"target":"left","response":"right","rt":501.39999997616,"correct":false,"confidence":2},{"trial_n":119,"n_dots":2.55,"target":"right","response":"right","rt":48.899999976158,"correct":true,"confidence":2},{"trial_n":120,"n_dots":2.55,"target":"right","response":"right","rt":132.59999990463,"correct":true,"confidence":3},{"trial_n":121,"n_dots":2.45,"target":"right","response":"right","rt":420.5,"correct":true,"confidence":5},{"trial_n":122,"n_dots":2.45,"target":"left","response":"right","rt":397.20000004768,"correct":false,"confidence":3},{"trial_n":123,"n_dots":2.55,"target":"right","response":"right","rt":148.79999995232,"correct":true,"confidence":4},{"trial_n":124,"n_dots":2.55,"target":"right","response":"right","rt":284.69999992847,"correct":true,"confidence":4},{"trial_n":125,"n_dots":2.45,"target":"left","response":"right","rt":77.100000023842,"correct":false,"confidence":3},{"trial_n":126,"n_dots":2.55,"target":"left","response":"right","rt":422.90000009537,"correct":false,"confidence":2},{"trial_n":127,"n_dots":2.65,"target":"right","response":"right","rt":56,"correct":true,"confidence":5},{"trial_n":128,"n_dots":2.65,"target":"left","response":"right","rt":18.100000023842,"correct":false,"confidence":3},{"trial_n":129,"n_dots":2.75,"target":"left","response":"left","rt":104.40000009537,"correct":true,"confidence":2},{"trial_n":130,"n_dots":2.75,"target":"left","response":"left","rt":277.29999995232,"correct":true,"confidence":3},{"trial_n":131,"n_dots":2.65,"target":"left","response":"left","rt":291.79999995232,"correct":true,"confidence":3},{"trial_n":132,"n_dots":2.65,"target":"left","response":"left","rt":612.5,"correct":true,"confidence":4},{"trial_n":133,"n_dots":2.55,"target":"right","response":"right","rt":651.59999990463,"correct":true,"confidence":5},{"trial_n":134,"n_dots":2.55,"target":"left","response":"left","rt":423.30000007153,"correct":true,"confidence":3},{"trial_n":135,"n_dots":2.45,"target":"left","response":"right","rt":146.19999992847,"correct":false,"confidence":4},{"trial_n":136,"n_dots":2.55,"target":"left","response":"left","rt":1095.1000000238,"correct":true,"confidence":2},{"trial_n":137,"n_dots":2.55,"target":"right","response":"right","rt":553.89999997616,"correct":true,"confidence":4},{"trial_n":138,"n_dots":2.45,"target":"left","response":"left","rt":477.79999995232,"correct":true,"confidence":3},{"trial_n":139,"n_dots":2.45,"target":"left","response":"left","rt":-0.79999995231628,"correct":true,"confidence":4},{"trial_n":140,"n_dots":2.35,"target":"left","response":"left","rt":3.8999999761581,"correct":true,"confidence":3},{"trial_n":141,"n_dots":2.35,"target":"left","response":"right","rt":362.39999997616,"correct":false,"confidence":5},{"trial_n":142,"n_dots":2.45,"target":"left","response":"right","rt":446.39999997616,"correct":false,"confidence":5},{"trial_n":143,"n_dots":2.55,"target":"left","response":"left","rt":423.39999997616,"correct":true,"confidence":4},{"trial_n":144,"n_dots":2.55,"target":"right","response":"left","rt":317.79999995232,"correct":false,"confidence":2},{"trial_n":145,"n_dots":2.65,"target":"right","response":"right","rt":320.89999997616,"correct":true,"confidence":5},{"trial_n":146,"n_dots":2.65,"target":"right","response":"left","rt":511.29999995232,"correct":false,"confidence":3},{"trial_n":147,"n_dots":2.75,"target":"left","response":"left","rt":192.10000002384,"correct":true,"confidence":5},{"trial_n":148,"n_dots":2.75,"target":"left","response":"left","rt":24.599999904633,"correct":true,"confidence":3},{"trial_n":149,"n_dots":2.65,"target":"left","response":"left","rt":415.29999995232,"correct":true,"confidence":4},{"trial_n":150,"n_dots":2.65,"target":"right","response":"right","rt":371.60000002384,"correct":true,"confidence":5},{"trial_n":151,"n_dots":2.55,"target":"left","response":"left","rt":361,"correct":true,"confidence":3},{"trial_n":152,"n_dots":2.55,"target":"right","response":"right","rt":811.89999997616,"correct":true,"confidence":4},{"trial_n":153,"n_dots":2.45,"target":"right","response":"left","rt":492.09999990463,"correct":false,"confidence":1},{"trial_n":154,"n_dots":2.55,"target":"right","response":"right","rt":62.700000047684,"correct":true,"confidence":4},{"trial_n":155,"n_dots":2.55,"target":"left","response":"left","rt":1286.6000000238,"correct":true,"confidence":1},{"trial_n":156,"n_dots":2.45,"target":"left","response":"left","rt":1156.5,"correct":true,"confidence":3},{"trial_n":157,"n_dots":2.45,"target":"left","response":"right","rt":82.699999928474,"correct":false,"confidence":4},{"trial_n":158,"n_dots":2.55,"target":"right","response":"right","rt":27.199999928474,"correct":true,"confidence":3},{"trial_n":159,"n_dots":2.55,"target":"right","response":"right","rt":181.80000007153,"correct":true,"confidence":1},{"trial_n":160,"n_dots":2.45,"target":"left","response":"right","rt":527.39999997616,"correct":false,"confidence":3},{"trial_n":161,"n_dots":2.55,"target":"right","response":"left","rt":1053.7000000477,"correct":false,"confidence":2},{"trial_n":162,"n_dots":2.65,"target":"right","response":"left","rt":335.5,"correct":false,"confidence":3},{"trial_n":163,"n_dots":2.75,"target":"left","response":"left","rt":95.399999976158,"correct":true,"confidence":4},{"trial_n":164,"n_dots":2.75,"target":"right","response":"right","rt":68.400000095367,"correct":true,"confidence":5},{"trial_n":165,"n_dots":2.65,"target":"left","response":"left","rt":421.29999995232,"correct":true,"confidence":3},{"trial_n":166,"n_dots":2.65,"target":"right","response":"left","rt":373,"correct":false,"confidence":2},{"trial_n":167,"n_dots":2.75,"target":"left","response":"left","rt":519.80000007153,"correct":true,"confidence":4},{"trial_n":168,"n_dots":2.75,"target":"left","response":"right","rt":743.10000002384,"correct":false,"confidence":5},{"trial_n":169,"n_dots":2.85,"target":"right","response":"right","rt":291.39999997616,"correct":true,"confidence":3},{"trial_n":170,"n_dots":2.85,"target":"right","response":"right","rt":71,"correct":true,"confidence":3},{"trial_n":171,"n_dots":2.75,"target":"right","response":"right","rt":510.29999995232,"correct":true,"confidence":4},{"trial_n":172,"n_dots":2.75,"target":"left","response":"left","rt":283.60000002384,"correct":true,"confidence":2},{"trial_n":173,"n_dots":2.65,"target":"left","response":"left","rt":490.70000004768,"correct":true,"confidence":3},{"trial_n":174,"n_dots":2.65,"target":"right","response":"right","rt":487.29999995232,"correct":true,"confidence":4},{"trial_n":175,"n_dots":2.55,"target":"left","response":"left","rt":293.19999992847,"correct":true,"confidence":2},{"trial_n":176,"n_dots":2.55,"target":"right","response":"right","rt":88.900000095367,"correct":true,"confidence":4},{"trial_n":177,"n_dots":2.45,"target":"right","response":"right","rt":987.79999995232,"correct":true,"confidence":4},{"trial_n":178,"n_dots":2.45,"target":"left","response":"right","rt":217.79999995232,"correct":false,"confidence":3},{"trial_n":179,"n_dots":2.55,"target":"right","response":"right","rt":299.5,"correct":true,"confidence":4},{"trial_n":180,"n_dots":2.55,"target":"right","response":"right","rt":304.09999990463,"correct":true,"confidence":2},{"trial_n":181,"n_dots":2.45,"target":"left","response":"left","rt":124.90000009537,"correct":true,"confidence":1},{"trial_n":182,"n_dots":2.45,"target":"right","response":"right","rt":221.5,"correct":true,"confidence":1},{"trial_n":183,"n_dots":2.35,"target":"right","response":"right","rt":213.20000004768,"correct":true,"confidence":4},{"trial_n":184,"n_dots":2.35,"target":"right","response":"left","rt":478.39999997616,"correct":false,"confidence":1},{"trial_n":185,"n_dots":2.45,"target":"right","response":"right","rt":68.5,"correct":true,"confidence":3},{"trial_n":186,"n_dots":2.45,"target":"right","response":"right","rt":165.80000007153,"correct":true,"confidence":4},{"trial_n":187,"n_dots":2.35,"target":"left","response":"left","rt":95.700000047684,"correct":true,"confidence":2},{"trial_n":188,"n_dots":2.35,"target":"right","response":"right","rt":103.5,"correct":true,"confidence":3},{"trial_n":189,"n_dots":2.25,"target":"left","response":"right","rt":583,"correct":false,"confidence":2},{"trial_n":190,"n_dots":2.35,"target":"right","response":"right","rt":652.70000004768,"correct":true,"confidence":2},{"trial_n":191,"n_dots":2.35,"target":"right","response":"right","rt":63.100000023842,"correct":true,"confidence":5},{"trial_n":192,"n_dots":2.25,"target":"left","response":"right","rt":237.69999992847,"correct":false,"confidence":1},{"trial_n":193,"n_dots":2.35,"target":"left","response":"left","rt":139.5,"correct":true,"confidence":4},{"trial_n":194,"n_dots":2.35,"target":"left","response":"left","rt":452.20000004768,"correct":true,"confidence":4}]