[{"trial_n":1,"n_dots":4.25,"target":"right","response":"right","rt":5293.200000003,"correct":true,"confidence":-1},{"trial_n":2,"n_dots":4.25,"target":"right","response":"right","rt":1040.8999999985,"correct":true,"confidence":-1},{"trial_n":3,"n_dots":3.85,"target":"left","response":"left","rt":1428.799999997,"correct":true,"confidence":-1},{"trial_n":4,"n_dots":3.85,"target":"right","response":"right","rt":822.89999999851,"correct":true,"confidence":-1},{"trial_n":5,"n_dots":3.45,"target":"right","response":"left","rt":1015.6999999955,"correct":false,"confidence":-1},{"trial_n":6,"n_dots":3.85,"target":"right","response":"left","rt":692.20000000298,"correct":false,"confidence":-1},{"trial_n":7,"n_dots":4.25,"target":"right","response":"right","rt":726,"correct":true,"confidence":-1},{"trial_n":8,"n_dots":4.25,"target":"left","response":"left","rt":404.89999999851,"correct":true,"confidence":-1},{"trial_n":9,"n_dots":4.05,"target":"right","response":"right","rt":704.60000000149,"correct":true,"confidence":-1},{"trial_n":10,"n_dots":4.05,"target":"left","response":"left","rt":809,"correct":true,"confidence":-1},{"trial_n":11,"n_dots":3.85,"target":"left","response":"left","rt":439.39999999851,"correct":true,"confidence":-1},{"trial_n":12,"n_dots":3.85,"target":"left","response":"left","rt":293,"correct":true,"confidence":-1},{"trial_n":13,"n_dots":3.75,"target":"right","response":"right","rt":327.10000000149,"correct":true,"confidence":-1},{"trial_n":14,"n_dots":3.75,"target":"left","response":"left","rt":337.10000000149,"correct":true,"confidence":-1},{"trial_n":15,"n_dots":3.65,"target":"left","response":"left","rt":457.19999999553,"correct":true,"confidence":-1},{"trial_n":16,"n_dots":3.65,"target":"right","response":"right","rt":392.60000000149,"correct":true,"confidence":-1},{"trial_n":17,"n_dots":3.55,"target":"right","response":"left","rt":707.5,"correct":false,"confidence":-1},{"trial_n":18,"n_dots":3.65,"target":"right","response":"right","rt":121.89999999851,"correct":true,"confidence":-1},{"trial_n":19,"n_dots":3.65,"target":"left","response":"left","rt":117.69999999553,"correct":true,"confidence":-1},{"trial_n":20,"n_dots":3.55,"target":"left","response":"left","rt":424.60000000149,"correct":true,"confidence":-1},{"trial_n":21,"n_dots":3.55,"target":"right","response":"left","rt":294,"correct":false,"confidence":-1},{"trial_n":22,"n_dots":3.65,"target":"right","response":"right","rt":488.89999999851,"correct":true,"confidence":-1},{"trial_n":23,"n_dots":3.65,"target":"left","response":"left","rt":246.19999999553,"correct":true,"confidence":-1},{"trial_n":24,"n_dots":3.55,"target":"left","response":"left","rt":234.60000000149,"correct":true,"confidence":-1},{"trial_n":25,"n_dots":3.55,"target":"left","response":"left","rt":39.89999999851,"correct":true,"confidence":-1},{"trial_n":26,"n_dots":3.45,"target":"right","response":"left","rt":397.29999999702,"correct":false,"confidence":-1},{"trial_n":27,"n_dots":3.55,"target":"right","response":"left","rt":1211.3999999985,"correct":false,"confidence":4},{"trial_n":28,"n_dots":3.65,"target":"right","response":"left","rt":819.80000000447,"correct":false,"confidence":3},{"trial_n":29,"n_dots":3.75,"target":"left","response":"left","rt":732.60000000149,"correct":true,"confidence":5},{"trial_n":30,"n_dots":3.75,"target":"right","response":"left","rt":1370.5,"correct":false,"confidence":3},{"trial_n":31,"n_dots":3.85,"target":"right","response":"left","rt":860.10000000149,"correct":false,"confidence":4},{"trial_n":32,"n_dots":3.95,"target":"right","response":"right","rt":686.89999999851,"correct":true,"confidence":3},{"trial_n":33,"n_dots":3.95,"target":"right","response":"right","rt":1009.200000003,"correct":true,"confidence":3},{"trial_n":34,"n_dots":3.85,"target":"right","response":"right","rt":725.79999999702,"correct":true,"confidence":4},{"trial_n":35,"n_dots":3.85,"target":"left","response":"left","rt":706.59999999404,"correct":true,"confidence":4},{"trial_n":36,"n_dots":3.75,"target":"right","response":"right","rt":764.5,"correct":true,"confidence":3},{"trial_n":37,"n_dots":3.75,"target":"left","response":"left","rt":806.79999999702,"correct":true,"confidence":2},{"trial_n":38,"n_dots":3.65,"target":"left","response":"left","rt":810.89999999851,"correct":true,"confidence":3},{"trial_n":39,"n_dots":3.65,"target":"right","response":"right","rt":874.69999999553,"correct":true,"confidence":4},{"trial_n":40,"n_dots":3.55,"target":"left","response":"left","rt":774.60000000149,"correct":true,"confidence":4},{"trial_n":41,"n_dots":3.55,"target":"left","response":"right","rt":547,"correct":false,"confidence":3},{"trial_n":42,"n_dots":3.65,"target":"left","response":"right","rt":676.70000000298,"correct":false,"confidence":3},{"trial_n":43,"n_dots":3.75,"target":"left","response":"right","rt":393.69999999553,"correct":false,"confidence":3},{"trial_n":44,"n_dots":3.85,"target":"right","response":"right","rt":702.5,"correct":true,"confidence":3},{"trial_n":45,"n_dots":3.85,"target":"left","response":"left","rt":1091.8999999985,"correct":true,"confidence":3},{"trial_n":46,"n_dots":3.75,"target":"right","response":"right","rt":347.70000000298,"correct":true,"confidence":4},{"trial_n":47,"n_dots":3.75,"target":"left","response":"left","rt":732.29999999702,"correct":true,"confidence":4},{"trial_n":48,"n_dots":3.65,"target":"right","response":"left","rt":3104.1000000015,"correct":false,"confidence":3},{"trial_n":49,"n_dots":3.75,"target":"left","response":"left","rt":900.79999999702,"correct":true,"confidence":4},{"trial_n":50,"n_dots":3.75,"target":"left","response":"left","rt":835.80000000447,"correct":true,"confidence":5},{"trial_n":51,"n_dots":3.65,"target":"left","response":"left","rt":1948.8999999985,"correct":true,"confidence":3},{"trial_n":52,"n_dots":3.65,"target":"left","response":"right","rt":1718.5,"correct":false,"confidence":3},{"trial_n":53,"n_dots":3.75,"target":"right","response":"left","rt":929.29999999702,"correct":false,"confidence":3},{"trial_n":54,"n_dots":3.85,"target":"left","response":"left","rt":1141.8000000045,"correct":true,"confidence":4},{"trial_n":55,"n_dots":3.85,"target":"right","response":"right","rt":585.79999999702,"correct":true,"confidence":4},{"trial_n":56,"n_dots":3.75,"target":"right","response":"right","rt":1322.6000000015,"correct":true,"confidence":4},{"trial_n":57,"n_dots":3.75,"target":"left","response":"left","rt":767.5,"correct":true,"confidence":4},{"trial_n":58,"n_dots":3.65,"target":"left","response":"left","rt":1236.700000003,"correct":true,"confidence":3},{"trial_n":59,"n_dots":3.65,"target":"left","response":"left","rt":798.5,"correct":true,"confidence":4},{"trial_n":60,"n_dots":3.55,"target":"right","response":"right","rt":1558.200000003,"correct":true,"confidence":3},{"trial_n":61,"n_dots":3.55,"target":"left","response":"right","rt":1549.700000003,"correct":false,"confidence":2},{"trial_n":62,"n_dots":3.65,"target":"right","response":"right","rt":901,"correct":true,"confidence":2},{"trial_n":63,"n_dots":3.65,"target":"right","response":"right","rt":991.60000000149,"correct":true,"confidence":4},{"trial_n":64,"n_dots":3.55,"target":"right","response":"right","rt":1060.599999994,"correct":true,"confidence":1},{"trial_n":65,"n_dots":3.55,"target":"left","response":"left","rt":1627.5,"correct":true,"confidence":3},{"trial_n":66,"n_dots":3.45,"target":"left","response":"left","rt":888,"correct":true,"confidence":3},{"trial_n":67,"n_dots":3.45,"target":"left","response":"left","rt":1545.700000003,"correct":true,"confidence":3},{"trial_n":68,"n_dots":3.35,"target":"right","response":"right","rt":691.5,"correct":true,"confidence":4},{"trial_n":69,"n_dots":3.35,"target":"right","response":"right","rt":2606.200000003,"correct":true,"confidence":3},{"trial_n":70,"n_dots":3.25,"target":"left","response":"left","rt":823.79999999702,"correct":true,"confidence":4},{"trial_n":71,"n_dots":3.25,"target":"right","response":"right","rt":738.5,"correct":true,"confidence":4},{"trial_n":72,"n_dots":3.15,"target":"left","response":"left","rt":701.10000000149,"correct":true,"confidence":5},{"trial_n":73,"n_dots":3.15,"target":"left","response":"right","rt":676,"correct":false,"confidence":3},{"trial_n":74,"n_dots":3.25,"target":"right","response":"right","rt":698.89999999851,"correct":true,"confidence":4},{"trial_n":75,"n_dots":3.25,"target":"left","response":"left","rt":919.60000000149,"correct":true,"confidence":3},{"trial_n":76,"n_dots":3.15,"target":"left","response":"right","rt":629.39999999851,"correct":false,"confidence":4},{"trial_n":77,"n_dots":3.25,"target":"right","response":"left","rt":2216.1999999955,"correct":false,"confidence":3},{"trial_n":78,"n_dots":3.35,"target":"right","response":"right","rt":406.10000000149,"correct":true,"confidence":4},{"trial_n":79,"n_dots":3.35,"target":"right","response":"right","rt":530.89999999851,"correct":true,"confidence":3},{"trial_n":80,"n_dots":3.25,"target":"left","response":"left","rt":708.5,"correct":true,"confidence":4},{"trial_n":81,"n_dots":3.25,"target":"right","response":"right","rt":795.79999999702,"correct":true,"confidence":3},{"trial_n":82,"n_dots":3.15,"target":"right","response":"left","rt":2426.599999994,"correct":false,"confidence":3},{"trial_n":83,"n_dots":3.25,"target":"right","response":"right","rt":671.5,"correct":true,"confidence":4},{"trial_n":84,"n_dots":3.25,"target":"left","response":"left","rt":498.89999999851,"correct":true,"confidence":3},{"trial_n":85,"n_dots":3.15,"target":"left","response":"left","rt":1102.299999997,"correct":true,"confidence":2},{"trial_n":86,"n_dots":3.15,"target":"right","response":"right","rt":532.20000000298,"correct":true,"confidence":4},{"trial_n":87,"n_dots":3.05,"target":"right","response":"right","rt":2881.1999999955,"correct":true,"confidence":4},{"trial_n":88,"n_dots":3.05,"target":"left","response":"left","rt":1672.8999999985,"correct":true,"confidence":3},{"trial_n":89,"n_dots":2.95,"target":"left","response":"left","rt":1348.5,"correct":true,"confidence":3},{"trial_n":90,"n_dots":2.95,"target":"right","response":"right","rt":4358.5,"correct":true,"confidence":3},{"trial_n":91,"n_dots":2.85,"target":"right","response":"right","rt":667.20000000298,"correct":true,"confidence":4},{"trial_n":92,"n_dots":2.85,"target":"left","response":"left","rt":697.89999999851,"correct":true,"confidence":4},{"trial_n":93,"n_dots":2.75,"target":"left","response":"left","rt":526.70000000298,"correct":true,"confidence":5},{"trial_n":94,"n_dots":2.75,"target":"right","response":"right","rt":1108.6999999955,"correct":true,"confidence":4},{"trial_n":95,"n_dots":2.65,"target":"left","response":"left","rt":1244,"correct":true,"confidence":2},{"trial_n":96,"n_dots":2.65,"target":"left","response":"left","rt":1076.8000000045,"correct":true,"confidence":3},{"trial_n":97,"n_dots":2.55,"target":"right","response":"left","rt":868.5,"correct":false,"confidence":3},{"trial_n":98,"n_dots":2.65,"target":"right","response":"right","rt":501.39999999851,"correct":true,"confidence":3},{"trial_n":99,"n_dots":2.65,"target":"right","response":"right","rt":1892,"correct":true,"confidence":2},{"trial_n":100,"n_dots":2.55,"target":"left","response":"right","rt":1138.8999999985,"correct":false,"confidence":3},{"trial_n":101,"n_dots":2.65,"target":"right","response":"left","rt":1124.1000000015,"correct":false,"confidence":2},{"trial_n":102,"n_dots":2.75,"target":"right","response":"right","rt":1083.6000000015,"correct":true,"confidence":3},{"trial_n":103,"n_dots":2.75,"target":"left","response":"left","rt":521.29999999702,"correct":true,"confidence":4},{"trial_n":104,"n_dots":2.65,"target":"right","response":"left","rt":1017,"correct":false,"confidence":2},{"trial_n":105,"n_dots":2.75,"target":"right","response":"right","rt":377.39999999851,"correct":true,"confidence":2},{"trial_n":106,"n_dots":2.75,"target":"left","response":"left","rt":1352.200000003,"correct":true,"confidence":2},{"trial_n":107,"n_dots":2.65,"target":"right","response":"left","rt":916.29999999702,"correct":false,"confidence":4},{"trial_n":108,"n_dots":2.75,"target":"left","response":"right","rt":914.70000000298,"correct":false,"confidence":3},{"trial_n":109,"n_dots":2.85,"target":"right","response":"right","rt":572.60000000149,"correct":true,"confidence":3},{"trial_n":110,"n_dots":2.85,"target":"right","response":"right","rt":401.39999999851,"correct":true,"confidence":3},{"trial_n":111,"n_dots":2.75,"target":"left","response":"left","rt":382.89999999851,"correct":true,"confidence":3},{"trial_n":112,"n_dots":2.75,"target":"left","response":"left","rt":281.29999999702,"correct":true,"confidence":3},{"trial_n":113,"n_dots":2.65,"target":"right","response":"left","rt":355.5,"correct":false,"confidence":4},{"trial_n":114,"n_dots":2.75,"target":"left","response":"left","rt":301.20000000298,"correct":true,"confidence":3},{"trial_n":115,"n_dots":2.75,"target":"right","response":"left","rt":1099.3999999985,"correct":false,"confidence":3},{"trial_n":116,"n_dots":2.85,"target":"left","response":"right","rt":1055.6000000015,"correct":false,"confidence":2},{"trial_n":117,"n_dots":2.95,"target":"left","response":"left","rt":229.5,"correct":true,"confidence":4},{"trial_n":118,"n_dots":2.95,"target":"right","response":"right","rt":1004,"correct":true,"confidence":3},{"trial_n":119,"n_dots":2.85,"target":"left","response":"left","rt":206.89999999851,"correct":true,"confidence":4},{"trial_n":120,"n_dots":2.85,"target":"left","response":"left","rt":1339.6999999955,"correct":true,"confidence":3},{"trial_n":121,"n_dots":2.75,"target":"right","response":"right","rt":950.30000000447,"correct":true,"confidence":2},{"trial_n":122,"n_dots":2.75,"target":"right","response":"right","rt":810.10000000149,"correct":true,"confidence":4},{"trial_n":123,"n_dots":2.65,"target":"right","response":"right","rt":712.5,"correct":true,"confidence":4},{"trial_n":124,"n_dots":2.65,"target":"left","response":"left","rt":277.79999999702,"correct":true,"confidence":4},{"trial_n":125,"n_dots":2.55,"target":"left","response":"right","rt":509.10000000149,"correct":false,"confidence":3},{"trial_n":126,"n_dots":2.65,"target":"left","response":"left","rt":741,"correct":true,"confidence":5},{"trial_n":127,"n_dots":2.65,"target":"left","response":"left","rt":681.5,"correct":true,"confidence":4},{"trial_n":128,"n_dots":2.55,"target":"left","response":"left","rt":765.79999999702,"correct":true,"confidence":4},{"trial_n":129,"n_dots":2.55,"target":"right","response":"right","rt":645.69999999553,"correct":true,"confidence":2},{"trial_n":130,"n_dots":2.45,"target":"left","response":"left","rt":2789,"correct":true,"confidence":1},{"trial_n":131,"n_dots":2.45,"target":"right","response":"left","rt":714.10000000149,"correct":false,"confidence":3},{"trial_n":132,"n_dots":2.55,"target":"left","response":"left","rt":914.70000000298,"correct":true,"confidence":4},{"trial_n":133,"n_dots":2.55,"target":"right","response":"right","rt":470.19999999553,"correct":true,"confidence":4},{"trial_n":134,"n_dots":2.45,"target":"left","response":"left","rt":8605.6999999955,"correct":true,"confidence":2},{"trial_n":135,"n_dots":2.45,"target":"left","response":"right","rt":692.69999999553,"correct":false,"confidence":3},{"trial_n":136,"n_dots":2.55,"target":"right","response":"right","rt":318.30000000447,"correct":true,"confidence":4},{"trial_n":137,"n_dots":2.55,"target":"left","response":"left","rt":610.29999999702,"correct":true,"confidence":5},{"trial_n":138,"n_dots":2.45,"target":"right","response":"right","rt":658.69999999553,"correct":true,"confidence":3},{"trial_n":139,"n_dots":2.45,"target":"right","response":"left","rt":4551.6000000015,"correct":false,"confidence":1},{"trial_n":140,"n_dots":2.55,"target":"right","response":"right","rt":382,"correct":true,"confidence":3},{"trial_n":141,"n_dots":2.55,"target":"right","response":"right","rt":634.5,"correct":true,"confidence":3},{"trial_n":142,"n_dots":2.45,"target":"left","response":"left","rt":1695.8000000045,"correct":true,"confidence":4},{"trial_n":143,"n_dots":2.45,"target":"left","response":"right","rt":509.89999999851,"correct":false,"confidence":3},{"trial_n":144,"n_dots":2.55,"target":"right","response":"right","rt":446.70000000298,"correct":true,"confidence":3},{"trial_n":145,"n_dots":2.55,"target":"left","response":"left","rt":1131.6000000015,"correct":true,"confidence":3},{"trial_n":146,"n_dots":2.45,"target":"right","response":"right","rt":392.09999999404,"correct":true,"confidence":4},{"trial_n":147,"n_dots":2.45,"target":"left","response":"left","rt":962.39999999851,"correct":true,"confidence":3},{"trial_n":148,"n_dots":2.35,"target":"left","response":"left","rt":496,"correct":true,"confidence":3},{"trial_n":149,"n_dots":2.35,"target":"right","response":"left","rt":357.5,"correct":false,"confidence":4},{"trial_n":150,"n_dots":2.45,"target":"right","response":"right","rt":150.39999999851,"correct":true,"confidence":4},{"trial_n":151,"n_dots":2.45,"target":"right","response":"left","rt":874.79999999702,"correct":false,"confidence":3},{"trial_n":152,"n_dots":2.55,"target":"left","response":"left","rt":822.60000000149,"correct":true,"confidence":4},{"trial_n":153,"n_dots":2.55,"target":"left","response":"left","rt":881.39999999851,"correct":true,"confidence":1},{"trial_n":154,"n_dots":2.45,"target":"left","response":"left","rt":1130.3000000045,"correct":true,"confidence":3},{"trial_n":155,"n_dots":2.45,"target":"right","response":"left","rt":616.79999999702,"correct":false,"confidence":4},{"trial_n":156,"n_dots":2.55,"target":"left","response":"left","rt":2096,"correct":true,"confidence":4},{"trial_n":157,"n_dots":2.55,"target":"right","response":"right","rt":609.89999999851,"correct":true,"confidence":2},{"trial_n":158,"n_dots":2.45,"target":"left","response":"left","rt":672.20000000298,"correct":true,"confidence":3},{"trial_n":159,"n_dots":2.45,"target":"right","response":"left","rt":1144.1000000015,"correct":false,"confidence":4},{"trial_n":160,"n_dots":2.55,"target":"right","response":"right","rt":487.39999999851,"correct":true,"confidence":3},{"trial_n":161,"n_dots":2.55,"target":"right","response":"right","rt":966.80000000447,"correct":true,"confidence":2},{"trial_n":162,"n_dots":2.45,"target":"right","response":"left","rt":652.69999999553,"correct":false,"confidence":4},{"trial_n":163,"n_dots":2.55,"target":"left","response":"left","rt":828.10000000149,"correct":true,"confidence":4},{"trial_n":164,"n_dots":2.55,"target":"right","response":"right","rt":475.39999999851,"correct":true,"confidence":3},{"trial_n":165,"n_dots":2.45,"target":"left","response":"left","rt":381.19999999553,"correct":true,"confidence":4},{"trial_n":166,"n_dots":2.45,"target":"left","response":"right","rt":355.10000000149,"correct":false,"confidence":3},{"trial_n":167,"n_dots":2.55,"target":"left","response":"right","rt":651.39999999851,"correct":false,"confidence":1},{"trial_n":168,"n_dots":2.65,"target":"left","response":"left","rt":1788.1999999955,"correct":true,"confidence":3},{"trial_n":169,"n_dots":2.65,"target":"right","response":"right","rt":695,"correct":true,"confidence":4},{"trial_n":170,"n_dots":2.55,"target":"left","response":"left","rt":434.19999999553,"correct":true,"confidence":3},{"trial_n":171,"n_dots":2.55,"target":"right","response":"right","rt":610.39999999851,"correct":true,"confidence":4},{"trial_n":172,"n_dots":2.45,"target":"right","response":"left","rt":190.5,"correct":false,"confidence":3},{"trial_n":173,"n_dots":2.55,"target":"right","response":"left","rt":983.80000000447,"correct":false,"confidence":2},{"trial_n":174,"n_dots":2.65,"target":"left","response":"left","rt":408.10000000149,"correct":true,"confidence":4},{"trial_n":175,"n_dots":2.65,"target":"left","response":"left","rt":420.19999999553,"correct":true,"confidence":4},{"trial_n":176,"n_dots":2.55,"target":"right","response":"right","rt":597,"correct":true,"confidence":4},{"trial_n":177,"n_dots":2.55,"target":"right","response":"right","rt":668.20000000298,"correct":true,"confidence":4},{"trial_n":178,"n_dots":2.45,"target":"right","response":"left","rt":892.29999999702,"correct":false,"confidence":4},{"trial_n":179,"n_dots":2.55,"target":"left","response":"left","rt":690.29999999702,"correct":true,"confidence":4},{"trial_n":180,"n_dots":2.55,"target":"right","response":"left","rt":346.80000000447,"correct":false,"confidence":4},{"trial_n":181,"n_dots":2.65,"target":"left","response":"left","rt":1262.8999999985,"correct":true,"confidence":3},{"trial_n":182,"n_dots":2.65,"target":"right","response":"left","rt":630.70000000298,"correct":false,"confidence":2},{"trial_n":183,"n_dots":2.75,"target":"left","response":"left","rt":820.20000000298,"correct":true,"confidence":5},{"trial_n":184,"n_dots":2.75,"target":"left","response":"left","rt":1210.1999999955,"correct":true,"confidence":5},{"trial_n":185,"n_dots":2.65,"target":"right","response":"left","rt":975.10000000149,"correct":false,"confidence":4},{"trial_n":186,"n_dots":2.75,"target":"left","response":"left","rt":167.89999999851,"correct":true,"confidence":5},{"trial_n":187,"n_dots":2.75,"target":"left","response":"left","rt":686.29999999702,"correct":true,"confidence":4},{"trial_n":188,"n_dots":2.65,"target":"right","response":"left","rt":326.10000000149,"correct":false,"confidence":4},{"trial_n":189,"n_dots":2.75,"target":"left","response":"left","rt":500.89999999851,"correct":true,"confidence":4},{"trial_n":190,"n_dots":2.75,"target":"right","response":"left","rt":1714.8000000045,"correct":false,"confidence":2},{"trial_n":191,"n_dots":2.85,"target":"left","response":"right","rt":720,"correct":false,"confidence":4},{"trial_n":192,"n_dots":2.95,"target":"left","response":"left","rt":471.69999999553,"correct":true,"confidence":4},{"trial_n":193,"n_dots":2.95,"target":"left","response":"left","rt":368.20000000298,"correct":true,"confidence":5},{"trial_n":194,"n_dots":2.85,"target":"right","response":"right","rt":1314.1999999955,"correct":true,"confidence":2}]