[{"trial_n":1,"n_dots":4.25,"target":"right","response":"right","rt":5814.7000000477,"correct":true,"confidence":-1},{"trial_n":2,"n_dots":4.25,"target":"right","response":"right","rt":2299.1999999285,"correct":true,"confidence":-1},{"trial_n":3,"n_dots":3.85,"target":"right","response":"right","rt":1313.1000000238,"correct":true,"confidence":-1},{"trial_n":4,"n_dots":3.85,"target":"right","response":"right","rt":2239.5,"correct":true,"confidence":-1},{"trial_n":5,"n_dots":3.45,"target":"right","response":"right","rt":1463.5,"correct":true,"confidence":-1},{"trial_n":6,"n_dots":3.45,"target":"left","response":"left","rt":760.09999990463,"correct":true,"confidence":-1},{"trial_n":7,"n_dots":3.05,"target":"left","response":"left","rt":706.30000007153,"correct":true,"confidence":-1},{"trial_n":8,"n_dots":3.05,"target":"right","response":"left","rt":700.40000009537,"correct":false,"confidence":-1},{"trial_n":9,"n_dots":3.25,"target":"right","response":"right","rt":889.10000002384,"correct":true,"confidence":-1},{"trial_n":10,"n_dots":3.25,"target":"left","response":"left","rt":932.80000007153,"correct":true,"confidence":-1},{"trial_n":11,"n_dots":3.05,"target":"right","response":"right","rt":735.09999990463,"correct":true,"confidence":-1},{"trial_n":12,"n_dots":3.05,"target":"left","response":"right","rt":952.79999995232,"correct":false,"confidence":-1},{"trial_n":13,"n_dots":3.15,"target":"right","response":"right","rt":982,"correct":true,"confidence":-1},{"trial_n":14,"n_dots":3.15,"target":"right","response":"right","rt":844.60000002384,"correct":true,"confidence":-1},{"trial_n":15,"n_dots":3.05,"target":"right","response":"right","rt":849.39999997616,"correct":true,"confidence":-1},{"trial_n":16,"n_dots":3.05,"target":"left","response":"left","rt":711,"correct":true,"confidence":-1},{"trial_n":17,"n_dots":2.95,"target":"left","response":"left","rt":776.5,"correct":true,"confidence":-1},{"trial_n":18,"n_dots":2.95,"target":"right","response":"right","rt":864.79999995232,"correct":true,"confidence":-1},{"trial_n":19,"n_dots":2.85,"target":"left","response":"right","rt":732.79999995232,"correct":false,"confidence":-1},{"trial_n":20,"n_dots":2.95,"target":"left","response":"right","rt":845.70000004768,"correct":false,"confidence":-1},{"trial_n":21,"n_dots":3.05,"target":"left","response":"left","rt":691.20000004768,"correct":true,"confidence":-1},{"trial_n":22,"n_dots":3.05,"target":"right","response":"right","rt":769.30000007153,"correct":true,"confidence":-1},{"trial_n":23,"n_dots":2.95,"target":"left","response":"right","rt":897.60000002384,"correct":false,"confidence":-1},{"trial_n":24,"n_dots":3.05,"target":"left","response":"right","rt":787.10000002384,"correct":false,"confidence":-1},{"trial_n":25,"n_dots":3.15,"target":"left","response":"right","rt":662.19999992847,"correct":false,"confidence":-1},{"trial_n":26,"n_dots":3.25,"target":"right","response":"right","rt":840.19999992847,"correct":true,"confidence":-1},{"trial_n":27,"n_dots":3.25,"target":"right","response":"right","rt":374.70000004768,"correct":true,"confidence":5},{"trial_n":28,"n_dots":3.15,"target":"left","response":"right","rt":759.19999992847,"correct":false,"confidence":5},{"trial_n":29,"n_dots":3.25,"target":"right","response":"right","rt":1536.2000000477,"correct":true,"confidence":5},{"trial_n":30,"n_dots":3.25,"target":"right","response":"right","rt":1287.6000000238,"correct":true,"confidence":5},{"trial_n":31,"n_dots":3.15,"target":"left","response":"right","rt":4728.7999999523,"correct":false,"confidence":4},{"trial_n":32,"n_dots":3.25,"target":"right","response":"right","rt":905.29999995232,"correct":true,"confidence":5},{"trial_n":33,"n_dots":3.25,"target":"left","response":"left","rt":984.19999992847,"correct":true,"confidence":5},{"trial_n":34,"n_dots":3.15,"target":"left","response":"right","rt":2536.6000000238,"correct":false,"confidence":5},{"trial_n":35,"n_dots":3.25,"target":"right","response":"right","rt":1634.6000000238,"correct":true,"confidence":5},{"trial_n":36,"n_dots":3.25,"target":"right","response":"right","rt":808.10000002384,"correct":true,"confidence":5},{"trial_n":37,"n_dots":3.15,"target":"left","response":"right","rt":797.79999995232,"correct":false,"confidence":5},{"trial_n":38,"n_dots":3.25,"target":"right","response":"right","rt":796,"correct":true,"confidence":5},{"trial_n":39,"n_dots":3.25,"target":"right","response":"right","rt":883.5,"correct":true,"confidence":5},{"trial_n":40,"n_dots":3.15,"target":"left","response":"left","rt":903.80000007153,"correct":true,"confidence":3},{"trial_n":41,"n_dots":3.15,"target":"left","response":"left","rt":1575.6999999285,"correct":true,"confidence":5},{"trial_n":42,"n_dots":3.05,"target":"left","response":"left","rt":983.20000004768,"correct":true,"confidence":5},{"trial_n":43,"n_dots":3.05,"target":"left","response":"right","rt":2309.6999999285,"correct":false,"confidence":4},{"trial_n":44,"n_dots":3.15,"target":"left","response":"right","rt":1167.7999999523,"correct":false,"confidence":5},{"trial_n":45,"n_dots":3.25,"target":"left","response":"right","rt":747.10000002384,"correct":false,"confidence":5},{"trial_n":46,"n_dots":3.35,"target":"right","response":"right","rt":781.5,"correct":true,"confidence":5},{"trial_n":47,"n_dots":3.35,"target":"left","response":"left","rt":757.10000002384,"correct":true,"confidence":4},{"trial_n":48,"n_dots":3.25,"target":"left","response":"left","rt":787.80000007153,"correct":true,"confidence":4},{"trial_n":49,"n_dots":3.25,"target":"right","response":"right","rt":686.29999995232,"correct":true,"confidence":5},{"trial_n":50,"n_dots":3.15,"target":"right","response":"right","rt":748.29999995232,"correct":true,"confidence":4},{"trial_n":51,"n_dots":3.15,"target":"left","response":"right","rt":6019.7000000477,"correct":false,"confidence":4},{"trial_n":52,"n_dots":3.25,"target":"right","response":"right","rt":955,"correct":true,"confidence":4},{"trial_n":53,"n_dots":3.25,"target":"left","response":"right","rt":805.79999995232,"correct":false,"confidence":4},{"trial_n":54,"n_dots":3.35,"target":"right","response":"left","rt":3147.5,"correct":false,"confidence":3},{"trial_n":55,"n_dots":3.45,"target":"right","response":"left","rt":929.39999997616,"correct":false,"confidence":4},{"trial_n":56,"n_dots":3.55,"target":"right","response":"right","rt":963.60000002384,"correct":true,"confidence":4},{"trial_n":57,"n_dots":3.55,"target":"left","response":"right","rt":901.39999997616,"correct":false,"confidence":4},{"trial_n":58,"n_dots":3.65,"target":"left","response":"right","rt":2582.7000000477,"correct":false,"confidence":4},{"trial_n":59,"n_dots":3.75,"target":"left","response":"right","rt":728.10000002384,"correct":false,"confidence":4},{"trial_n":60,"n_dots":3.85,"target":"left","response":"left","rt":2796.7000000477,"correct":true,"confidence":3},{"trial_n":61,"n_dots":3.85,"target":"right","response":"left","rt":3063.3999999762,"correct":false,"confidence":1},{"trial_n":62,"n_dots":3.95,"target":"right","response":"right","rt":684.20000004768,"correct":true,"confidence":4},{"trial_n":63,"n_dots":3.95,"target":"left","response":"left","rt":837.89999997616,"correct":true,"confidence":5},{"trial_n":64,"n_dots":3.85,"target":"right","response":"right","rt":961.69999992847,"correct":true,"confidence":5},{"trial_n":65,"n_dots":3.85,"target":"right","response":"right","rt":853.89999997616,"correct":true,"confidence":5},{"trial_n":66,"n_dots":3.75,"target":"right","response":"right","rt":933.59999990463,"correct":true,"confidence":5},{"trial_n":67,"n_dots":3.75,"target":"left","response":"left","rt":773.29999995232,"correct":true,"confidence":4},{"trial_n":68,"n_dots":3.65,"target":"right","response":"right","rt":885.60000002384,"correct":true,"confidence":4},{"trial_n":69,"n_dots":3.65,"target":"left","response":"right","rt":1087.6999999285,"correct":false,"confidence":4},{"trial_n":70,"n_dots":3.75,"target":"left","response":"right","rt":921.5,"correct":false,"confidence":5},{"trial_n":71,"n_dots":3.85,"target":"right","response":"left","rt":2764.6000000238,"correct":false,"confidence":4},{"trial_n":72,"n_dots":3.95,"target":"right","response":"right","rt":2233.7000000477,"correct":true,"confidence":4},{"trial_n":73,"n_dots":3.95,"target":"right","response":"right","rt":1242.3000000715,"correct":true,"confidence":4},{"trial_n":74,"n_dots":3.85,"target":"left","response":"left","rt":1436.0999999046,"correct":true,"confidence":4},{"trial_n":75,"n_dots":3.85,"target":"right","response":"right","rt":1082.5,"correct":true,"confidence":4},{"trial_n":76,"n_dots":3.75,"target":"left","response":"left","rt":1490.5,"correct":true,"confidence":4},{"trial_n":77,"n_dots":3.75,"target":"left","response":"right","rt":1831,"correct":false,"confidence":3},{"trial_n":78,"n_dots":3.85,"target":"left","response":"right","rt":3679,"correct":false,"confidence":4},{"trial_n":79,"n_dots":3.95,"target":"right","response":"left","rt":2509.7000000477,"correct":false,"confidence":4},{"trial_n":80,"n_dots":4.05,"target":"left","response":"right","rt":2538.2999999523,"correct":false,"confidence":4},{"trial_n":81,"n_dots":4.15,"target":"left","response":"left","rt":1166.2000000477,"correct":true,"confidence":4},{"trial_n":82,"n_dots":4.15,"target":"left","response":"left","rt":887.79999995232,"correct":true,"confidence":5},{"trial_n":83,"n_dots":4.05,"target":"left","response":"right","rt":2911.5,"correct":false,"confidence":4},{"trial_n":84,"n_dots":4.15,"target":"left","response":"left","rt":2314.3000000715,"correct":true,"confidence":4},{"trial_n":85,"n_dots":4.15,"target":"right","response":"right","rt":2807.1999999285,"correct":true,"confidence":4},{"trial_n":86,"n_dots":4.05,"target":"right","response":"right","rt":1620.1999999285,"correct":true,"confidence":3},{"trial_n":87,"n_dots":4.05,"target":"left","response":"left","rt":1543.5,"correct":true,"confidence":3},{"trial_n":88,"n_dots":3.95,"target":"left","response":"left","rt":1255.6000000238,"correct":true,"confidence":4},{"trial_n":89,"n_dots":3.95,"target":"left","response":"left","rt":663,"correct":true,"confidence":4},{"trial_n":90,"n_dots":3.85,"target":"right","response":"right","rt":1359.3000000715,"correct":true,"confidence":4},{"trial_n":91,"n_dots":3.85,"target":"left","response":"left","rt":865.39999997616,"correct":true,"confidence":4},{"trial_n":92,"n_dots":3.75,"target":"left","response":"right","rt":1078.7000000477,"correct":false,"confidence":4},{"trial_n":93,"n_dots":3.85,"target":"left","response":"left","rt":1090.7000000477,"correct":true,"confidence":4},{"trial_n":94,"n_dots":3.85,"target":"left","response":"left","rt":891.10000002384,"correct":true,"confidence":3},{"trial_n":95,"n_dots":3.75,"target":"right","response":"right","rt":896.39999997616,"correct":true,"confidence":4},{"trial_n":96,"n_dots":3.75,"target":"left","response":"right","rt":1003.3999999762,"correct":false,"confidence":4},{"trial_n":97,"n_dots":3.85,"target":"left","response":"right","rt":980.5,"correct":false,"confidence":4},{"trial_n":98,"n_dots":3.95,"target":"right","response":"right","rt":944.60000002384,"correct":true,"confidence":4},{"trial_n":99,"n_dots":3.95,"target":"left","response":"left","rt":1187.3999999762,"correct":true,"confidence":4},{"trial_n":100,"n_dots":3.85,"target":"right","response":"right","rt":1240.4000000954,"correct":true,"confidence":4},{"trial_n":101,"n_dots":3.85,"target":"left","response":"left","rt":1396.3999999762,"correct":true,"confidence":4},{"trial_n":102,"n_dots":3.75,"target":"left","response":"right","rt":1608.7999999523,"correct":false,"confidence":4},{"trial_n":103,"n_dots":3.85,"target":"left","response":"right","rt":10639.700000048,"correct":false,"confidence":3},{"trial_n":104,"n_dots":3.95,"target":"left","response":"left","rt":6439.5,"correct":true,"confidence":3},{"trial_n":105,"n_dots":3.95,"target":"left","response":"left","rt":892,"correct":true,"confidence":5},{"trial_n":106,"n_dots":3.85,"target":"right","response":"right","rt":1503.1999999285,"correct":true,"confidence":5},{"trial_n":107,"n_dots":3.85,"target":"left","response":"right","rt":3653,"correct":false,"confidence":4},{"trial_n":108,"n_dots":3.95,"target":"right","response":"right","rt":1780,"correct":true,"confidence":4},{"trial_n":109,"n_dots":3.95,"target":"right","response":"right","rt":775.69999992847,"correct":true,"confidence":4},{"trial_n":110,"n_dots":3.85,"target":"right","response":"right","rt":895.70000004768,"correct":true,"confidence":3},{"trial_n":111,"n_dots":3.85,"target":"left","response":"left","rt":909,"correct":true,"confidence":3},{"trial_n":112,"n_dots":3.75,"target":"left","response":"left","rt":892.89999997616,"correct":true,"confidence":5},{"trial_n":113,"n_dots":3.75,"target":"left","response":"left","rt":871.29999995232,"correct":true,"confidence":5},{"trial_n":114,"n_dots":3.65,"target":"right","response":"right","rt":1366.2999999523,"correct":true,"confidence":4},{"trial_n":115,"n_dots":3.65,"target":"right","response":"right","rt":549.30000007153,"correct":true,"confidence":4},{"trial_n":116,"n_dots":3.55,"target":"left","response":"left","rt":1945.6999999285,"correct":true,"confidence":3},{"trial_n":117,"n_dots":3.55,"target":"right","response":"right","rt":1438.8000000715,"correct":true,"confidence":4},{"trial_n":118,"n_dots":3.45,"target":"left","response":"left","rt":2189.7999999523,"correct":true,"confidence":3},{"trial_n":119,"n_dots":3.45,"target":"left","response":"right","rt":1763,"correct":false,"confidence":4},{"trial_n":120,"n_dots":3.55,"target":"left","response":"left","rt":1849.3000000715,"correct":true,"confidence":3},{"trial_n":121,"n_dots":3.55,"target":"right","response":"right","rt":750.5,"correct":true,"confidence":4},{"trial_n":122,"n_dots":3.45,"target":"right","response":"right","rt":707.10000002384,"correct":true,"confidence":4},{"trial_n":123,"n_dots":3.45,"target":"left","response":"left","rt":1014.3999999762,"correct":true,"confidence":4},{"trial_n":124,"n_dots":3.35,"target":"right","response":"right","rt":654.80000007153,"correct":true,"confidence":5},{"trial_n":125,"n_dots":3.35,"target":"right","response":"right","rt":684.89999997616,"correct":true,"confidence":5},{"trial_n":126,"n_dots":3.25,"target":"right","response":"right","rt":2392.7000000477,"correct":true,"confidence":5},{"trial_n":127,"n_dots":3.25,"target":"right","response":"right","rt":1824.3999999762,"correct":true,"confidence":4},{"trial_n":128,"n_dots":3.15,"target":"right","response":"right","rt":1515.7000000477,"correct":true,"confidence":3},{"trial_n":129,"n_dots":3.15,"target":"right","response":"right","rt":1835.7000000477,"correct":true,"confidence":4},{"trial_n":130,"n_dots":3.05,"target":"left","response":"left","rt":1287.2000000477,"correct":true,"confidence":3},{"trial_n":131,"n_dots":3.05,"target":"right","response":"right","rt":930.89999997616,"correct":true,"confidence":3},{"trial_n":132,"n_dots":2.95,"target":"right","response":"right","rt":1114.3999999762,"correct":true,"confidence":4},{"trial_n":133,"n_dots":2.95,"target":"right","response":"right","rt":1085.1999999285,"correct":true,"confidence":3},{"trial_n":134,"n_dots":2.85,"target":"left","response":"right","rt":3249.2000000477,"correct":false,"confidence":3},{"trial_n":135,"n_dots":2.95,"target":"right","response":"left","rt":3711.6000000238,"correct":false,"confidence":3},{"trial_n":136,"n_dots":3.05,"target":"right","response":"left","rt":971.30000007153,"correct":false,"confidence":2},{"trial_n":137,"n_dots":3.15,"target":"right","response":"right","rt":907.39999997616,"correct":true,"confidence":5},{"trial_n":138,"n_dots":3.15,"target":"left","response":"left","rt":1617.1999999285,"correct":true,"confidence":3},{"trial_n":139,"n_dots":3.05,"target":"left","response":"right","rt":1207.0999999046,"correct":false,"confidence":3},{"trial_n":140,"n_dots":3.15,"target":"right","response":"right","rt":3540.1999999285,"correct":true,"confidence":3},{"trial_n":141,"n_dots":3.15,"target":"right","response":"right","rt":981.70000004768,"correct":true,"confidence":3},{"trial_n":142,"n_dots":3.05,"target":"left","response":"right","rt":13285.799999952,"correct":false,"confidence":3},{"trial_n":143,"n_dots":3.15,"target":"left","response":"right","rt":20042.600000024,"correct":false,"confidence":3},{"trial_n":144,"n_dots":3.25,"target":"left","response":"right","rt":925.79999995232,"correct":false,"confidence":4},{"trial_n":145,"n_dots":3.35,"target":"right","response":"right","rt":742.5,"correct":true,"confidence":3},{"trial_n":146,"n_dots":3.35,"target":"right","response":"left","rt":976.70000004768,"correct":false,"confidence":3},{"trial_n":147,"n_dots":3.45,"target":"right","response":"right","rt":2168.8000000715,"correct":true,"confidence":3},{"trial_n":148,"n_dots":3.45,"target":"right","response":"right","rt":677.5,"correct":true,"confidence":4},{"trial_n":149,"n_dots":3.35,"target":"left","response":"left","rt":795.79999995232,"correct":true,"confidence":3},{"trial_n":150,"n_dots":3.35,"target":"right","response":"right","rt":611.10000002384,"correct":true,"confidence":3},{"trial_n":151,"n_dots":3.25,"target":"right","response":"left","rt":4458.5,"correct":false,"confidence":3},{"trial_n":152,"n_dots":3.35,"target":"right","response":"right","rt":777,"correct":true,"confidence":3},{"trial_n":153,"n_dots":3.35,"target":"left","response":"right","rt":883.20000004768,"correct":false,"confidence":3},{"trial_n":154,"n_dots":3.45,"target":"right","response":"left","rt":1097.8000000715,"correct":false,"confidence":5},{"trial_n":155,"n_dots":3.55,"target":"right","response":"right","rt":1869,"correct":true,"confidence":4},{"trial_n":156,"n_dots":3.55,"target":"right","response":"right","rt":877,"correct":true,"confidence":4},{"trial_n":157,"n_dots":3.45,"target":"right","response":"left","rt":1855.2999999523,"correct":false,"confidence":3},{"trial_n":158,"n_dots":3.55,"target":"left","response":"left","rt":788.79999995232,"correct":true,"confidence":3},{"trial_n":159,"n_dots":3.55,"target":"right","response":"left","rt":695.29999995232,"correct":false,"confidence":2},{"trial_n":160,"n_dots":3.65,"target":"left","response":"left","rt":579.89999997616,"correct":true,"confidence":4},{"trial_n":161,"n_dots":3.65,"target":"right","response":"left","rt":855,"correct":false,"confidence":3},{"trial_n":162,"n_dots":3.75,"target":"right","response":"right","rt":1016.2000000477,"correct":true,"confidence":4},{"trial_n":163,"n_dots":3.75,"target":"left","response":"left","rt":813.10000002384,"correct":true,"confidence":4},{"trial_n":164,"n_dots":3.65,"target":"left","response":"left","rt":944.10000002384,"correct":true,"confidence":3},{"trial_n":165,"n_dots":3.65,"target":"right","response":"right","rt":691.19999992847,"correct":true,"confidence":3},{"trial_n":166,"n_dots":3.55,"target":"left","response":"left","rt":1196.2000000477,"correct":true,"confidence":3},{"trial_n":167,"n_dots":3.55,"target":"left","response":"right","rt":808.79999995232,"correct":false,"confidence":3},{"trial_n":168,"n_dots":3.65,"target":"right","response":"right","rt":600.5,"correct":true,"confidence":3},{"trial_n":169,"n_dots":3.65,"target":"left","response":"right","rt":926.5,"correct":false,"confidence":4},{"trial_n":170,"n_dots":3.75,"target":"left","response":"left","rt":783,"correct":true,"confidence":4},{"trial_n":171,"n_dots":3.75,"target":"right","response":"right","rt":794.30000007153,"correct":true,"confidence":4},{"trial_n":172,"n_dots":3.65,"target":"right","response":"right","rt":914.70000004768,"correct":true,"confidence":4},{"trial_n":173,"n_dots":3.65,"target":"right","response":"right","rt":687.20000004768,"correct":true,"confidence":3},{"trial_n":174,"n_dots":3.55,"target":"right","response":"right","rt":717.29999995232,"correct":true,"confidence":4},{"trial_n":175,"n_dots":3.55,"target":"right","response":"right","rt":707.19999992847,"correct":true,"confidence":4},{"trial_n":176,"n_dots":3.45,"target":"left","response":"left","rt":1696.4000000954,"correct":true,"confidence":3},{"trial_n":177,"n_dots":3.45,"target":"right","response":"right","rt":1231.3999999762,"correct":true,"confidence":3},{"trial_n":178,"n_dots":3.35,"target":"left","response":"right","rt":3224,"correct":false,"confidence":3},{"trial_n":179,"n_dots":3.45,"target":"left","response":"right","rt":779.5,"correct":false,"confidence":3},{"trial_n":180,"n_dots":3.55,"target":"left","response":"left","rt":10312.599999905,"correct":true,"confidence":3},{"trial_n":181,"n_dots":3.55,"target":"right","response":"right","rt":4893.7000000477,"correct":true,"confidence":3},{"trial_n":182,"n_dots":3.45,"target":"left","response":"right","rt":2762.2000000477,"correct":false,"confidence":3},{"trial_n":183,"n_dots":3.55,"target":"left","response":"left","rt":2128.7000000477,"correct":true,"confidence":3},{"trial_n":184,"n_dots":3.55,"target":"left","response":"right","rt":6567.2999999523,"correct":false,"confidence":4},{"trial_n":185,"n_dots":3.65,"target":"right","response":"right","rt":5325.7999999523,"correct":true,"confidence":4},{"trial_n":186,"n_dots":3.65,"target":"left","response":"right","rt":3483.7999999523,"correct":false,"confidence":4},{"trial_n":187,"n_dots":3.75,"target":"right","response":"left","rt":861.60000002384,"correct":false,"confidence":4},{"trial_n":188,"n_dots":3.85,"target":"left","response":"right","rt":807.40000009537,"correct":false,"confidence":4},{"trial_n":189,"n_dots":3.95,"target":"right","response":"left","rt":2308.8000000715,"correct":false,"confidence":4},{"trial_n":190,"n_dots":4.05,"target":"left","response":"right","rt":5489,"correct":false,"confidence":3},{"trial_n":191,"n_dots":4.15,"target":"right","response":"right","rt":5785.1999999285,"correct":true,"confidence":3},{"trial_n":192,"n_dots":4.15,"target":"right","response":"right","rt":1913.0999999046,"correct":true,"confidence":4},{"trial_n":193,"n_dots":4.05,"target":"left","response":"left","rt":4467.7999999523,"correct":true,"confidence":3},{"trial_n":194,"n_dots":4.05,"target":"left","response":"right","rt":6592,"correct":false,"confidence":3}]