[{"trial_n":1,"n_dots":4.25,"target":"right","response":"right","rt":7533.5,"correct":true,"confidence":-1},{"trial_n":2,"n_dots":4.25,"target":"right","response":"right","rt":1230.1999999285,"correct":true,"confidence":-1},{"trial_n":3,"n_dots":3.85,"target":"left","response":"right","rt":2548,"correct":false,"confidence":-1},{"trial_n":4,"n_dots":4.25,"target":"left","response":"left","rt":1399,"correct":true,"confidence":-1},{"trial_n":5,"n_dots":4.25,"target":"left","response":"left","rt":998.60000002384,"correct":true,"confidence":-1},{"trial_n":6,"n_dots":3.85,"target":"right","response":"right","rt":748.5,"correct":true,"confidence":-1},{"trial_n":7,"n_dots":3.85,"target":"left","response":"left","rt":800.10000002384,"correct":true,"confidence":-1},{"trial_n":8,"n_dots":3.65,"target":"left","response":"left","rt":979.10000002384,"correct":true,"confidence":-1},{"trial_n":9,"n_dots":3.65,"target":"left","response":"right","rt":684.5,"correct":false,"confidence":-1},{"trial_n":10,"n_dots":3.85,"target":"right","response":"right","rt":518.80000007153,"correct":true,"confidence":-1},{"trial_n":11,"n_dots":3.85,"target":"left","response":"left","rt":782.60000002384,"correct":true,"confidence":-1},{"trial_n":12,"n_dots":3.65,"target":"right","response":"right","rt":903.80000007153,"correct":true,"confidence":-1},{"trial_n":13,"n_dots":3.65,"target":"right","response":"left","rt":735.70000004768,"correct":false,"confidence":-1},{"trial_n":14,"n_dots":3.75,"target":"right","response":"left","rt":1255.3000000715,"correct":false,"confidence":-1},{"trial_n":15,"n_dots":3.85,"target":"right","response":"right","rt":701.89999997616,"correct":true,"confidence":-1},{"trial_n":16,"n_dots":3.85,"target":"left","response":"left","rt":771.60000002384,"correct":true,"confidence":-1},{"trial_n":17,"n_dots":3.75,"target":"left","response":"left","rt":765.5,"correct":true,"confidence":-1},{"trial_n":18,"n_dots":3.75,"target":"left","response":"left","rt":698.39999997616,"correct":true,"confidence":-1},{"trial_n":19,"n_dots":3.65,"target":"right","response":"right","rt":497.60000002384,"correct":true,"confidence":-1},{"trial_n":20,"n_dots":3.65,"target":"right","response":"right","rt":695.20000004768,"correct":true,"confidence":-1},{"trial_n":21,"n_dots":3.55,"target":"right","response":"right","rt":485.89999997616,"correct":true,"confidence":-1},{"trial_n":22,"n_dots":3.55,"target":"left","response":"right","rt":655.20000004768,"correct":false,"confidence":-1},{"trial_n":23,"n_dots":3.65,"target":"right","response":"right","rt":778.39999997616,"correct":true,"confidence":-1},{"trial_n":24,"n_dots":3.65,"target":"left","response":"right","rt":439.10000002384,"correct":false,"confidence":-1},{"trial_n":25,"n_dots":3.75,"target":"right","response":"left","rt":923.10000002384,"correct":false,"confidence":-1},{"trial_n":26,"n_dots":3.85,"target":"left","response":"left","rt":795.89999997616,"correct":true,"confidence":-1},{"trial_n":27,"n_dots":3.85,"target":"left","response":"left","rt":750.19999992847,"correct":true,"confidence":6},{"trial_n":28,"n_dots":3.75,"target":"left","response":"left","rt":874,"correct":true,"confidence":6},{"trial_n":29,"n_dots":3.75,"target":"left","response":"right","rt":971.09999990463,"correct":false,"confidence":3},{"trial_n":30,"n_dots":3.85,"target":"right","response":"right","rt":791.79999995232,"correct":true,"confidence":6},{"trial_n":31,"n_dots":3.85,"target":"right","response":"right","rt":803.30000007153,"correct":true,"confidence":6},{"trial_n":32,"n_dots":3.75,"target":"right","response":"right","rt":886.09999990463,"correct":true,"confidence":6},{"trial_n":33,"n_dots":3.75,"target":"right","response":"left","rt":1932.7999999523,"correct":false,"confidence":4},{"trial_n":34,"n_dots":3.85,"target":"left","response":"right","rt":934.10000002384,"correct":false,"confidence":6},{"trial_n":35,"n_dots":3.95,"target":"right","response":"right","rt":1148.5,"correct":true,"confidence":5},{"trial_n":36,"n_dots":3.95,"target":"left","response":"left","rt":1027,"correct":true,"confidence":4},{"trial_n":37,"n_dots":3.85,"target":"left","response":"left","rt":1041.3999999762,"correct":true,"confidence":6},{"trial_n":38,"n_dots":3.85,"target":"right","response":"right","rt":1833.3999999762,"correct":true,"confidence":2},{"trial_n":39,"n_dots":3.75,"target":"left","response":"left","rt":970.10000002384,"correct":true,"confidence":5},{"trial_n":40,"n_dots":3.75,"target":"right","response":"right","rt":644.29999995232,"correct":true,"confidence":6},{"trial_n":41,"n_dots":3.65,"target":"right","response":"right","rt":616.89999997616,"correct":true,"confidence":6},{"trial_n":42,"n_dots":3.65,"target":"left","response":"right","rt":1357.5,"correct":false,"confidence":5},{"trial_n":43,"n_dots":3.75,"target":"right","response":"left","rt":1124.8999999762,"correct":false,"confidence":4},{"trial_n":44,"n_dots":3.85,"target":"right","response":"right","rt":653.29999995232,"correct":true,"confidence":6},{"trial_n":45,"n_dots":3.85,"target":"left","response":"left","rt":926.29999995232,"correct":true,"confidence":5},{"trial_n":46,"n_dots":3.75,"target":"right","response":"right","rt":458.69999992847,"correct":true,"confidence":6},{"trial_n":47,"n_dots":3.75,"target":"right","response":"right","rt":485.90000009537,"correct":true,"confidence":6},{"trial_n":48,"n_dots":3.65,"target":"left","response":"left","rt":792.39999997616,"correct":true,"confidence":2},{"trial_n":49,"n_dots":3.65,"target":"left","response":"right","rt":946.39999997616,"correct":false,"confidence":5},{"trial_n":50,"n_dots":3.75,"target":"right","response":"right","rt":552.79999995232,"correct":true,"confidence":6},{"trial_n":51,"n_dots":3.75,"target":"right","response":"right","rt":1492.7000000477,"correct":true,"confidence":4},{"trial_n":52,"n_dots":3.65,"target":"right","response":"left","rt":882.79999995232,"correct":false,"confidence":4},{"trial_n":53,"n_dots":3.75,"target":"left","response":"left","rt":2001.5,"correct":true,"confidence":6},{"trial_n":54,"n_dots":3.75,"target":"right","response":"right","rt":692.79999995232,"correct":true,"confidence":5},{"trial_n":55,"n_dots":3.65,"target":"right","response":"right","rt":800.79999995232,"correct":true,"confidence":4},{"trial_n":56,"n_dots":3.65,"target":"right","response":"right","rt":506.80000007153,"correct":true,"confidence":6},{"trial_n":57,"n_dots":3.55,"target":"right","response":"right","rt":1852.0999999046,"correct":true,"confidence":5},{"trial_n":58,"n_dots":3.55,"target":"left","response":"left","rt":713.5,"correct":true,"confidence":4},{"trial_n":59,"n_dots":3.45,"target":"left","response":"left","rt":691,"correct":true,"confidence":6},{"trial_n":60,"n_dots":3.45,"target":"right","response":"right","rt":807.80000007153,"correct":true,"confidence":5},{"trial_n":61,"n_dots":3.35,"target":"right","response":"right","rt":744.5,"correct":true,"confidence":4},{"trial_n":62,"n_dots":3.35,"target":"right","response":"left","rt":772.39999997616,"correct":false,"confidence":1},{"trial_n":63,"n_dots":3.45,"target":"left","response":"left","rt":985.5,"correct":true,"confidence":6},{"trial_n":64,"n_dots":3.45,"target":"right","response":"right","rt":589.79999995232,"correct":true,"confidence":5},{"trial_n":65,"n_dots":3.35,"target":"right","response":"right","rt":3614.3999999762,"correct":true,"confidence":5},{"trial_n":66,"n_dots":3.35,"target":"right","response":"left","rt":1280.6000000238,"correct":false,"confidence":5},{"trial_n":67,"n_dots":3.45,"target":"right","response":"right","rt":1039.6999999285,"correct":true,"confidence":5},{"trial_n":68,"n_dots":3.45,"target":"left","response":"left","rt":765.70000004768,"correct":true,"confidence":6},{"trial_n":69,"n_dots":3.35,"target":"left","response":"right","rt":542,"correct":false,"confidence":6},{"trial_n":70,"n_dots":3.45,"target":"left","response":"left","rt":849,"correct":true,"confidence":6},{"trial_n":71,"n_dots":3.45,"target":"left","response":"right","rt":592.60000002384,"correct":false,"confidence":5},{"trial_n":72,"n_dots":3.55,"target":"right","response":"right","rt":454.10000002384,"correct":true,"confidence":6},{"trial_n":73,"n_dots":3.55,"target":"right","response":"right","rt":1042.3000000715,"correct":true,"confidence":6},{"trial_n":74,"n_dots":3.45,"target":"right","response":"left","rt":1012.9000000954,"correct":false,"confidence":2},{"trial_n":75,"n_dots":3.55,"target":"right","response":"right","rt":504.60000002384,"correct":true,"confidence":6},{"trial_n":76,"n_dots":3.55,"target":"left","response":"left","rt":1327.6000000238,"correct":true,"confidence":4},{"trial_n":77,"n_dots":3.45,"target":"right","response":"right","rt":733.29999995232,"correct":true,"confidence":6},{"trial_n":78,"n_dots":3.45,"target":"right","response":"right","rt":583,"correct":true,"confidence":6},{"trial_n":79,"n_dots":3.35,"target":"left","response":"left","rt":966.70000004768,"correct":true,"confidence":4},{"trial_n":80,"n_dots":3.35,"target":"left","response":"left","rt":794.39999997616,"correct":true,"confidence":6},{"trial_n":81,"n_dots":3.25,"target":"right","response":"right","rt":1808.6000000238,"correct":true,"confidence":6},{"trial_n":82,"n_dots":3.25,"target":"left","response":"left","rt":1022.6000000238,"correct":true,"confidence":6},{"trial_n":83,"n_dots":3.15,"target":"right","response":"right","rt":1424.6000000238,"correct":true,"confidence":6},{"trial_n":84,"n_dots":3.15,"target":"right","response":"right","rt":2498.8999999762,"correct":true,"confidence":5},{"trial_n":85,"n_dots":3.05,"target":"right","response":"left","rt":971,"correct":false,"confidence":5},{"trial_n":86,"n_dots":3.15,"target":"left","response":"right","rt":1315.7000000477,"correct":false,"confidence":6},{"trial_n":87,"n_dots":3.25,"target":"left","response":"left","rt":899.29999995232,"correct":true,"confidence":6},{"trial_n":88,"n_dots":3.25,"target":"left","response":"left","rt":925.70000004768,"correct":true,"confidence":1},{"trial_n":89,"n_dots":3.15,"target":"right","response":"right","rt":728.5,"correct":true,"confidence":6},{"trial_n":90,"n_dots":3.15,"target":"right","response":"left","rt":1998.2000000477,"correct":false,"confidence":1},{"trial_n":91,"n_dots":3.25,"target":"right","response":"right","rt":800.90000009537,"correct":true,"confidence":5},{"trial_n":92,"n_dots":3.25,"target":"right","response":"left","rt":981.5,"correct":false,"confidence":5},{"trial_n":93,"n_dots":3.35,"target":"left","response":"right","rt":796.80000007153,"correct":false,"confidence":6},{"trial_n":94,"n_dots":3.45,"target":"left","response":"left","rt":806,"correct":true,"confidence":5},{"trial_n":95,"n_dots":3.45,"target":"left","response":"right","rt":784,"correct":false,"confidence":5},{"trial_n":96,"n_dots":3.55,"target":"right","response":"right","rt":645.39999997616,"correct":true,"confidence":6},{"trial_n":97,"n_dots":3.55,"target":"right","response":"right","rt":631.10000002384,"correct":true,"confidence":6},{"trial_n":98,"n_dots":3.45,"target":"left","response":"left","rt":916.90000009537,"correct":true,"confidence":6},{"trial_n":99,"n_dots":3.45,"target":"right","response":"right","rt":574.10000002384,"correct":true,"confidence":6},{"trial_n":100,"n_dots":3.35,"target":"right","response":"right","rt":506.60000002384,"correct":true,"confidence":6},{"trial_n":101,"n_dots":3.35,"target":"left","response":"right","rt":737.29999995232,"correct":false,"confidence":6},{"trial_n":102,"n_dots":3.45,"target":"left","response":"right","rt":680.29999995232,"correct":false,"confidence":5},{"trial_n":103,"n_dots":3.55,"target":"left","response":"left","rt":777.70000004768,"correct":true,"confidence":6},{"trial_n":104,"n_dots":3.55,"target":"left","response":"left","rt":1601.1999999285,"correct":true,"confidence":6},{"trial_n":105,"n_dots":3.45,"target":"right","response":"right","rt":514.69999992847,"correct":true,"confidence":6},{"trial_n":106,"n_dots":3.45,"target":"right","response":"right","rt":783.79999995232,"correct":true,"confidence":1},{"trial_n":107,"n_dots":3.35,"target":"right","response":"left","rt":1046.6000000238,"correct":false,"confidence":1},{"trial_n":108,"n_dots":3.45,"target":"right","response":"right","rt":614.39999997616,"correct":true,"confidence":6},{"trial_n":109,"n_dots":3.45,"target":"left","response":"left","rt":822.10000002384,"correct":true,"confidence":5},{"trial_n":110,"n_dots":3.35,"target":"left","response":"left","rt":982.60000002384,"correct":true,"confidence":5},{"trial_n":111,"n_dots":3.35,"target":"right","response":"right","rt":706.89999997616,"correct":true,"confidence":6},{"trial_n":112,"n_dots":3.25,"target":"left","response":"left","rt":798.5,"correct":true,"confidence":6},{"trial_n":113,"n_dots":3.25,"target":"left","response":"right","rt":879.5,"correct":false,"confidence":5},{"trial_n":114,"n_dots":3.35,"target":"right","response":"left","rt":660.5,"correct":false,"confidence":6},{"trial_n":115,"n_dots":3.45,"target":"left","response":"left","rt":588.70000004768,"correct":true,"confidence":5},{"trial_n":116,"n_dots":3.45,"target":"right","response":"right","rt":847.70000004768,"correct":true,"confidence":3},{"trial_n":117,"n_dots":3.35,"target":"left","response":"left","rt":702.19999992847,"correct":true,"confidence":5},{"trial_n":118,"n_dots":3.35,"target":"left","response":"left","rt":796.29999995232,"correct":true,"confidence":5},{"trial_n":119,"n_dots":3.25,"target":"left","response":"left","rt":765.59999990463,"correct":true,"confidence":3},{"trial_n":120,"n_dots":3.25,"target":"left","response":"left","rt":1143.7000000477,"correct":true,"confidence":6},{"trial_n":121,"n_dots":3.15,"target":"right","response":"right","rt":1022.8999999762,"correct":true,"confidence":6},{"trial_n":122,"n_dots":3.15,"target":"right","response":"right","rt":1226,"correct":true,"confidence":5},{"trial_n":123,"n_dots":3.05,"target":"right","response":"right","rt":859.10000002384,"correct":true,"confidence":6},{"trial_n":124,"n_dots":3.05,"target":"left","response":"left","rt":875.79999995232,"correct":true,"confidence":2},{"trial_n":125,"n_dots":2.95,"target":"left","response":"left","rt":1673.9000000954,"correct":true,"confidence":2},{"trial_n":126,"n_dots":2.95,"target":"right","response":"right","rt":913.20000004768,"correct":true,"confidence":4},{"trial_n":127,"n_dots":2.85,"target":"left","response":"left","rt":2354.6999999285,"correct":true,"confidence":2},{"trial_n":128,"n_dots":2.85,"target":"right","response":"right","rt":1473.0999999046,"correct":true,"confidence":3},{"trial_n":129,"n_dots":2.75,"target":"right","response":"left","rt":964.40000009537,"correct":false,"confidence":5},{"trial_n":130,"n_dots":2.85,"target":"right","response":"left","rt":1041.8999999762,"correct":false,"confidence":4},{"trial_n":131,"n_dots":2.95,"target":"left","response":"right","rt":650.79999995232,"correct":false,"confidence":5},{"trial_n":132,"n_dots":3.05,"target":"left","response":"left","rt":995.70000004768,"correct":true,"confidence":5},{"trial_n":133,"n_dots":3.05,"target":"left","response":"left","rt":1134.3999999762,"correct":true,"confidence":3},{"trial_n":134,"n_dots":2.95,"target":"left","response":"left","rt":1223,"correct":true,"confidence":6},{"trial_n":135,"n_dots":2.95,"target":"left","response":"left","rt":1320.2000000477,"correct":true,"confidence":6},{"trial_n":136,"n_dots":2.85,"target":"left","response":"right","rt":657.39999997616,"correct":false,"confidence":6},{"trial_n":137,"n_dots":2.95,"target":"right","response":"right","rt":1017.3000000715,"correct":true,"confidence":5},{"trial_n":138,"n_dots":2.95,"target":"right","response":"left","rt":1257.2000000477,"correct":false,"confidence":4},{"trial_n":139,"n_dots":3.05,"target":"right","response":"right","rt":596.10000002384,"correct":true,"confidence":6},{"trial_n":140,"n_dots":3.05,"target":"left","response":"left","rt":1327.7999999523,"correct":true,"confidence":5},{"trial_n":141,"n_dots":2.95,"target":"right","response":"right","rt":480.59999990463,"correct":true,"confidence":6},{"trial_n":142,"n_dots":2.95,"target":"right","response":"right","rt":451.30000007153,"correct":true,"confidence":6},{"trial_n":143,"n_dots":2.85,"target":"left","response":"left","rt":547.39999997616,"correct":true,"confidence":6},{"trial_n":144,"n_dots":2.85,"target":"right","response":"right","rt":882.80000007153,"correct":true,"confidence":4},{"trial_n":145,"n_dots":2.75,"target":"right","response":"right","rt":421.40000009537,"correct":true,"confidence":6},{"trial_n":146,"n_dots":2.75,"target":"left","response":"left","rt":853,"correct":true,"confidence":5},{"trial_n":147,"n_dots":2.65,"target":"left","response":"left","rt":1057.2999999523,"correct":true,"confidence":3},{"trial_n":148,"n_dots":2.65,"target":"left","response":"right","rt":484.69999992847,"correct":false,"confidence":6},{"trial_n":149,"n_dots":2.75,"target":"left","response":"left","rt":838.89999997616,"correct":true,"confidence":4},{"trial_n":150,"n_dots":2.75,"target":"left","response":"left","rt":865.60000002384,"correct":true,"confidence":6},{"trial_n":151,"n_dots":2.65,"target":"left","response":"right","rt":474.89999997616,"correct":false,"confidence":6},{"trial_n":152,"n_dots":2.75,"target":"right","response":"left","rt":1417,"correct":false,"confidence":4},{"trial_n":153,"n_dots":2.85,"target":"right","response":"right","rt":436,"correct":true,"confidence":6},{"trial_n":154,"n_dots":2.85,"target":"left","response":"left","rt":1025.8000000715,"correct":true,"confidence":3},{"trial_n":155,"n_dots":2.75,"target":"left","response":"left","rt":904.29999995232,"correct":true,"confidence":6},{"trial_n":156,"n_dots":2.75,"target":"right","response":"right","rt":640.20000004768,"correct":true,"confidence":6},{"trial_n":157,"n_dots":2.65,"target":"left","response":"left","rt":811.39999997616,"correct":true,"confidence":4},{"trial_n":158,"n_dots":2.65,"target":"left","response":"left","rt":1372.8000000715,"correct":true,"confidence":6},{"trial_n":159,"n_dots":2.55,"target":"left","response":"right","rt":768.70000004768,"correct":false,"confidence":2},{"trial_n":160,"n_dots":2.65,"target":"left","response":"left","rt":649.79999995232,"correct":true,"confidence":6},{"trial_n":161,"n_dots":2.65,"target":"right","response":"right","rt":706.30000007153,"correct":true,"confidence":5},{"trial_n":162,"n_dots":2.55,"target":"left","response":"left","rt":1245.9000000954,"correct":true,"confidence":3},{"trial_n":163,"n_dots":2.55,"target":"right","response":"left","rt":1276,"correct":false,"confidence":2},{"trial_n":164,"n_dots":2.65,"target":"left","response":"right","rt":616,"correct":false,"confidence":4},{"trial_n":165,"n_dots":2.75,"target":"left","response":"left","rt":812.69999992847,"correct":true,"confidence":6},{"trial_n":166,"n_dots":2.75,"target":"left","response":"right","rt":1007.9000000954,"correct":false,"confidence":3},{"trial_n":167,"n_dots":2.85,"target":"left","response":"left","rt":638.79999995232,"correct":true,"confidence":6},{"trial_n":168,"n_dots":2.85,"target":"left","response":"left","rt":970.19999992847,"correct":true,"confidence":5},{"trial_n":169,"n_dots":2.75,"target":"right","response":"right","rt":2112.6000000238,"correct":true,"confidence":3},{"trial_n":170,"n_dots":2.75,"target":"right","response":"left","rt":2132.6999999285,"correct":false,"confidence":1},{"trial_n":171,"n_dots":2.85,"target":"right","response":"left","rt":757,"correct":false,"confidence":6},{"trial_n":172,"n_dots":2.95,"target":"left","response":"left","rt":747.89999997616,"correct":true,"confidence":6},{"trial_n":173,"n_dots":2.95,"target":"right","response":"left","rt":1721.6000000238,"correct":false,"confidence":4},{"trial_n":174,"n_dots":3.05,"target":"left","response":"left","rt":887.19999992847,"correct":true,"confidence":6},{"trial_n":175,"n_dots":3.05,"target":"right","response":"right","rt":764.89999997616,"correct":true,"confidence":5},{"trial_n":176,"n_dots":2.95,"target":"left","response":"left","rt":944.39999997616,"correct":true,"confidence":6},{"trial_n":177,"n_dots":2.95,"target":"right","response":"left","rt":1097.6000000238,"correct":false,"confidence":5},{"trial_n":178,"n_dots":3.05,"target":"left","response":"right","rt":626.39999997616,"correct":false,"confidence":6},{"trial_n":179,"n_dots":3.15,"target":"right","response":"left","rt":1186.3000000715,"correct":false,"confidence":4},{"trial_n":180,"n_dots":3.25,"target":"left","response":"right","rt":784.70000004768,"correct":false,"confidence":6},{"trial_n":181,"n_dots":3.35,"target":"right","response":"right","rt":608.5,"correct":true,"confidence":4},{"trial_n":182,"n_dots":3.35,"target":"right","response":"left","rt":824.39999997616,"correct":false,"confidence":3},{"trial_n":183,"n_dots":3.45,"target":"right","response":"right","rt":470.79999995232,"correct":true,"confidence":6},{"trial_n":184,"n_dots":3.45,"target":"right","response":"right","rt":530.30000007153,"correct":true,"confidence":4},{"trial_n":185,"n_dots":3.35,"target":"left","response":"left","rt":3411.3000000715,"correct":true,"confidence":4},{"trial_n":186,"n_dots":3.35,"target":"left","response":"left","rt":1774.7000000477,"correct":true,"confidence":6},{"trial_n":187,"n_dots":3.25,"target":"right","response":"right","rt":693.30000007153,"correct":true,"confidence":4},{"trial_n":188,"n_dots":3.25,"target":"left","response":"right","rt":509,"correct":false,"confidence":6},{"trial_n":189,"n_dots":3.35,"target":"right","response":"right","rt":571.40000009537,"correct":true,"confidence":5},{"trial_n":190,"n_dots":3.35,"target":"right","response":"right","rt":518.39999997616,"correct":true,"confidence":6},{"trial_n":191,"n_dots":3.25,"target":"left","response":"left","rt":874.5,"correct":true,"confidence":5},{"trial_n":192,"n_dots":3.25,"target":"left","response":"left","rt":1131.8999999762,"correct":true,"confidence":4},{"trial_n":193,"n_dots":3.15,"target":"left","response":"left","rt":759.19999992847,"correct":true,"confidence":6},{"trial_n":194,"n_dots":3.15,"target":"left","response":"left","rt":1058.9000000954,"correct":true,"confidence":4}]