[{"trial_n":1,"n_dots":4.25,"target":"right","response":"left","rt":4816.6000000238,"correct":false,"confidence":-1},{"trial_n":2,"n_dots":4.25,"target":"right","response":"left","rt":480.40000009537,"correct":false,"confidence":-1},{"trial_n":3,"n_dots":4.65,"target":"left","response":"left","rt":74.300000071526,"correct":true,"confidence":-1},{"trial_n":4,"n_dots":4.65,"target":"left","response":"right","rt":1336.5,"correct":false,"confidence":-1},{"trial_n":5,"n_dots":5.05,"target":"right","response":"right","rt":270.70000004768,"correct":true,"confidence":-1},{"trial_n":6,"n_dots":5.05,"target":"left","response":"left","rt":236.70000004768,"correct":true,"confidence":-1},{"trial_n":7,"n_dots":4.65,"target":"left","response":"left","rt":102.20000004768,"correct":true,"confidence":-1},{"trial_n":8,"n_dots":4.65,"target":"left","response":"left","rt":58.199999928474,"correct":true,"confidence":-1},{"trial_n":9,"n_dots":4.45,"target":"right","response":"right","rt":109.20000004768,"correct":true,"confidence":-1},{"trial_n":10,"n_dots":4.45,"target":"right","response":"right","rt":448.69999992847,"correct":true,"confidence":-1},{"trial_n":11,"n_dots":4.25,"target":"right","response":"right","rt":347.89999997616,"correct":true,"confidence":-1},{"trial_n":12,"n_dots":4.25,"target":"right","response":"right","rt":207.29999995232,"correct":true,"confidence":-1},{"trial_n":13,"n_dots":4.15,"target":"left","response":"left","rt":56.800000071526,"correct":true,"confidence":-1},{"trial_n":14,"n_dots":4.15,"target":"right","response":"right","rt":735.40000009537,"correct":true,"confidence":-1},{"trial_n":15,"n_dots":4.05,"target":"right","response":"right","rt":46.899999976158,"correct":true,"confidence":-1},{"trial_n":16,"n_dots":4.05,"target":"right","response":"right","rt":389.60000002384,"correct":true,"confidence":-1},{"trial_n":17,"n_dots":3.95,"target":"left","response":"left","rt":712.19999992847,"correct":true,"confidence":-1},{"trial_n":18,"n_dots":3.95,"target":"left","response":"right","rt":3876,"correct":false,"confidence":-1},{"trial_n":19,"n_dots":4.05,"target":"left","response":"left","rt":3.5,"correct":true,"confidence":-1},{"trial_n":20,"n_dots":4.05,"target":"right","response":"right","rt":3216.1999999285,"correct":true,"confidence":-1},{"trial_n":21,"n_dots":3.95,"target":"left","response":"left","rt":456.80000007153,"correct":true,"confidence":-1},{"trial_n":22,"n_dots":3.95,"target":"left","response":"left","rt":97,"correct":true,"confidence":-1},{"trial_n":23,"n_dots":3.85,"target":"right","response":"right","rt":296.39999997616,"correct":true,"confidence":-1},{"trial_n":24,"n_dots":3.85,"target":"right","response":"right","rt":178.10000002384,"correct":true,"confidence":-1},{"trial_n":25,"n_dots":3.75,"target":"left","response":"right","rt":377.19999992847,"correct":false,"confidence":-1},{"trial_n":26,"n_dots":3.85,"target":"right","response":"right","rt":284,"correct":true,"confidence":-1},{"trial_n":27,"n_dots":3.85,"target":"right","response":"right","rt":2615.3999999762,"correct":true,"confidence":3},{"trial_n":28,"n_dots":3.75,"target":"left","response":"left","rt":408.59999990463,"correct":true,"confidence":2},{"trial_n":29,"n_dots":3.75,"target":"left","response":"left","rt":409.29999995232,"correct":true,"confidence":4},{"trial_n":30,"n_dots":3.65,"target":"right","response":"right","rt":451.10000002384,"correct":true,"confidence":6},{"trial_n":31,"n_dots":3.65,"target":"right","response":"right","rt":756.89999997616,"correct":true,"confidence":3},{"trial_n":32,"n_dots":3.55,"target":"left","response":"left","rt":465.10000002384,"correct":true,"confidence":3},{"trial_n":33,"n_dots":3.55,"target":"right","response":"right","rt":386.29999995232,"correct":true,"confidence":4},{"trial_n":34,"n_dots":3.45,"target":"left","response":"left","rt":425.79999995232,"correct":true,"confidence":2},{"trial_n":35,"n_dots":3.45,"target":"right","response":"right","rt":219.20000004768,"correct":true,"confidence":2},{"trial_n":36,"n_dots":3.35,"target":"right","response":"right","rt":370.10000002384,"correct":true,"confidence":3},{"trial_n":37,"n_dots":3.35,"target":"right","response":"right","rt":411.70000004768,"correct":true,"confidence":3},{"trial_n":38,"n_dots":3.25,"target":"left","response":"left","rt":441.69999992847,"correct":true,"confidence":5},{"trial_n":39,"n_dots":3.25,"target":"right","response":"right","rt":471.69999992847,"correct":true,"confidence":4},{"trial_n":40,"n_dots":3.15,"target":"right","response":"right","rt":379,"correct":true,"confidence":6},{"trial_n":41,"n_dots":3.15,"target":"left","response":"left","rt":766.20000004768,"correct":true,"confidence":3},{"trial_n":42,"n_dots":3.05,"target":"left","response":"right","rt":414.20000004768,"correct":false,"confidence":4},{"trial_n":43,"n_dots":3.15,"target":"left","response":"right","rt":385.60000002384,"correct":false,"confidence":3},{"trial_n":44,"n_dots":3.25,"target":"left","response":"right","rt":515.29999995232,"correct":false,"confidence":3},{"trial_n":45,"n_dots":3.35,"target":"left","response":"left","rt":566.10000002384,"correct":true,"confidence":3},{"trial_n":46,"n_dots":3.35,"target":"right","response":"right","rt":528,"correct":true,"confidence":3},{"trial_n":47,"n_dots":3.25,"target":"left","response":"left","rt":545.20000004768,"correct":true,"confidence":6},{"trial_n":48,"n_dots":3.25,"target":"left","response":"left","rt":344.79999995232,"correct":true,"confidence":6},{"trial_n":49,"n_dots":3.15,"target":"left","response":"left","rt":479.80000007153,"correct":true,"confidence":4},{"trial_n":50,"n_dots":3.15,"target":"right","response":"right","rt":248.19999992847,"correct":true,"confidence":3},{"trial_n":51,"n_dots":3.05,"target":"left","response":"left","rt":314.20000004768,"correct":true,"confidence":6},{"trial_n":52,"n_dots":3.05,"target":"right","response":"right","rt":318.19999992847,"correct":true,"confidence":4},{"trial_n":53,"n_dots":2.95,"target":"right","response":"right","rt":122.5,"correct":true,"confidence":3},{"trial_n":54,"n_dots":2.95,"target":"left","response":"left","rt":317.39999997616,"correct":true,"confidence":3},{"trial_n":55,"n_dots":2.85,"target":"right","response":"right","rt":1308.3999999762,"correct":true,"confidence":4},{"trial_n":56,"n_dots":2.85,"target":"right","response":"left","rt":486.89999997616,"correct":false,"confidence":2},{"trial_n":57,"n_dots":2.95,"target":"right","response":"left","rt":577,"correct":false,"confidence":3},{"trial_n":58,"n_dots":3.05,"target":"left","response":"left","rt":405.29999995232,"correct":true,"confidence":4},{"trial_n":59,"n_dots":3.05,"target":"left","response":"left","rt":9.1000000238419,"correct":true,"confidence":3},{"trial_n":60,"n_dots":2.95,"target":"right","response":"right","rt":1021.3999999762,"correct":true,"confidence":3},{"trial_n":61,"n_dots":2.95,"target":"right","response":"left","rt":263.10000002384,"correct":false,"confidence":3},{"trial_n":62,"n_dots":3.05,"target":"left","response":"left","rt":404.60000002384,"correct":true,"confidence":3},{"trial_n":63,"n_dots":3.05,"target":"left","response":"left","rt":688.30000007153,"correct":true,"confidence":3},{"trial_n":64,"n_dots":2.95,"target":"left","response":"left","rt":40.299999952316,"correct":true,"confidence":2},{"trial_n":65,"n_dots":2.95,"target":"left","response":"right","rt":559.30000007153,"correct":false,"confidence":2},{"trial_n":66,"n_dots":3.05,"target":"left","response":"left","rt":490.10000002384,"correct":true,"confidence":3},{"trial_n":67,"n_dots":3.05,"target":"right","response":"right","rt":60.5,"correct":true,"confidence":3},{"trial_n":68,"n_dots":2.95,"target":"left","response":"right","rt":3.1000000238419,"correct":false,"confidence":3},{"trial_n":69,"n_dots":3.05,"target":"left","response":"left","rt":543.60000002384,"correct":true,"confidence":2},{"trial_n":70,"n_dots":3.05,"target":"right","response":"right","rt":262,"correct":true,"confidence":4},{"trial_n":71,"n_dots":2.95,"target":"right","response":"right","rt":732,"correct":true,"confidence":3},{"trial_n":72,"n_dots":2.95,"target":"right","response":"right","rt":767.39999997616,"correct":true,"confidence":3},{"trial_n":73,"n_dots":2.85,"target":"left","response":"right","rt":2502.6999999285,"correct":false,"confidence":2},{"trial_n":74,"n_dots":2.95,"target":"left","response":"left","rt":393.5,"correct":true,"confidence":3},{"trial_n":75,"n_dots":2.95,"target":"right","response":"right","rt":522,"correct":true,"confidence":2},{"trial_n":76,"n_dots":2.85,"target":"right","response":"right","rt":820.39999997616,"correct":true,"confidence":4},{"trial_n":77,"n_dots":2.85,"target":"left","response":"right","rt":868.79999995232,"correct":false,"confidence":3},{"trial_n":78,"n_dots":2.95,"target":"right","response":"right","rt":324.60000002384,"correct":true,"confidence":3},{"trial_n":79,"n_dots":2.95,"target":"right","response":"left","rt":405,"correct":false,"confidence":1},{"trial_n":80,"n_dots":3.05,"target":"right","response":"left","rt":2129.7999999523,"correct":false,"confidence":1},{"trial_n":81,"n_dots":3.15,"target":"right","response":"right","rt":654.90000009537,"correct":true,"confidence":4},{"trial_n":82,"n_dots":3.15,"target":"left","response":"left","rt":658.5,"correct":true,"confidence":1},{"trial_n":83,"n_dots":3.05,"target":"right","response":"right","rt":725.60000002384,"correct":true,"confidence":1},{"trial_n":84,"n_dots":3.05,"target":"left","response":"right","rt":785.60000002384,"correct":false,"confidence":1},{"trial_n":85,"n_dots":3.15,"target":"right","response":"right","rt":1399.7999999523,"correct":true,"confidence":1},{"trial_n":86,"n_dots":3.15,"target":"right","response":"right","rt":570.89999997616,"correct":true,"confidence":1},{"trial_n":87,"n_dots":3.05,"target":"right","response":"right","rt":646.5,"correct":true,"confidence":2},{"trial_n":88,"n_dots":3.05,"target":"left","response":"left","rt":883.30000007153,"correct":true,"confidence":3},{"trial_n":89,"n_dots":2.95,"target":"right","response":"right","rt":585.79999995232,"correct":true,"confidence":5},{"trial_n":90,"n_dots":2.95,"target":"right","response":"right","rt":332.59999990463,"correct":true,"confidence":4},{"trial_n":91,"n_dots":2.85,"target":"right","response":"right","rt":691.29999995232,"correct":true,"confidence":4},{"trial_n":92,"n_dots":2.85,"target":"left","response":"right","rt":583,"correct":false,"confidence":1},{"trial_n":93,"n_dots":2.95,"target":"left","response":"left","rt":614.69999992847,"correct":true,"confidence":1},{"trial_n":94,"n_dots":2.95,"target":"left","response":"right","rt":402.20000004768,"correct":false,"confidence":1},{"trial_n":95,"n_dots":3.05,"target":"left","response":"left","rt":1024.7000000477,"correct":true,"confidence":2},{"trial_n":96,"n_dots":3.05,"target":"right","response":"right","rt":1500.5,"correct":true,"confidence":3},{"trial_n":97,"n_dots":2.95,"target":"left","response":"right","rt":3061.1000000238,"correct":false,"confidence":1},{"trial_n":98,"n_dots":3.05,"target":"left","response":"left","rt":1921.7999999523,"correct":true,"confidence":3},{"trial_n":99,"n_dots":3.05,"target":"right","response":"right","rt":649.40000009537,"correct":true,"confidence":1},{"trial_n":100,"n_dots":2.95,"target":"left","response":"left","rt":470.60000002384,"correct":true,"confidence":2},{"trial_n":101,"n_dots":2.95,"target":"left","response":"left","rt":509,"correct":true,"confidence":3},{"trial_n":102,"n_dots":2.85,"target":"right","response":"right","rt":381.39999997616,"correct":true,"confidence":3},{"trial_n":103,"n_dots":2.85,"target":"left","response":"left","rt":506.5,"correct":true,"confidence":3},{"trial_n":104,"n_dots":2.75,"target":"left","response":"left","rt":137.29999995232,"correct":true,"confidence":2},{"trial_n":105,"n_dots":2.75,"target":"right","response":"left","rt":362.5,"correct":false,"confidence":4},{"trial_n":106,"n_dots":2.85,"target":"left","response":"left","rt":511.5,"correct":true,"confidence":3},{"trial_n":107,"n_dots":2.85,"target":"right","response":"right","rt":603.30000007153,"correct":true,"confidence":3},{"trial_n":108,"n_dots":2.75,"target":"left","response":"left","rt":2796.8999999762,"correct":true,"confidence":3},{"trial_n":109,"n_dots":2.75,"target":"right","response":"right","rt":405,"correct":true,"confidence":3},{"trial_n":110,"n_dots":2.65,"target":"left","response":"left","rt":59,"correct":true,"confidence":3},{"trial_n":111,"n_dots":2.65,"target":"left","response":"left","rt":318.89999997616,"correct":true,"confidence":2},{"trial_n":112,"n_dots":2.55,"target":"left","response":"right","rt":1142.5,"correct":false,"confidence":2},{"trial_n":113,"n_dots":2.65,"target":"right","response":"right","rt":493.80000007153,"correct":true,"confidence":3},{"trial_n":114,"n_dots":2.65,"target":"left","response":"left","rt":485.80000007153,"correct":true,"confidence":3},{"trial_n":115,"n_dots":2.55,"target":"left","response":"right","rt":535.70000004768,"correct":false,"confidence":3},{"trial_n":116,"n_dots":2.65,"target":"left","response":"left","rt":255.80000007153,"correct":true,"confidence":6},{"trial_n":117,"n_dots":2.65,"target":"right","response":"right","rt":319.5,"correct":true,"confidence":5},{"trial_n":118,"n_dots":2.55,"target":"left","response":"left","rt":406.79999995232,"correct":true,"confidence":3},{"trial_n":119,"n_dots":2.55,"target":"right","response":"left","rt":501.10000002384,"correct":false,"confidence":3},{"trial_n":120,"n_dots":2.65,"target":"right","response":"right","rt":661.19999992847,"correct":true,"confidence":3},{"trial_n":121,"n_dots":2.65,"target":"left","response":"right","rt":840.30000007153,"correct":false,"confidence":4},{"trial_n":122,"n_dots":2.75,"target":"left","response":"left","rt":0.60000002384186,"correct":true,"confidence":3},{"trial_n":123,"n_dots":2.75,"target":"left","response":"left","rt":478.70000004768,"correct":true,"confidence":2},{"trial_n":124,"n_dots":2.65,"target":"right","response":"right","rt":655.20000004768,"correct":true,"confidence":4},{"trial_n":125,"n_dots":2.65,"target":"right","response":"left","rt":601.10000002384,"correct":false,"confidence":3},{"trial_n":126,"n_dots":2.75,"target":"right","response":"left","rt":670.39999997616,"correct":false,"confidence":2},{"trial_n":127,"n_dots":2.85,"target":"left","response":"left","rt":260.80000007153,"correct":true,"confidence":2},{"trial_n":128,"n_dots":2.85,"target":"right","response":"right","rt":537.30000007153,"correct":true,"confidence":5},{"trial_n":129,"n_dots":2.75,"target":"left","response":"left","rt":306.5,"correct":true,"confidence":2},{"trial_n":130,"n_dots":2.75,"target":"left","response":"right","rt":686.39999997616,"correct":false,"confidence":4},{"trial_n":131,"n_dots":2.85,"target":"right","response":"right","rt":359,"correct":true,"confidence":4},{"trial_n":132,"n_dots":2.85,"target":"left","response":"left","rt":850.70000004768,"correct":true,"confidence":2},{"trial_n":133,"n_dots":2.75,"target":"left","response":"left","rt":263.69999992847,"correct":true,"confidence":3},{"trial_n":134,"n_dots":2.75,"target":"right","response":"left","rt":366.39999997616,"correct":false,"confidence":2},{"trial_n":135,"n_dots":2.85,"target":"right","response":"left","rt":464.89999997616,"correct":false,"confidence":3},{"trial_n":136,"n_dots":2.95,"target":"right","response":"right","rt":774.29999995232,"correct":true,"confidence":3},{"trial_n":137,"n_dots":2.95,"target":"right","response":"right","rt":804.69999992847,"correct":true,"confidence":3},{"trial_n":138,"n_dots":2.85,"target":"right","response":"right","rt":724.10000002384,"correct":true,"confidence":2},{"trial_n":139,"n_dots":2.85,"target":"left","response":"left","rt":421.20000004768,"correct":true,"confidence":3},{"trial_n":140,"n_dots":2.75,"target":"right","response":"right","rt":536.70000004768,"correct":true,"confidence":3},{"trial_n":141,"n_dots":2.75,"target":"left","response":"right","rt":673.30000007153,"correct":false,"confidence":2},{"trial_n":142,"n_dots":2.85,"target":"left","response":"right","rt":478.79999995232,"correct":false,"confidence":3},{"trial_n":143,"n_dots":2.95,"target":"right","response":"right","rt":395.70000004768,"correct":true,"confidence":4},{"trial_n":144,"n_dots":2.95,"target":"left","response":"left","rt":261.70000004768,"correct":true,"confidence":4},{"trial_n":145,"n_dots":2.85,"target":"left","response":"right","rt":820.39999997616,"correct":false,"confidence":3},{"trial_n":146,"n_dots":2.95,"target":"left","response":"left","rt":1102.7999999523,"correct":true,"confidence":1},{"trial_n":147,"n_dots":2.95,"target":"left","response":"left","rt":870,"correct":true,"confidence":5},{"trial_n":148,"n_dots":2.85,"target":"left","response":"right","rt":694.30000007153,"correct":false,"confidence":5},{"trial_n":149,"n_dots":2.95,"target":"right","response":"right","rt":675.19999992847,"correct":true,"confidence":4},{"trial_n":150,"n_dots":2.95,"target":"left","response":"left","rt":237.89999997616,"correct":true,"confidence":5},{"trial_n":151,"n_dots":2.85,"target":"left","response":"left","rt":404,"correct":true,"confidence":5},{"trial_n":152,"n_dots":2.85,"target":"left","response":"right","rt":858.60000002384,"correct":false,"confidence":4},{"trial_n":153,"n_dots":2.95,"target":"left","response":"left","rt":88.600000023842,"correct":true,"confidence":5},{"trial_n":154,"n_dots":2.95,"target":"left","response":"left","rt":125.5,"correct":true,"confidence":5},{"trial_n":155,"n_dots":2.85,"target":"right","response":"right","rt":296.79999995232,"correct":true,"confidence":6},{"trial_n":156,"n_dots":2.85,"target":"right","response":"right","rt":654.39999997616,"correct":true,"confidence":4},{"trial_n":157,"n_dots":2.75,"target":"right","response":"left","rt":274.29999995232,"correct":false,"confidence":5},{"trial_n":158,"n_dots":2.85,"target":"left","response":"left","rt":92.399999976158,"correct":true,"confidence":5},{"trial_n":159,"n_dots":2.85,"target":"right","response":"left","rt":280,"correct":false,"confidence":4},{"trial_n":160,"n_dots":2.95,"target":"right","response":"right","rt":868.70000004768,"correct":true,"confidence":4},{"trial_n":161,"n_dots":2.95,"target":"left","response":"left","rt":315.70000004768,"correct":true,"confidence":2},{"trial_n":162,"n_dots":2.85,"target":"right","response":"right","rt":554.90000009537,"correct":true,"confidence":3},{"trial_n":163,"n_dots":2.85,"target":"right","response":"left","rt":401.89999997616,"correct":false,"confidence":5},{"trial_n":164,"n_dots":2.95,"target":"right","response":"left","rt":547.60000002384,"correct":false,"confidence":4},{"trial_n":165,"n_dots":3.05,"target":"right","response":"left","rt":742,"correct":false,"confidence":5},{"trial_n":166,"n_dots":3.15,"target":"right","response":"right","rt":564.29999995232,"correct":true,"confidence":5},{"trial_n":167,"n_dots":3.15,"target":"right","response":"right","rt":306.30000007153,"correct":true,"confidence":5},{"trial_n":168,"n_dots":3.05,"target":"left","response":"right","rt":1196.3000000715,"correct":false,"confidence":5},{"trial_n":169,"n_dots":3.15,"target":"right","response":"right","rt":474.5,"correct":true,"confidence":5},{"trial_n":170,"n_dots":3.15,"target":"right","response":"right","rt":7364.8999999762,"correct":true,"confidence":4},{"trial_n":171,"n_dots":3.05,"target":"left","response":"left","rt":211.10000002384,"correct":true,"confidence":3},{"trial_n":172,"n_dots":3.05,"target":"left","response":"left","rt":280.30000007153,"correct":true,"confidence":3},{"trial_n":173,"n_dots":2.95,"target":"right","response":"right","rt":577.20000004768,"correct":true,"confidence":4},{"trial_n":174,"n_dots":2.95,"target":"left","response":"left","rt":495.60000002384,"correct":true,"confidence":3},{"trial_n":175,"n_dots":2.85,"target":"left","response":"right","rt":639.39999997616,"correct":false,"confidence":3},{"trial_n":176,"n_dots":2.95,"target":"left","response":"left","rt":11.900000095367,"correct":true,"confidence":3},{"trial_n":177,"n_dots":2.95,"target":"left","response":"left","rt":1030.6000000238,"correct":true,"confidence":3},{"trial_n":178,"n_dots":2.85,"target":"left","response":"left","rt":737.10000002384,"correct":true,"confidence":3},{"trial_n":179,"n_dots":2.85,"target":"right","response":"left","rt":307.80000007153,"correct":false,"confidence":2},{"trial_n":180,"n_dots":2.95,"target":"right","response":"right","rt":625.70000004768,"correct":true,"confidence":3},{"trial_n":181,"n_dots":2.95,"target":"left","response":"left","rt":85,"correct":true,"confidence":3},{"trial_n":182,"n_dots":2.85,"target":"right","response":"left","rt":528,"correct":false,"confidence":3},{"trial_n":183,"n_dots":2.95,"target":"right","response":"right","rt":708.39999997616,"correct":true,"confidence":4},{"trial_n":184,"n_dots":2.95,"target":"right","response":"right","rt":611.10000002384,"correct":true,"confidence":4},{"trial_n":185,"n_dots":2.85,"target":"right","response":"left","rt":321.69999992847,"correct":false,"confidence":3},{"trial_n":186,"n_dots":2.95,"target":"right","response":"right","rt":736.20000004768,"correct":true,"confidence":3},{"trial_n":187,"n_dots":2.95,"target":"left","response":"left","rt":380.89999997616,"correct":true,"confidence":3},{"trial_n":188,"n_dots":2.85,"target":"right","response":"right","rt":489.69999992847,"correct":true,"confidence":3},{"trial_n":189,"n_dots":2.85,"target":"right","response":"right","rt":692.60000002384,"correct":true,"confidence":3},{"trial_n":190,"n_dots":2.75,"target":"left","response":"right","rt":490.29999995232,"correct":false,"confidence":3},{"trial_n":191,"n_dots":2.85,"target":"left","response":"left","rt":457.30000007153,"correct":true,"confidence":1},{"trial_n":192,"n_dots":2.85,"target":"right","response":"right","rt":693.69999992847,"correct":true,"confidence":1},{"trial_n":193,"n_dots":2.75,"target":"left","response":"left","rt":544.5,"correct":true,"confidence":2},{"trial_n":194,"n_dots":2.75,"target":"right","response":"left","rt":26.899999976158,"correct":false,"confidence":2}]