[{"trial_n":1,"n_dots":4.25,"target":"right","response":"right","rt":15436.599999994,"correct":true,"confidence":-1},{"trial_n":2,"n_dots":4.25,"target":"left","response":"left","rt":1187.799999997,"correct":true,"confidence":-1},{"trial_n":3,"n_dots":3.85,"target":"left","response":"right","rt":1196,"correct":false,"confidence":-1},{"trial_n":4,"n_dots":4.25,"target":"left","response":"left","rt":670.10000000894,"correct":true,"confidence":-1},{"trial_n":5,"n_dots":4.25,"target":"right","response":"right","rt":547.30000001192,"correct":true,"confidence":-1},{"trial_n":6,"n_dots":3.85,"target":"left","response":"left","rt":806.39999999106,"correct":true,"confidence":-1},{"trial_n":7,"n_dots":3.85,"target":"right","response":"right","rt":551.30000001192,"correct":true,"confidence":-1},{"trial_n":8,"n_dots":3.65,"target":"left","response":"left","rt":911,"correct":true,"confidence":-1},{"trial_n":9,"n_dots":3.65,"target":"left","response":"left","rt":653.39999999106,"correct":true,"confidence":-1},{"trial_n":10,"n_dots":3.45,"target":"left","response":"right","rt":628.90000000596,"correct":false,"confidence":-1},{"trial_n":11,"n_dots":3.65,"target":"right","response":"right","rt":503.39999999106,"correct":true,"confidence":-1},{"trial_n":12,"n_dots":3.65,"target":"right","response":"right","rt":484.29999999702,"correct":true,"confidence":-1},{"trial_n":13,"n_dots":3.55,"target":"left","response":"left","rt":534.29999999702,"correct":true,"confidence":-1},{"trial_n":14,"n_dots":3.55,"target":"right","response":"right","rt":468.09999999404,"correct":true,"confidence":-1},{"trial_n":15,"n_dots":3.45,"target":"right","response":"right","rt":494.89999999106,"correct":true,"confidence":-1},{"trial_n":16,"n_dots":3.45,"target":"left","response":"left","rt":483.40000000596,"correct":true,"confidence":-1},{"trial_n":17,"n_dots":3.35,"target":"left","response":"left","rt":483.20000000298,"correct":true,"confidence":-1},{"trial_n":18,"n_dots":3.35,"target":"right","response":"right","rt":436.79999999702,"correct":true,"confidence":-1},{"trial_n":19,"n_dots":3.25,"target":"right","response":"right","rt":573.10000000894,"correct":true,"confidence":-1},{"trial_n":20,"n_dots":3.25,"target":"right","response":"right","rt":807.10000000894,"correct":true,"confidence":-1},{"trial_n":21,"n_dots":3.15,"target":"left","response":"right","rt":578.70000000298,"correct":false,"confidence":-1},{"trial_n":22,"n_dots":3.25,"target":"right","response":"left","rt":458,"correct":false,"confidence":-1},{"trial_n":23,"n_dots":3.35,"target":"left","response":"left","rt":656,"correct":true,"confidence":-1},{"trial_n":24,"n_dots":3.35,"target":"right","response":"left","rt":542.20000000298,"correct":false,"confidence":-1},{"trial_n":25,"n_dots":3.45,"target":"right","response":"right","rt":717.20000000298,"correct":true,"confidence":-1},{"trial_n":26,"n_dots":3.45,"target":"left","response":"left","rt":509.90000000596,"correct":true,"confidence":-1},{"trial_n":27,"n_dots":3.35,"target":"right","response":"right","rt":642.5,"correct":true,"confidence":4},{"trial_n":28,"n_dots":3.35,"target":"right","response":"right","rt":970.59999999404,"correct":true,"confidence":4},{"trial_n":29,"n_dots":3.25,"target":"right","response":"right","rt":686.40000000596,"correct":true,"confidence":4},{"trial_n":30,"n_dots":3.25,"target":"left","response":"left","rt":1159.200000003,"correct":true,"confidence":4},{"trial_n":31,"n_dots":3.15,"target":"right","response":"right","rt":623.29999999702,"correct":true,"confidence":4},{"trial_n":32,"n_dots":3.15,"target":"right","response":"right","rt":693.39999999106,"correct":true,"confidence":4},{"trial_n":33,"n_dots":3.05,"target":"right","response":"right","rt":791.40000000596,"correct":true,"confidence":4},{"trial_n":34,"n_dots":3.05,"target":"right","response":"left","rt":864.70000000298,"correct":false,"confidence":4},{"trial_n":35,"n_dots":3.15,"target":"left","response":"left","rt":1884,"correct":true,"confidence":5},{"trial_n":36,"n_dots":3.15,"target":"right","response":"right","rt":1314.400000006,"correct":true,"confidence":4},{"trial_n":37,"n_dots":3.05,"target":"left","response":"left","rt":998.79999999702,"correct":true,"confidence":4},{"trial_n":38,"n_dots":3.05,"target":"left","response":"right","rt":721.29999999702,"correct":false,"confidence":4},{"trial_n":39,"n_dots":3.15,"target":"left","response":"left","rt":1229.5,"correct":true,"confidence":4},{"trial_n":40,"n_dots":3.15,"target":"left","response":"left","rt":1259,"correct":true,"confidence":4},{"trial_n":41,"n_dots":3.05,"target":"left","response":"right","rt":591.09999999404,"correct":false,"confidence":4},{"trial_n":42,"n_dots":3.15,"target":"right","response":"right","rt":1908.400000006,"correct":true,"confidence":4},{"trial_n":43,"n_dots":3.15,"target":"right","response":"right","rt":1254.8000000119,"correct":true,"confidence":4},{"trial_n":44,"n_dots":3.05,"target":"left","response":"right","rt":1012.599999994,"correct":false,"confidence":4},{"trial_n":45,"n_dots":3.15,"target":"left","response":"left","rt":584.70000000298,"correct":true,"confidence":4},{"trial_n":46,"n_dots":3.15,"target":"left","response":"left","rt":780.19999998808,"correct":true,"confidence":4},{"trial_n":47,"n_dots":3.05,"target":"left","response":"right","rt":725,"correct":false,"confidence":4},{"trial_n":48,"n_dots":3.15,"target":"left","response":"left","rt":1246.599999994,"correct":true,"confidence":4},{"trial_n":49,"n_dots":3.15,"target":"left","response":"right","rt":536.70000000298,"correct":false,"confidence":4},{"trial_n":50,"n_dots":3.25,"target":"left","response":"left","rt":3780.700000003,"correct":true,"confidence":3},{"trial_n":51,"n_dots":3.25,"target":"right","response":"left","rt":915,"correct":false,"confidence":4},{"trial_n":52,"n_dots":3.35,"target":"right","response":"right","rt":434.09999999404,"correct":true,"confidence":5},{"trial_n":53,"n_dots":3.35,"target":"left","response":"left","rt":597.10000000894,"correct":true,"confidence":4},{"trial_n":54,"n_dots":3.25,"target":"right","response":"right","rt":541.69999998808,"correct":true,"confidence":5},{"trial_n":55,"n_dots":3.25,"target":"left","response":"left","rt":559.59999999404,"correct":true,"confidence":4},{"trial_n":56,"n_dots":3.15,"target":"left","response":"right","rt":1319.6000000089,"correct":false,"confidence":2},{"trial_n":57,"n_dots":3.25,"target":"right","response":"right","rt":1045.8000000119,"correct":true,"confidence":4},{"trial_n":58,"n_dots":3.25,"target":"right","response":"right","rt":1207.299999997,"correct":true,"confidence":4},{"trial_n":59,"n_dots":3.15,"target":"left","response":"right","rt":496.39999999106,"correct":false,"confidence":5},{"trial_n":60,"n_dots":3.25,"target":"right","response":"right","rt":607.60000000894,"correct":true,"confidence":5},{"trial_n":61,"n_dots":3.25,"target":"right","response":"right","rt":675,"correct":true,"confidence":4},{"trial_n":62,"n_dots":3.15,"target":"left","response":"right","rt":1204.599999994,"correct":false,"confidence":4},{"trial_n":63,"n_dots":3.25,"target":"left","response":"right","rt":688.39999999106,"correct":false,"confidence":4},{"trial_n":64,"n_dots":3.35,"target":"left","response":"right","rt":1763.599999994,"correct":false,"confidence":4},{"trial_n":65,"n_dots":3.45,"target":"left","response":"right","rt":666.70000000298,"correct":false,"confidence":4},{"trial_n":66,"n_dots":3.55,"target":"left","response":"left","rt":693.60000000894,"correct":true,"confidence":4},{"trial_n":67,"n_dots":3.55,"target":"right","response":"right","rt":854.20000000298,"correct":true,"confidence":4},{"trial_n":68,"n_dots":3.45,"target":"right","response":"right","rt":1926.200000003,"correct":true,"confidence":4},{"trial_n":69,"n_dots":3.45,"target":"left","response":"right","rt":1504.200000003,"correct":false,"confidence":3},{"trial_n":70,"n_dots":3.55,"target":"left","response":"left","rt":622.09999999404,"correct":true,"confidence":5},{"trial_n":71,"n_dots":3.55,"target":"left","response":"right","rt":1315.599999994,"correct":false,"confidence":4},{"trial_n":72,"n_dots":3.65,"target":"right","response":"right","rt":2556.5,"correct":true,"confidence":4},{"trial_n":73,"n_dots":3.65,"target":"left","response":"left","rt":758.79999999702,"correct":true,"confidence":5},{"trial_n":74,"n_dots":3.55,"target":"right","response":"right","rt":1051.3999999911,"correct":true,"confidence":4},{"trial_n":75,"n_dots":3.55,"target":"right","response":"right","rt":951.5,"correct":true,"confidence":5},{"trial_n":76,"n_dots":3.45,"target":"left","response":"right","rt":1367.299999997,"correct":false,"confidence":3},{"trial_n":77,"n_dots":3.55,"target":"left","response":"left","rt":785,"correct":true,"confidence":4},{"trial_n":78,"n_dots":3.55,"target":"left","response":"left","rt":1180.5,"correct":true,"confidence":4},{"trial_n":79,"n_dots":3.45,"target":"left","response":"right","rt":946,"correct":false,"confidence":4},{"trial_n":80,"n_dots":3.55,"target":"right","response":"right","rt":1063.400000006,"correct":true,"confidence":4},{"trial_n":81,"n_dots":3.55,"target":"left","response":"left","rt":711.29999999702,"correct":true,"confidence":4},{"trial_n":82,"n_dots":3.45,"target":"right","response":"right","rt":474.5,"correct":true,"confidence":4},{"trial_n":83,"n_dots":3.45,"target":"right","response":"right","rt":467.60000000894,"correct":true,"confidence":5},{"trial_n":84,"n_dots":3.35,"target":"right","response":"right","rt":504.60000000894,"correct":true,"confidence":4},{"trial_n":85,"n_dots":3.35,"target":"right","response":"right","rt":475.39999999106,"correct":true,"confidence":5},{"trial_n":86,"n_dots":3.25,"target":"right","response":"right","rt":449.59999999404,"correct":true,"confidence":4},{"trial_n":87,"n_dots":3.25,"target":"right","response":"right","rt":1266.5,"correct":true,"confidence":3},{"trial_n":88,"n_dots":3.15,"target":"right","response":"right","rt":1349.5,"correct":true,"confidence":4},{"trial_n":89,"n_dots":3.15,"target":"left","response":"left","rt":592,"correct":true,"confidence":5},{"trial_n":90,"n_dots":3.05,"target":"right","response":"right","rt":384.60000000894,"correct":true,"confidence":5},{"trial_n":91,"n_dots":3.05,"target":"right","response":"left","rt":930.89999999106,"correct":false,"confidence":3},{"trial_n":92,"n_dots":3.15,"target":"left","response":"left","rt":603.29999999702,"correct":true,"confidence":4},{"trial_n":93,"n_dots":3.15,"target":"left","response":"left","rt":876.29999999702,"correct":true,"confidence":4},{"trial_n":94,"n_dots":3.05,"target":"left","response":"right","rt":1017.1999999881,"correct":false,"confidence":3},{"trial_n":95,"n_dots":3.15,"target":"right","response":"right","rt":583.09999999404,"correct":true,"confidence":4},{"trial_n":96,"n_dots":3.15,"target":"right","response":"right","rt":486.09999999404,"correct":true,"confidence":4},{"trial_n":97,"n_dots":3.05,"target":"right","response":"left","rt":540,"correct":false,"confidence":4},{"trial_n":98,"n_dots":3.15,"target":"left","response":"left","rt":539.5,"correct":true,"confidence":4},{"trial_n":99,"n_dots":3.15,"target":"right","response":"right","rt":563,"correct":true,"confidence":5},{"trial_n":100,"n_dots":3.05,"target":"right","response":"right","rt":1119.799999997,"correct":true,"confidence":4},{"trial_n":101,"n_dots":3.05,"target":"left","response":"right","rt":1078.400000006,"correct":false,"confidence":4},{"trial_n":102,"n_dots":3.15,"target":"right","response":"right","rt":1454.400000006,"correct":true,"confidence":3},{"trial_n":103,"n_dots":3.15,"target":"left","response":"left","rt":1524.6999999881,"correct":true,"confidence":4},{"trial_n":104,"n_dots":3.05,"target":"left","response":"right","rt":2165.200000003,"correct":false,"confidence":4},{"trial_n":105,"n_dots":3.15,"target":"left","response":"left","rt":984.90000000596,"correct":true,"confidence":5},{"trial_n":106,"n_dots":3.15,"target":"left","response":"right","rt":1447.5,"correct":false,"confidence":4},{"trial_n":107,"n_dots":3.25,"target":"left","response":"left","rt":1222.200000003,"correct":true,"confidence":4},{"trial_n":108,"n_dots":3.25,"target":"right","response":"right","rt":576.5,"correct":true,"confidence":5},{"trial_n":109,"n_dots":3.15,"target":"right","response":"right","rt":651.70000000298,"correct":true,"confidence":4},{"trial_n":110,"n_dots":3.15,"target":"right","response":"right","rt":675.39999999106,"correct":true,"confidence":4},{"trial_n":111,"n_dots":3.05,"target":"right","response":"left","rt":542.40000000596,"correct":false,"confidence":5},{"trial_n":112,"n_dots":3.15,"target":"right","response":"left","rt":620.59999999404,"correct":false,"confidence":4},{"trial_n":113,"n_dots":3.25,"target":"right","response":"right","rt":572.90000000596,"correct":true,"confidence":5},{"trial_n":114,"n_dots":3.25,"target":"left","response":"left","rt":594.70000000298,"correct":true,"confidence":3},{"trial_n":115,"n_dots":3.15,"target":"right","response":"right","rt":1464.299999997,"correct":true,"confidence":4},{"trial_n":116,"n_dots":3.15,"target":"right","response":"right","rt":618.29999999702,"correct":true,"confidence":4},{"trial_n":117,"n_dots":3.05,"target":"left","response":"left","rt":700.90000000596,"correct":true,"confidence":5},{"trial_n":118,"n_dots":3.05,"target":"right","response":"right","rt":535.09999999404,"correct":true,"confidence":4},{"trial_n":119,"n_dots":2.95,"target":"left","response":"right","rt":628.09999999404,"correct":false,"confidence":4},{"trial_n":120,"n_dots":3.05,"target":"left","response":"left","rt":950.5,"correct":true,"confidence":4},{"trial_n":121,"n_dots":3.05,"target":"right","response":"right","rt":747.89999999106,"correct":true,"confidence":4},{"trial_n":122,"n_dots":2.95,"target":"left","response":"right","rt":1501.700000003,"correct":false,"confidence":2},{"trial_n":123,"n_dots":3.05,"target":"right","response":"left","rt":1163.1000000089,"correct":false,"confidence":3},{"trial_n":124,"n_dots":3.15,"target":"left","response":"left","rt":662,"correct":true,"confidence":5},{"trial_n":125,"n_dots":3.15,"target":"right","response":"right","rt":851.59999999404,"correct":true,"confidence":4},{"trial_n":126,"n_dots":3.05,"target":"left","response":"left","rt":772.59999999404,"correct":true,"confidence":3},{"trial_n":127,"n_dots":3.05,"target":"left","response":"left","rt":703.09999999404,"correct":true,"confidence":4},{"trial_n":128,"n_dots":2.95,"target":"right","response":"left","rt":1626.1000000089,"correct":false,"confidence":4},{"trial_n":129,"n_dots":3.05,"target":"right","response":"right","rt":552.80000001192,"correct":true,"confidence":4},{"trial_n":130,"n_dots":3.05,"target":"left","response":"left","rt":1032.5,"correct":true,"confidence":5},{"trial_n":131,"n_dots":2.95,"target":"left","response":"left","rt":759.5,"correct":true,"confidence":5},{"trial_n":132,"n_dots":2.95,"target":"right","response":"right","rt":594.60000000894,"correct":true,"confidence":4},{"trial_n":133,"n_dots":2.85,"target":"right","response":"left","rt":1045.799999997,"correct":false,"confidence":5},{"trial_n":134,"n_dots":2.95,"target":"right","response":"right","rt":735.70000000298,"correct":true,"confidence":3},{"trial_n":135,"n_dots":2.95,"target":"left","response":"right","rt":796.5,"correct":false,"confidence":4},{"trial_n":136,"n_dots":3.05,"target":"left","response":"left","rt":677,"correct":true,"confidence":4},{"trial_n":137,"n_dots":3.05,"target":"right","response":"right","rt":450.89999999106,"correct":true,"confidence":4},{"trial_n":138,"n_dots":2.95,"target":"left","response":"left","rt":547.39999999106,"correct":true,"confidence":4},{"trial_n":139,"n_dots":2.95,"target":"right","response":"left","rt":1065.900000006,"correct":false,"confidence":4},{"trial_n":140,"n_dots":3.05,"target":"right","response":"left","rt":1034.5,"correct":false,"confidence":4},{"trial_n":141,"n_dots":3.15,"target":"right","response":"left","rt":1099,"correct":false,"confidence":4},{"trial_n":142,"n_dots":3.25,"target":"left","response":"left","rt":1116,"correct":true,"confidence":4},{"trial_n":143,"n_dots":3.25,"target":"left","response":"left","rt":754.59999999404,"correct":true,"confidence":4},{"trial_n":144,"n_dots":3.15,"target":"right","response":"right","rt":560,"correct":true,"confidence":4},{"trial_n":145,"n_dots":3.15,"target":"right","response":"right","rt":850,"correct":true,"confidence":5},{"trial_n":146,"n_dots":3.05,"target":"left","response":"left","rt":649.40000000596,"correct":true,"confidence":4},{"trial_n":147,"n_dots":3.05,"target":"right","response":"right","rt":420.59999999404,"correct":true,"confidence":4},{"trial_n":148,"n_dots":2.95,"target":"left","response":"left","rt":1028.799999997,"correct":true,"confidence":2},{"trial_n":149,"n_dots":2.95,"target":"right","response":"right","rt":461.70000000298,"correct":true,"confidence":4},{"trial_n":150,"n_dots":2.85,"target":"right","response":"right","rt":708.29999999702,"correct":true,"confidence":4},{"trial_n":151,"n_dots":2.85,"target":"right","response":"right","rt":805.09999999404,"correct":true,"confidence":4},{"trial_n":152,"n_dots":2.75,"target":"right","response":"right","rt":1083.099999994,"correct":true,"confidence":4},{"trial_n":153,"n_dots":2.75,"target":"left","response":"left","rt":821.80000001192,"correct":true,"confidence":3},{"trial_n":154,"n_dots":2.65,"target":"right","response":"right","rt":889.90000000596,"correct":true,"confidence":4},{"trial_n":155,"n_dots":2.65,"target":"right","response":"left","rt":801.29999999702,"correct":false,"confidence":3},{"trial_n":156,"n_dots":2.75,"target":"right","response":"left","rt":2029.799999997,"correct":false,"confidence":3},{"trial_n":157,"n_dots":2.85,"target":"left","response":"left","rt":670.79999999702,"correct":true,"confidence":5},{"trial_n":158,"n_dots":2.85,"target":"left","response":"left","rt":722,"correct":true,"confidence":5},{"trial_n":159,"n_dots":2.75,"target":"right","response":"left","rt":680,"correct":false,"confidence":4},{"trial_n":160,"n_dots":2.85,"target":"right","response":"right","rt":557.70000000298,"correct":true,"confidence":4},{"trial_n":161,"n_dots":2.85,"target":"right","response":"right","rt":761.09999999404,"correct":true,"confidence":4},{"trial_n":162,"n_dots":2.75,"target":"right","response":"right","rt":1852.099999994,"correct":true,"confidence":3},{"trial_n":163,"n_dots":2.75,"target":"left","response":"right","rt":1651.599999994,"correct":false,"confidence":3},{"trial_n":164,"n_dots":2.85,"target":"left","response":"left","rt":1617.200000003,"correct":true,"confidence":3},{"trial_n":165,"n_dots":2.85,"target":"right","response":"right","rt":557.60000000894,"correct":true,"confidence":4},{"trial_n":166,"n_dots":2.75,"target":"left","response":"right","rt":1298.599999994,"correct":false,"confidence":3},{"trial_n":167,"n_dots":2.85,"target":"left","response":"right","rt":991.79999999702,"correct":false,"confidence":5},{"trial_n":168,"n_dots":2.95,"target":"left","response":"left","rt":1128.099999994,"correct":true,"confidence":3},{"trial_n":169,"n_dots":2.95,"target":"left","response":"left","rt":892,"correct":true,"confidence":3},{"trial_n":170,"n_dots":2.85,"target":"right","response":"left","rt":834.30000001192,"correct":false,"confidence":4},{"trial_n":171,"n_dots":2.95,"target":"left","response":"left","rt":833.80000001192,"correct":true,"confidence":5},{"trial_n":172,"n_dots":2.95,"target":"left","response":"left","rt":1193.799999997,"correct":true,"confidence":3},{"trial_n":173,"n_dots":2.85,"target":"left","response":"left","rt":666.90000000596,"correct":true,"confidence":5},{"trial_n":174,"n_dots":2.85,"target":"left","response":"left","rt":739.29999999702,"correct":true,"confidence":4},{"trial_n":175,"n_dots":2.75,"target":"left","response":"right","rt":518,"correct":false,"confidence":4},{"trial_n":176,"n_dots":2.85,"target":"left","response":"right","rt":760.39999999106,"correct":false,"confidence":3},{"trial_n":177,"n_dots":2.95,"target":"right","response":"left","rt":1960.5,"correct":false,"confidence":3},{"trial_n":178,"n_dots":3.05,"target":"left","response":"left","rt":668.30000001192,"correct":true,"confidence":4},{"trial_n":179,"n_dots":3.05,"target":"right","response":"left","rt":1050.8999999911,"correct":false,"confidence":4},{"trial_n":180,"n_dots":3.15,"target":"right","response":"right","rt":1010.799999997,"correct":true,"confidence":3},{"trial_n":181,"n_dots":3.15,"target":"right","response":"left","rt":661.20000000298,"correct":false,"confidence":4},{"trial_n":182,"n_dots":3.25,"target":"right","response":"right","rt":1113,"correct":true,"confidence":4},{"trial_n":183,"n_dots":3.25,"target":"right","response":"right","rt":995.69999998808,"correct":true,"confidence":4},{"trial_n":184,"n_dots":3.15,"target":"left","response":"left","rt":647.79999999702,"correct":true,"confidence":4},{"trial_n":185,"n_dots":3.15,"target":"left","response":"left","rt":699.59999999404,"correct":true,"confidence":3},{"trial_n":186,"n_dots":3.05,"target":"left","response":"left","rt":507.79999999702,"correct":true,"confidence":5},{"trial_n":187,"n_dots":3.05,"target":"right","response":"left","rt":1278.8000000119,"correct":false,"confidence":3},{"trial_n":188,"n_dots":3.15,"target":"left","response":"right","rt":1822.1000000089,"correct":false,"confidence":3},{"trial_n":189,"n_dots":3.25,"target":"left","response":"left","rt":397.79999999702,"correct":true,"confidence":5},{"trial_n":190,"n_dots":3.25,"target":"left","response":"left","rt":937.60000000894,"correct":true,"confidence":4},{"trial_n":191,"n_dots":3.15,"target":"right","response":"right","rt":1934.3999999911,"correct":true,"confidence":3},{"trial_n":192,"n_dots":3.15,"target":"left","response":"left","rt":2519.099999994,"correct":true,"confidence":4},{"trial_n":193,"n_dots":3.05,"target":"left","response":"left","rt":655.90000000596,"correct":true,"confidence":4},{"trial_n":194,"n_dots":3.05,"target":"right","response":"left","rt":1086.3000000119,"correct":false,"confidence":2}]