[{"trial_n":1,"n_dots":4.25,"target":"left","response":"left","rt":2349.6000000015,"correct":true,"confidence":-1},{"trial_n":2,"n_dots":4.25,"target":"right","response":"left","rt":272.10000000149,"correct":false,"confidence":-1},{"trial_n":3,"n_dots":4.65,"target":"left","response":"left","rt":714.20000000298,"correct":true,"confidence":-1},{"trial_n":4,"n_dots":4.65,"target":"left","response":"left","rt":454.09999999776,"correct":true,"confidence":-1},{"trial_n":5,"n_dots":4.25,"target":"left","response":"left","rt":304.5,"correct":true,"confidence":-1},{"trial_n":6,"n_dots":4.25,"target":"right","response":"right","rt":449.5,"correct":true,"confidence":-1},{"trial_n":7,"n_dots":3.85,"target":"right","response":"left","rt":340.30000000075,"correct":false,"confidence":-1},{"trial_n":8,"n_dots":4.05,"target":"right","response":"right","rt":299.09999999776,"correct":true,"confidence":-1},{"trial_n":9,"n_dots":4.05,"target":"left","response":"left","rt":251.40000000224,"correct":true,"confidence":-1},{"trial_n":10,"n_dots":3.85,"target":"right","response":"right","rt":694.09999999776,"correct":true,"confidence":-1},{"trial_n":11,"n_dots":3.85,"target":"left","response":"left","rt":246,"correct":true,"confidence":-1},{"trial_n":12,"n_dots":3.65,"target":"right","response":"right","rt":232.80000000075,"correct":true,"confidence":-1},{"trial_n":13,"n_dots":3.65,"target":"right","response":"right","rt":360.69999999925,"correct":true,"confidence":-1},{"trial_n":14,"n_dots":3.55,"target":"left","response":"left","rt":229.19999999925,"correct":true,"confidence":-1},{"trial_n":15,"n_dots":3.55,"target":"left","response":"left","rt":259.60000000149,"correct":true,"confidence":-1},{"trial_n":16,"n_dots":3.45,"target":"right","response":"left","rt":514.40000000224,"correct":false,"confidence":-1},{"trial_n":17,"n_dots":3.55,"target":"left","response":"left","rt":218.19999999925,"correct":true,"confidence":-1},{"trial_n":18,"n_dots":3.55,"target":"right","response":"right","rt":380.80000000075,"correct":true,"confidence":-1},{"trial_n":19,"n_dots":3.45,"target":"left","response":"left","rt":415.39999999851,"correct":true,"confidence":-1},{"trial_n":20,"n_dots":3.45,"target":"left","response":"left","rt":840.5,"correct":true,"confidence":-1},{"trial_n":21,"n_dots":3.35,"target":"left","response":"left","rt":282.10000000149,"correct":true,"confidence":-1},{"trial_n":22,"n_dots":3.35,"target":"right","response":"right","rt":213.90000000224,"correct":true,"confidence":-1},{"trial_n":23,"n_dots":3.25,"target":"right","response":"right","rt":203.5,"correct":true,"confidence":-1},{"trial_n":24,"n_dots":3.25,"target":"right","response":"left","rt":194.39999999851,"correct":false,"confidence":-1},{"trial_n":25,"n_dots":3.35,"target":"right","response":"left","rt":287.59999999776,"correct":false,"confidence":-1},{"trial_n":26,"n_dots":3.45,"target":"left","response":"left","rt":202.19999999925,"correct":true,"confidence":-1},{"trial_n":27,"n_dots":3.45,"target":"right","response":"right","rt":328.80000000075,"correct":true,"confidence":4},{"trial_n":28,"n_dots":3.35,"target":"right","response":"right","rt":84.699999999255,"correct":true,"confidence":3},{"trial_n":29,"n_dots":3.35,"target":"left","response":"left","rt":1647.8000000007,"correct":true,"confidence":4},{"trial_n":30,"n_dots":3.25,"target":"right","response":"right","rt":303.19999999925,"correct":true,"confidence":4},{"trial_n":31,"n_dots":3.25,"target":"left","response":"left","rt":299.80000000075,"correct":true,"confidence":4},{"trial_n":32,"n_dots":3.15,"target":"right","response":"right","rt":285.70000000298,"correct":true,"confidence":3},{"trial_n":33,"n_dots":3.15,"target":"left","response":"left","rt":274.5,"correct":true,"confidence":4},{"trial_n":34,"n_dots":3.05,"target":"right","response":"right","rt":482.90000000224,"correct":true,"confidence":4},{"trial_n":35,"n_dots":3.05,"target":"left","response":"left","rt":315.69999999925,"correct":true,"confidence":5},{"trial_n":36,"n_dots":2.95,"target":"left","response":"right","rt":490.30000000075,"correct":false,"confidence":3},{"trial_n":37,"n_dots":3.05,"target":"right","response":"right","rt":284.20000000298,"correct":true,"confidence":1},{"trial_n":38,"n_dots":3.05,"target":"right","response":"right","rt":1244.3000000007,"correct":true,"confidence":3},{"trial_n":39,"n_dots":2.95,"target":"right","response":"right","rt":558.80000000075,"correct":true,"confidence":5},{"trial_n":40,"n_dots":2.95,"target":"left","response":"left","rt":320.5,"correct":true,"confidence":5},{"trial_n":41,"n_dots":2.85,"target":"right","response":"right","rt":385.39999999851,"correct":true,"confidence":3},{"trial_n":42,"n_dots":2.85,"target":"right","response":"left","rt":345,"correct":false,"confidence":4},{"trial_n":43,"n_dots":2.95,"target":"right","response":"left","rt":638.19999999925,"correct":false,"confidence":3},{"trial_n":44,"n_dots":3.05,"target":"right","response":"right","rt":700,"correct":true,"confidence":3},{"trial_n":45,"n_dots":3.05,"target":"right","response":"left","rt":516.69999999925,"correct":false,"confidence":3},{"trial_n":46,"n_dots":3.15,"target":"left","response":"right","rt":508.5,"correct":false,"confidence":5},{"trial_n":47,"n_dots":3.25,"target":"left","response":"right","rt":312.59999999776,"correct":false,"confidence":4},{"trial_n":48,"n_dots":3.35,"target":"left","response":"right","rt":778.89999999851,"correct":false,"confidence":4},{"trial_n":49,"n_dots":3.45,"target":"right","response":"right","rt":313.5,"correct":true,"confidence":3},{"trial_n":50,"n_dots":3.45,"target":"left","response":"left","rt":222.59999999776,"correct":true,"confidence":5},{"trial_n":51,"n_dots":3.35,"target":"right","response":"left","rt":649.39999999851,"correct":false,"confidence":3},{"trial_n":52,"n_dots":3.45,"target":"right","response":"left","rt":315,"correct":false,"confidence":5},{"trial_n":53,"n_dots":3.55,"target":"left","response":"left","rt":321,"correct":true,"confidence":5},{"trial_n":54,"n_dots":3.55,"target":"right","response":"left","rt":352.39999999851,"correct":false,"confidence":5},{"trial_n":55,"n_dots":3.65,"target":"right","response":"left","rt":1349.3000000007,"correct":false,"confidence":2},{"trial_n":56,"n_dots":3.75,"target":"right","response":"right","rt":285.39999999851,"correct":true,"confidence":5},{"trial_n":57,"n_dots":3.75,"target":"right","response":"right","rt":257.19999999925,"correct":true,"confidence":4},{"trial_n":58,"n_dots":3.65,"target":"left","response":"right","rt":400.10000000149,"correct":false,"confidence":4},{"trial_n":59,"n_dots":3.75,"target":"right","response":"right","rt":1925.6999999993,"correct":true,"confidence":5},{"trial_n":60,"n_dots":3.75,"target":"right","response":"right","rt":668.70000000298,"correct":true,"confidence":3},{"trial_n":61,"n_dots":3.65,"target":"right","response":"right","rt":296,"correct":true,"confidence":3},{"trial_n":62,"n_dots":3.65,"target":"left","response":"left","rt":372.39999999851,"correct":true,"confidence":5},{"trial_n":63,"n_dots":3.55,"target":"left","response":"left","rt":280.59999999776,"correct":true,"confidence":4},{"trial_n":64,"n_dots":3.55,"target":"left","response":"left","rt":363.69999999925,"correct":true,"confidence":3},{"trial_n":65,"n_dots":3.45,"target":"left","response":"left","rt":317.69999999925,"correct":true,"confidence":3},{"trial_n":66,"n_dots":3.45,"target":"left","response":"left","rt":336.5,"correct":true,"confidence":5},{"trial_n":67,"n_dots":3.35,"target":"right","response":"right","rt":323.09999999776,"correct":true,"confidence":4},{"trial_n":68,"n_dots":3.35,"target":"left","response":"left","rt":354.19999999925,"correct":true,"confidence":4},{"trial_n":69,"n_dots":3.25,"target":"right","response":"right","rt":392.19999999925,"correct":true,"confidence":5},{"trial_n":70,"n_dots":3.25,"target":"left","response":"right","rt":947.40000000224,"correct":false,"confidence":5},{"trial_n":71,"n_dots":3.35,"target":"right","response":"left","rt":431.80000000075,"correct":false,"confidence":4},{"trial_n":72,"n_dots":3.45,"target":"left","response":"left","rt":260.40000000224,"correct":true,"confidence":4},{"trial_n":73,"n_dots":3.45,"target":"right","response":"right","rt":403,"correct":true,"confidence":4},{"trial_n":74,"n_dots":3.35,"target":"right","response":"left","rt":1146.8000000007,"correct":false,"confidence":3},{"trial_n":75,"n_dots":3.45,"target":"left","response":"left","rt":376.30000000075,"correct":true,"confidence":3},{"trial_n":76,"n_dots":3.45,"target":"right","response":"right","rt":617.19999999925,"correct":true,"confidence":3},{"trial_n":77,"n_dots":3.35,"target":"left","response":"left","rt":342.39999999851,"correct":true,"confidence":3},{"trial_n":78,"n_dots":3.35,"target":"right","response":"right","rt":303.90000000224,"correct":true,"confidence":5},{"trial_n":79,"n_dots":3.25,"target":"right","response":"left","rt":349,"correct":false,"confidence":4},{"trial_n":80,"n_dots":3.35,"target":"left","response":"left","rt":313.89999999851,"correct":true,"confidence":5},{"trial_n":81,"n_dots":3.35,"target":"right","response":"right","rt":333.60000000149,"correct":true,"confidence":5},{"trial_n":82,"n_dots":3.25,"target":"left","response":"left","rt":296.19999999925,"correct":true,"confidence":4},{"trial_n":83,"n_dots":3.25,"target":"left","response":"left","rt":478.39999999851,"correct":true,"confidence":3},{"trial_n":84,"n_dots":3.15,"target":"right","response":"right","rt":560.60000000149,"correct":true,"confidence":4},{"trial_n":85,"n_dots":3.15,"target":"left","response":"left","rt":320.69999999925,"correct":true,"confidence":4},{"trial_n":86,"n_dots":3.05,"target":"left","response":"left","rt":322.40000000224,"correct":true,"confidence":5},{"trial_n":87,"n_dots":3.05,"target":"right","response":"left","rt":559.30000000075,"correct":false,"confidence":5},{"trial_n":88,"n_dots":3.15,"target":"left","response":"left","rt":1541.1999999993,"correct":true,"confidence":3},{"trial_n":89,"n_dots":3.15,"target":"right","response":"right","rt":534,"correct":true,"confidence":4},{"trial_n":90,"n_dots":3.05,"target":"right","response":"right","rt":951.5,"correct":true,"confidence":4},{"trial_n":91,"n_dots":3.05,"target":"right","response":"left","rt":321.69999999925,"correct":false,"confidence":4},{"trial_n":92,"n_dots":3.15,"target":"left","response":"left","rt":404.5,"correct":true,"confidence":4},{"trial_n":93,"n_dots":3.15,"target":"left","response":"left","rt":397.19999999925,"correct":true,"confidence":3},{"trial_n":94,"n_dots":3.05,"target":"left","response":"left","rt":586.39999999851,"correct":true,"confidence":3},{"trial_n":95,"n_dots":3.05,"target":"right","response":"left","rt":803,"correct":false,"confidence":3},{"trial_n":96,"n_dots":3.15,"target":"right","response":"right","rt":312.89999999851,"correct":true,"confidence":5},{"trial_n":97,"n_dots":3.15,"target":"left","response":"left","rt":270.80000000075,"correct":true,"confidence":5},{"trial_n":98,"n_dots":3.05,"target":"right","response":"right","rt":275.30000000075,"correct":true,"confidence":5},{"trial_n":99,"n_dots":3.05,"target":"right","response":"right","rt":1702.8999999985,"correct":true,"confidence":3},{"trial_n":100,"n_dots":2.95,"target":"right","response":"left","rt":2394.0999999978,"correct":false,"confidence":2},{"trial_n":101,"n_dots":3.05,"target":"right","response":"left","rt":337.30000000075,"correct":false,"confidence":4},{"trial_n":102,"n_dots":3.15,"target":"right","response":"left","rt":311.69999999925,"correct":false,"confidence":4},{"trial_n":103,"n_dots":3.25,"target":"right","response":"left","rt":504.59999999776,"correct":false,"confidence":5},{"trial_n":104,"n_dots":3.35,"target":"left","response":"left","rt":459,"correct":true,"confidence":5},{"trial_n":105,"n_dots":3.35,"target":"left","response":"right","rt":959.5,"correct":false,"confidence":3},{"trial_n":106,"n_dots":3.45,"target":"left","response":"left","rt":607.40000000224,"correct":true,"confidence":4},{"trial_n":107,"n_dots":3.45,"target":"left","response":"left","rt":351.5,"correct":true,"confidence":4},{"trial_n":108,"n_dots":3.35,"target":"right","response":"right","rt":442.19999999925,"correct":true,"confidence":4},{"trial_n":109,"n_dots":3.35,"target":"left","response":"left","rt":324.79999999702,"correct":true,"confidence":5},{"trial_n":110,"n_dots":3.25,"target":"right","response":"left","rt":767.09999999776,"correct":false,"confidence":5},{"trial_n":111,"n_dots":3.35,"target":"right","response":"right","rt":2362.3000000007,"correct":true,"confidence":5},{"trial_n":112,"n_dots":3.35,"target":"left","response":"left","rt":264.10000000149,"correct":true,"confidence":5},{"trial_n":113,"n_dots":3.25,"target":"left","response":"right","rt":1595.6999999993,"correct":false,"confidence":3},{"trial_n":114,"n_dots":3.35,"target":"right","response":"left","rt":1988.8000000007,"correct":false,"confidence":4},{"trial_n":115,"n_dots":3.45,"target":"left","response":"left","rt":330.69999999925,"correct":true,"confidence":5},{"trial_n":116,"n_dots":3.45,"target":"left","response":"right","rt":822.09999999776,"correct":false,"confidence":4},{"trial_n":117,"n_dots":3.55,"target":"left","response":"right","rt":906.90000000224,"correct":false,"confidence":4},{"trial_n":118,"n_dots":3.65,"target":"left","response":"left","rt":354.70000000298,"correct":true,"confidence":3},{"trial_n":119,"n_dots":3.65,"target":"left","response":"left","rt":256.90000000224,"correct":true,"confidence":5},{"trial_n":120,"n_dots":3.55,"target":"left","response":"left","rt":246.60000000149,"correct":true,"confidence":5},{"trial_n":121,"n_dots":3.55,"target":"left","response":"left","rt":223.69999999925,"correct":true,"confidence":3},{"trial_n":122,"n_dots":3.45,"target":"left","response":"left","rt":299.5,"correct":true,"confidence":5},{"trial_n":123,"n_dots":3.45,"target":"right","response":"right","rt":274.39999999851,"correct":true,"confidence":5},{"trial_n":124,"n_dots":3.35,"target":"right","response":"left","rt":419.69999999925,"correct":false,"confidence":4},{"trial_n":125,"n_dots":3.45,"target":"right","response":"left","rt":965.59999999776,"correct":false,"confidence":3},{"trial_n":126,"n_dots":3.55,"target":"left","response":"left","rt":504.80000000075,"correct":true,"confidence":3},{"trial_n":127,"n_dots":3.55,"target":"right","response":"right","rt":410.80000000075,"correct":true,"confidence":4},{"trial_n":128,"n_dots":3.45,"target":"right","response":"right","rt":303.89999999851,"correct":true,"confidence":4},{"trial_n":129,"n_dots":3.45,"target":"right","response":"right","rt":358.19999999925,"correct":true,"confidence":5},{"trial_n":130,"n_dots":3.35,"target":"right","response":"right","rt":467.19999999925,"correct":true,"confidence":5},{"trial_n":131,"n_dots":3.35,"target":"right","response":"left","rt":467.80000000075,"correct":false,"confidence":3},{"trial_n":132,"n_dots":3.45,"target":"left","response":"left","rt":251.80000000075,"correct":true,"confidence":5},{"trial_n":133,"n_dots":3.45,"target":"right","response":"right","rt":306.10000000149,"correct":true,"confidence":5},{"trial_n":134,"n_dots":3.35,"target":"right","response":"right","rt":416,"correct":true,"confidence":4},{"trial_n":135,"n_dots":3.35,"target":"right","response":"right","rt":600.5,"correct":true,"confidence":4},{"trial_n":136,"n_dots":3.25,"target":"left","response":"right","rt":739,"correct":false,"confidence":3},{"trial_n":137,"n_dots":3.35,"target":"left","response":"left","rt":573.80000000075,"correct":true,"confidence":2},{"trial_n":138,"n_dots":3.35,"target":"right","response":"right","rt":349.80000000075,"correct":true,"confidence":4},{"trial_n":139,"n_dots":3.25,"target":"left","response":"left","rt":301.5,"correct":true,"confidence":3},{"trial_n":140,"n_dots":3.25,"target":"left","response":"left","rt":400.39999999851,"correct":true,"confidence":4},{"trial_n":141,"n_dots":3.15,"target":"left","response":"left","rt":617.30000000075,"correct":true,"confidence":3},{"trial_n":142,"n_dots":3.15,"target":"left","response":"left","rt":239.60000000149,"correct":true,"confidence":5},{"trial_n":143,"n_dots":3.05,"target":"right","response":"left","rt":426.69999999925,"correct":false,"confidence":2},{"trial_n":144,"n_dots":3.15,"target":"left","response":"right","rt":1483.8000000007,"correct":false,"confidence":4},{"trial_n":145,"n_dots":3.25,"target":"left","response":"left","rt":831,"correct":true,"confidence":2},{"trial_n":146,"n_dots":3.25,"target":"right","response":"right","rt":261.5,"correct":true,"confidence":5},{"trial_n":147,"n_dots":3.15,"target":"left","response":"left","rt":267.5,"correct":true,"confidence":5},{"trial_n":148,"n_dots":3.15,"target":"right","response":"right","rt":1153.6000000015,"correct":true,"confidence":4},{"trial_n":149,"n_dots":3.05,"target":"left","response":"left","rt":197.90000000224,"correct":true,"confidence":5},{"trial_n":150,"n_dots":3.05,"target":"right","response":"left","rt":335.60000000149,"correct":false,"confidence":3},{"trial_n":151,"n_dots":3.15,"target":"right","response":"right","rt":240.19999999925,"correct":true,"confidence":1},{"trial_n":152,"n_dots":3.15,"target":"right","response":"left","rt":1475.8999999985,"correct":false,"confidence":3},{"trial_n":153,"n_dots":3.25,"target":"right","response":"left","rt":361,"correct":false,"confidence":3},{"trial_n":154,"n_dots":3.35,"target":"left","response":"left","rt":860.80000000075,"correct":true,"confidence":5},{"trial_n":155,"n_dots":3.35,"target":"right","response":"right","rt":255.19999999925,"correct":true,"confidence":5},{"trial_n":156,"n_dots":3.25,"target":"left","response":"left","rt":346.70000000298,"correct":true,"confidence":3},{"trial_n":157,"n_dots":3.25,"target":"right","response":"right","rt":256,"correct":true,"confidence":5},{"trial_n":158,"n_dots":3.15,"target":"left","response":"left","rt":345,"correct":true,"confidence":4},{"trial_n":159,"n_dots":3.15,"target":"left","response":"left","rt":626.40000000224,"correct":true,"confidence":2},{"trial_n":160,"n_dots":3.05,"target":"left","response":"left","rt":1138.5,"correct":true,"confidence":2},{"trial_n":161,"n_dots":3.05,"target":"right","response":"left","rt":332.79999999702,"correct":false,"confidence":3},{"trial_n":162,"n_dots":3.15,"target":"left","response":"left","rt":652,"correct":true,"confidence":3},{"trial_n":163,"n_dots":3.15,"target":"left","response":"left","rt":710.69999999925,"correct":true,"confidence":3},{"trial_n":164,"n_dots":3.05,"target":"left","response":"left","rt":617.09999999776,"correct":true,"confidence":5},{"trial_n":165,"n_dots":3.05,"target":"left","response":"left","rt":293.39999999851,"correct":true,"confidence":5},{"trial_n":166,"n_dots":2.95,"target":"left","response":"right","rt":273.30000000075,"correct":false,"confidence":5},{"trial_n":167,"n_dots":3.05,"target":"left","response":"left","rt":246.39999999851,"correct":true,"confidence":3},{"trial_n":168,"n_dots":3.05,"target":"left","response":"left","rt":492.19999999925,"correct":true,"confidence":3},{"trial_n":169,"n_dots":2.95,"target":"left","response":"right","rt":458.70000000298,"correct":false,"confidence":1},{"trial_n":170,"n_dots":3.05,"target":"left","response":"right","rt":568.10000000149,"correct":false,"confidence":4},{"trial_n":171,"n_dots":3.15,"target":"left","response":"left","rt":222.39999999851,"correct":true,"confidence":1},{"trial_n":172,"n_dots":3.15,"target":"right","response":"right","rt":562.69999999925,"correct":true,"confidence":4},{"trial_n":173,"n_dots":3.05,"target":"right","response":"left","rt":1602.3999999985,"correct":false,"confidence":4},{"trial_n":174,"n_dots":3.15,"target":"right","response":"right","rt":511.89999999851,"correct":true,"confidence":5},{"trial_n":175,"n_dots":3.15,"target":"left","response":"left","rt":281.60000000149,"correct":true,"confidence":2},{"trial_n":176,"n_dots":3.05,"target":"right","response":"right","rt":405.19999999925,"correct":true,"confidence":5},{"trial_n":177,"n_dots":3.05,"target":"left","response":"left","rt":244.59999999776,"correct":true,"confidence":2},{"trial_n":178,"n_dots":2.95,"target":"left","response":"left","rt":225.5,"correct":true,"confidence":2},{"trial_n":179,"n_dots":2.95,"target":"left","response":"left","rt":344.19999999925,"correct":true,"confidence":4},{"trial_n":180,"n_dots":2.85,"target":"right","response":"left","rt":646.79999999702,"correct":false,"confidence":3},{"trial_n":181,"n_dots":2.95,"target":"left","response":"left","rt":326.10000000149,"correct":true,"confidence":4},{"trial_n":182,"n_dots":2.95,"target":"right","response":"right","rt":320.39999999851,"correct":true,"confidence":5},{"trial_n":183,"n_dots":2.85,"target":"right","response":"left","rt":281.69999999925,"correct":false,"confidence":3},{"trial_n":184,"n_dots":2.95,"target":"left","response":"left","rt":260.5,"correct":true,"confidence":3},{"trial_n":185,"n_dots":2.95,"target":"left","response":"left","rt":232.60000000149,"correct":true,"confidence":1},{"trial_n":186,"n_dots":2.85,"target":"left","response":"left","rt":232.39999999851,"correct":true,"confidence":5},{"trial_n":187,"n_dots":2.85,"target":"right","response":"right","rt":326.79999999702,"correct":true,"confidence":5},{"trial_n":188,"n_dots":2.75,"target":"right","response":"right","rt":1081.5,"correct":true,"confidence":5},{"trial_n":189,"n_dots":2.75,"target":"right","response":"left","rt":254.09999999776,"correct":false,"confidence":4},{"trial_n":190,"n_dots":2.85,"target":"left","response":"left","rt":1760.6000000015,"correct":true,"confidence":3},{"trial_n":191,"n_dots":2.85,"target":"right","response":"right","rt":430.39999999851,"correct":true,"confidence":5},{"trial_n":192,"n_dots":2.75,"target":"right","response":"right","rt":289.60000000149,"correct":true,"confidence":5},{"trial_n":193,"n_dots":2.75,"target":"left","response":"left","rt":217.70000000298,"correct":true,"confidence":5},{"trial_n":194,"n_dots":2.65,"target":"right","response":"right","rt":369.60000000149,"correct":true,"confidence":3}]