[{"trial_n":1,"n_dots":4.25,"target":"left","response":"left","rt":860.70000000019,"correct":true,"confidence":-1},{"trial_n":2,"n_dots":4.25,"target":"left","response":"left","rt":497.39999999944,"correct":true,"confidence":-1},{"trial_n":3,"n_dots":3.85,"target":"left","response":"left","rt":482.19999999925,"correct":true,"confidence":-1},{"trial_n":4,"n_dots":3.85,"target":"right","response":"right","rt":355.59999999963,"correct":true,"confidence":-1},{"trial_n":5,"n_dots":3.45,"target":"right","response":"right","rt":322.20000000019,"correct":true,"confidence":-1},{"trial_n":6,"n_dots":3.45,"target":"left","response":"right","rt":578.5,"correct":false,"confidence":-1},{"trial_n":7,"n_dots":3.85,"target":"right","response":"right","rt":466.39999999944,"correct":true,"confidence":-1},{"trial_n":8,"n_dots":3.85,"target":"left","response":"right","rt":723,"correct":false,"confidence":-1},{"trial_n":9,"n_dots":4.05,"target":"right","response":"right","rt":190.60000000056,"correct":true,"confidence":-1},{"trial_n":10,"n_dots":4.05,"target":"left","response":"left","rt":398.89999999944,"correct":true,"confidence":-1},{"trial_n":11,"n_dots":3.85,"target":"right","response":"right","rt":367.40000000037,"correct":true,"confidence":-1},{"trial_n":12,"n_dots":3.85,"target":"right","response":"right","rt":391.60000000056,"correct":true,"confidence":-1},{"trial_n":13,"n_dots":3.75,"target":"right","response":"right","rt":397.09999999963,"correct":true,"confidence":-1},{"trial_n":14,"n_dots":3.75,"target":"right","response":"right","rt":472.09999999963,"correct":true,"confidence":-1},{"trial_n":15,"n_dots":3.65,"target":"left","response":"left","rt":1081.0999999996,"correct":true,"confidence":-1},{"trial_n":16,"n_dots":3.65,"target":"right","response":"right","rt":440.20000000019,"correct":true,"confidence":-1},{"trial_n":17,"n_dots":3.55,"target":"left","response":"right","rt":433.90000000037,"correct":false,"confidence":-1},{"trial_n":18,"n_dots":3.65,"target":"left","response":"right","rt":403.39999999944,"correct":false,"confidence":-1},{"trial_n":19,"n_dots":3.75,"target":"left","response":"left","rt":289,"correct":true,"confidence":-1},{"trial_n":20,"n_dots":3.75,"target":"left","response":"left","rt":329.20000000019,"correct":true,"confidence":-1},{"trial_n":21,"n_dots":3.65,"target":"left","response":"right","rt":311.59999999963,"correct":false,"confidence":-1},{"trial_n":22,"n_dots":3.75,"target":"right","response":"right","rt":637.70000000019,"correct":true,"confidence":-1},{"trial_n":23,"n_dots":3.75,"target":"right","response":"right","rt":483.10000000056,"correct":true,"confidence":-1},{"trial_n":24,"n_dots":3.65,"target":"right","response":"right","rt":745.29999999981,"correct":true,"confidence":-1},{"trial_n":25,"n_dots":3.65,"target":"left","response":"left","rt":553.90000000037,"correct":true,"confidence":-1},{"trial_n":26,"n_dots":3.55,"target":"left","response":"left","rt":710.20000000019,"correct":true,"confidence":-1},{"trial_n":27,"n_dots":3.55,"target":"right","response":"right","rt":462.29999999981,"correct":true,"confidence":4},{"trial_n":28,"n_dots":3.45,"target":"right","response":"right","rt":350.09999999963,"correct":true,"confidence":5},{"trial_n":29,"n_dots":3.45,"target":"left","response":"left","rt":403,"correct":true,"confidence":4},{"trial_n":30,"n_dots":3.35,"target":"left","response":"right","rt":576.09999999963,"correct":false,"confidence":3},{"trial_n":31,"n_dots":3.45,"target":"right","response":"right","rt":437.90000000037,"correct":true,"confidence":3},{"trial_n":32,"n_dots":3.45,"target":"right","response":"right","rt":438.70000000019,"correct":true,"confidence":2},{"trial_n":33,"n_dots":3.35,"target":"right","response":"right","rt":346.39999999944,"correct":true,"confidence":4},{"trial_n":34,"n_dots":3.35,"target":"left","response":"right","rt":723,"correct":false,"confidence":2},{"trial_n":35,"n_dots":3.45,"target":"left","response":"right","rt":627,"correct":false,"confidence":4},{"trial_n":36,"n_dots":3.55,"target":"right","response":"right","rt":313.89999999944,"correct":true,"confidence":6},{"trial_n":37,"n_dots":3.55,"target":"right","response":"right","rt":572.79999999981,"correct":true,"confidence":4},{"trial_n":38,"n_dots":3.45,"target":"left","response":"right","rt":427.70000000019,"correct":false,"confidence":4},{"trial_n":39,"n_dots":3.55,"target":"right","response":"right","rt":373.70000000019,"correct":true,"confidence":5},{"trial_n":40,"n_dots":3.55,"target":"right","response":"right","rt":335.29999999981,"correct":true,"confidence":5},{"trial_n":41,"n_dots":3.45,"target":"left","response":"right","rt":428.29999999981,"correct":false,"confidence":5},{"trial_n":42,"n_dots":3.55,"target":"left","response":"right","rt":393.5,"correct":false,"confidence":5},{"trial_n":43,"n_dots":3.65,"target":"right","response":"left","rt":586.79999999981,"correct":false,"confidence":3},{"trial_n":44,"n_dots":3.75,"target":"right","response":"right","rt":606.5,"correct":true,"confidence":2},{"trial_n":45,"n_dots":3.75,"target":"right","response":"right","rt":322.70000000019,"correct":true,"confidence":5},{"trial_n":46,"n_dots":3.65,"target":"right","response":"right","rt":346.40000000037,"correct":true,"confidence":6},{"trial_n":47,"n_dots":3.65,"target":"right","response":"right","rt":460.30000000075,"correct":true,"confidence":4},{"trial_n":48,"n_dots":3.55,"target":"left","response":"left","rt":351.70000000019,"correct":true,"confidence":2},{"trial_n":49,"n_dots":3.55,"target":"right","response":"right","rt":856.40000000037,"correct":true,"confidence":1},{"trial_n":50,"n_dots":3.45,"target":"right","response":"right","rt":425.20000000019,"correct":true,"confidence":2},{"trial_n":51,"n_dots":3.45,"target":"right","response":"right","rt":2275.2000000002,"correct":true,"confidence":3},{"trial_n":52,"n_dots":3.35,"target":"right","response":"right","rt":577.90000000037,"correct":true,"confidence":2},{"trial_n":53,"n_dots":3.35,"target":"left","response":"left","rt":737.39999999944,"correct":true,"confidence":3},{"trial_n":54,"n_dots":3.25,"target":"right","response":"right","rt":371.70000000019,"correct":true,"confidence":4},{"trial_n":55,"n_dots":3.25,"target":"right","response":"left","rt":1210.5999999996,"correct":false,"confidence":2},{"trial_n":56,"n_dots":3.35,"target":"left","response":"right","rt":713.89999999944,"correct":false,"confidence":3},{"trial_n":57,"n_dots":3.45,"target":"right","response":"right","rt":391.79999999981,"correct":true,"confidence":4},{"trial_n":58,"n_dots":3.45,"target":"right","response":"right","rt":422,"correct":true,"confidence":4},{"trial_n":59,"n_dots":3.35,"target":"right","response":"right","rt":289.19999999925,"correct":true,"confidence":5},{"trial_n":60,"n_dots":3.35,"target":"right","response":"right","rt":215.39999999944,"correct":true,"confidence":6},{"trial_n":61,"n_dots":3.25,"target":"right","response":"right","rt":351.5,"correct":true,"confidence":6},{"trial_n":62,"n_dots":3.25,"target":"right","response":"right","rt":367.39999999944,"correct":true,"confidence":6},{"trial_n":63,"n_dots":3.15,"target":"left","response":"left","rt":526.29999999981,"correct":true,"confidence":3},{"trial_n":64,"n_dots":3.15,"target":"left","response":"left","rt":289,"correct":true,"confidence":3},{"trial_n":65,"n_dots":3.05,"target":"right","response":"right","rt":327.30000000075,"correct":true,"confidence":4},{"trial_n":66,"n_dots":3.05,"target":"left","response":"left","rt":544.20000000019,"correct":true,"confidence":4},{"trial_n":67,"n_dots":2.95,"target":"right","response":"right","rt":366.20000000019,"correct":true,"confidence":5},{"trial_n":68,"n_dots":2.95,"target":"right","response":"right","rt":287.5,"correct":true,"confidence":5},{"trial_n":69,"n_dots":2.85,"target":"right","response":"right","rt":691.10000000056,"correct":true,"confidence":6},{"trial_n":70,"n_dots":2.85,"target":"right","response":"left","rt":501.60000000056,"correct":false,"confidence":5},{"trial_n":71,"n_dots":2.95,"target":"left","response":"left","rt":742,"correct":true,"confidence":4},{"trial_n":72,"n_dots":2.95,"target":"right","response":"right","rt":186.79999999981,"correct":true,"confidence":5},{"trial_n":73,"n_dots":2.85,"target":"left","response":"left","rt":205.90000000037,"correct":true,"confidence":5},{"trial_n":74,"n_dots":2.85,"target":"left","response":"right","rt":592.90000000037,"correct":false,"confidence":3},{"trial_n":75,"n_dots":2.95,"target":"left","response":"left","rt":448.90000000037,"correct":true,"confidence":3},{"trial_n":76,"n_dots":2.95,"target":"left","response":"right","rt":726.20000000019,"correct":false,"confidence":3},{"trial_n":77,"n_dots":3.05,"target":"right","response":"right","rt":373.5,"correct":true,"confidence":2},{"trial_n":78,"n_dots":3.05,"target":"left","response":"right","rt":538.70000000019,"correct":false,"confidence":2},{"trial_n":79,"n_dots":3.15,"target":"right","response":"right","rt":457.80000000075,"correct":true,"confidence":3},{"trial_n":80,"n_dots":3.15,"target":"right","response":"right","rt":374.70000000019,"correct":true,"confidence":3},{"trial_n":81,"n_dots":3.05,"target":"left","response":"right","rt":443.29999999981,"correct":false,"confidence":4},{"trial_n":82,"n_dots":3.15,"target":"right","response":"right","rt":367.5,"correct":true,"confidence":5},{"trial_n":83,"n_dots":3.15,"target":"right","response":"right","rt":317.80000000075,"correct":true,"confidence":5},{"trial_n":84,"n_dots":3.05,"target":"left","response":"left","rt":429.29999999981,"correct":true,"confidence":4},{"trial_n":85,"n_dots":3.05,"target":"left","response":"right","rt":415.59999999963,"correct":false,"confidence":5},{"trial_n":86,"n_dots":3.15,"target":"right","response":"right","rt":386.79999999981,"correct":true,"confidence":6},{"trial_n":87,"n_dots":3.15,"target":"left","response":"left","rt":409.20000000019,"correct":true,"confidence":3},{"trial_n":88,"n_dots":3.05,"target":"right","response":"right","rt":349.5,"correct":true,"confidence":5},{"trial_n":89,"n_dots":3.05,"target":"left","response":"right","rt":440.40000000037,"correct":false,"confidence":5},{"trial_n":90,"n_dots":3.15,"target":"right","response":"right","rt":417,"correct":true,"confidence":5},{"trial_n":91,"n_dots":3.15,"target":"right","response":"right","rt":410,"correct":true,"confidence":4},{"trial_n":92,"n_dots":3.05,"target":"left","response":"right","rt":398.69999999925,"correct":false,"confidence":4},{"trial_n":93,"n_dots":3.15,"target":"left","response":"right","rt":383.40000000037,"correct":false,"confidence":4},{"trial_n":94,"n_dots":3.25,"target":"left","response":"left","rt":487.40000000037,"correct":true,"confidence":3},{"trial_n":95,"n_dots":3.25,"target":"left","response":"left","rt":407,"correct":true,"confidence":4},{"trial_n":96,"n_dots":3.15,"target":"left","response":"left","rt":573.60000000056,"correct":true,"confidence":2},{"trial_n":97,"n_dots":3.15,"target":"left","response":"right","rt":362,"correct":false,"confidence":3},{"trial_n":98,"n_dots":3.25,"target":"right","response":"right","rt":344.20000000019,"correct":true,"confidence":3},{"trial_n":99,"n_dots":3.25,"target":"left","response":"left","rt":500.30000000075,"correct":true,"confidence":4},{"trial_n":100,"n_dots":3.15,"target":"left","response":"left","rt":963.20000000019,"correct":true,"confidence":2},{"trial_n":101,"n_dots":3.15,"target":"left","response":"right","rt":343.20000000019,"correct":false,"confidence":5},{"trial_n":102,"n_dots":3.25,"target":"right","response":"right","rt":323,"correct":true,"confidence":6},{"trial_n":103,"n_dots":3.25,"target":"right","response":"right","rt":360.10000000056,"correct":true,"confidence":6},{"trial_n":104,"n_dots":3.15,"target":"right","response":"right","rt":335.29999999981,"correct":true,"confidence":6},{"trial_n":105,"n_dots":3.15,"target":"right","response":"right","rt":276,"correct":true,"confidence":5},{"trial_n":106,"n_dots":3.05,"target":"left","response":"right","rt":620,"correct":false,"confidence":5},{"trial_n":107,"n_dots":3.15,"target":"left","response":"right","rt":646.19999999925,"correct":false,"confidence":4},{"trial_n":108,"n_dots":3.25,"target":"left","response":"left","rt":595.10000000056,"correct":true,"confidence":4},{"trial_n":109,"n_dots":3.25,"target":"left","response":"left","rt":653.40000000037,"correct":true,"confidence":4},{"trial_n":110,"n_dots":3.15,"target":"left","response":"left","rt":349.59999999963,"correct":true,"confidence":4},{"trial_n":111,"n_dots":3.15,"target":"right","response":"right","rt":499.20000000019,"correct":true,"confidence":2},{"trial_n":112,"n_dots":3.05,"target":"left","response":"left","rt":844.79999999981,"correct":true,"confidence":2},{"trial_n":113,"n_dots":3.05,"target":"left","response":"right","rt":203.5,"correct":false,"confidence":4},{"trial_n":114,"n_dots":3.15,"target":"left","response":"left","rt":403.29999999981,"correct":true,"confidence":4},{"trial_n":115,"n_dots":3.15,"target":"right","response":"right","rt":416.79999999981,"correct":true,"confidence":5},{"trial_n":116,"n_dots":3.05,"target":"left","response":"right","rt":368.79999999981,"correct":false,"confidence":5},{"trial_n":117,"n_dots":3.15,"target":"right","response":"right","rt":252.29999999981,"correct":true,"confidence":5},{"trial_n":118,"n_dots":3.15,"target":"left","response":"right","rt":422.69999999925,"correct":false,"confidence":4},{"trial_n":119,"n_dots":3.25,"target":"left","response":"left","rt":338.5,"correct":true,"confidence":4},{"trial_n":120,"n_dots":3.25,"target":"left","response":"left","rt":316.59999999963,"correct":true,"confidence":4},{"trial_n":121,"n_dots":3.15,"target":"left","response":"right","rt":309.89999999944,"correct":false,"confidence":5},{"trial_n":122,"n_dots":3.25,"target":"right","response":"right","rt":311.20000000019,"correct":true,"confidence":6},{"trial_n":123,"n_dots":3.25,"target":"left","response":"left","rt":470.20000000019,"correct":true,"confidence":3},{"trial_n":124,"n_dots":3.15,"target":"left","response":"right","rt":332,"correct":false,"confidence":4},{"trial_n":125,"n_dots":3.25,"target":"left","response":"right","rt":356.79999999981,"correct":false,"confidence":4},{"trial_n":126,"n_dots":3.35,"target":"left","response":"right","rt":287.20000000019,"correct":false,"confidence":5},{"trial_n":127,"n_dots":3.45,"target":"left","response":"left","rt":377.59999999963,"correct":true,"confidence":2},{"trial_n":128,"n_dots":3.45,"target":"right","response":"right","rt":186.70000000019,"correct":true,"confidence":5},{"trial_n":129,"n_dots":3.35,"target":"left","response":"left","rt":373.59999999963,"correct":true,"confidence":5},{"trial_n":130,"n_dots":3.35,"target":"right","response":"right","rt":584,"correct":true,"confidence":5},{"trial_n":131,"n_dots":3.25,"target":"left","response":"right","rt":531.10000000056,"correct":false,"confidence":2},{"trial_n":132,"n_dots":3.35,"target":"left","response":"left","rt":608.40000000037,"correct":true,"confidence":3},{"trial_n":133,"n_dots":3.35,"target":"right","response":"right","rt":89.599999999627,"correct":true,"confidence":6},{"trial_n":134,"n_dots":3.25,"target":"right","response":"right","rt":708.10000000056,"correct":true,"confidence":6},{"trial_n":135,"n_dots":3.25,"target":"left","response":"right","rt":401.70000000019,"correct":false,"confidence":5},{"trial_n":136,"n_dots":3.35,"target":"left","response":"right","rt":355.40000000037,"correct":false,"confidence":3},{"trial_n":137,"n_dots":3.45,"target":"left","response":"right","rt":346.20000000019,"correct":false,"confidence":5},{"trial_n":138,"n_dots":3.55,"target":"right","response":"right","rt":83.200000000186,"correct":true,"confidence":6},{"trial_n":139,"n_dots":3.55,"target":"left","response":"left","rt":533.20000000019,"correct":true,"confidence":4},{"trial_n":140,"n_dots":3.45,"target":"right","response":"right","rt":245.5,"correct":true,"confidence":6},{"trial_n":141,"n_dots":3.45,"target":"left","response":"right","rt":474.40000000037,"correct":false,"confidence":2},{"trial_n":142,"n_dots":3.55,"target":"right","response":"right","rt":435.09999999963,"correct":true,"confidence":5},{"trial_n":143,"n_dots":3.55,"target":"right","response":"right","rt":122.5,"correct":true,"confidence":5},{"trial_n":144,"n_dots":3.45,"target":"left","response":"left","rt":285.89999999944,"correct":true,"confidence":4},{"trial_n":145,"n_dots":3.45,"target":"left","response":"left","rt":776.29999999981,"correct":true,"confidence":3},{"trial_n":146,"n_dots":3.35,"target":"left","response":"left","rt":366.5,"correct":true,"confidence":4},{"trial_n":147,"n_dots":3.35,"target":"left","response":"right","rt":514.60000000056,"correct":false,"confidence":5},{"trial_n":148,"n_dots":3.45,"target":"right","response":"right","rt":355.60000000056,"correct":true,"confidence":5},{"trial_n":149,"n_dots":3.45,"target":"right","response":"right","rt":103.70000000019,"correct":true,"confidence":5},{"trial_n":150,"n_dots":3.35,"target":"left","response":"left","rt":394.79999999981,"correct":true,"confidence":4},{"trial_n":151,"n_dots":3.35,"target":"left","response":"right","rt":475.89999999944,"correct":false,"confidence":2},{"trial_n":152,"n_dots":3.45,"target":"right","response":"right","rt":317.80000000075,"correct":true,"confidence":4},{"trial_n":153,"n_dots":3.45,"target":"left","response":"left","rt":358.90000000037,"correct":true,"confidence":5},{"trial_n":154,"n_dots":3.35,"target":"left","response":"left","rt":355.39999999944,"correct":true,"confidence":4},{"trial_n":155,"n_dots":3.35,"target":"right","response":"right","rt":349.70000000019,"correct":true,"confidence":4},{"trial_n":156,"n_dots":3.25,"target":"left","response":"left","rt":423.90000000037,"correct":true,"confidence":3},{"trial_n":157,"n_dots":3.25,"target":"right","response":"right","rt":193.79999999981,"correct":true,"confidence":5},{"trial_n":158,"n_dots":3.15,"target":"right","response":"right","rt":371.40000000037,"correct":true,"confidence":6},{"trial_n":159,"n_dots":3.15,"target":"right","response":"right","rt":524.29999999981,"correct":true,"confidence":4},{"trial_n":160,"n_dots":3.05,"target":"right","response":"right","rt":348.19999999925,"correct":true,"confidence":3},{"trial_n":161,"n_dots":3.05,"target":"right","response":"right","rt":492.70000000019,"correct":true,"confidence":5},{"trial_n":162,"n_dots":2.95,"target":"right","response":"right","rt":363.10000000056,"correct":true,"confidence":5},{"trial_n":163,"n_dots":2.95,"target":"right","response":"right","rt":260,"correct":true,"confidence":5},{"trial_n":164,"n_dots":2.85,"target":"right","response":"right","rt":272.09999999963,"correct":true,"confidence":5},{"trial_n":165,"n_dots":2.85,"target":"left","response":"right","rt":349.80000000075,"correct":false,"confidence":2},{"trial_n":166,"n_dots":2.95,"target":"left","response":"right","rt":333.40000000037,"correct":false,"confidence":4},{"trial_n":167,"n_dots":3.05,"target":"left","response":"right","rt":413.09999999963,"correct":false,"confidence":4},{"trial_n":168,"n_dots":3.15,"target":"right","response":"right","rt":649.39999999944,"correct":true,"confidence":3},{"trial_n":169,"n_dots":3.15,"target":"left","response":"left","rt":785.40000000037,"correct":true,"confidence":2},{"trial_n":170,"n_dots":3.05,"target":"right","response":"right","rt":849.89999999944,"correct":true,"confidence":2},{"trial_n":171,"n_dots":3.05,"target":"right","response":"right","rt":453.09999999963,"correct":true,"confidence":4},{"trial_n":172,"n_dots":2.95,"target":"right","response":"right","rt":668.20000000019,"correct":true,"confidence":2},{"trial_n":173,"n_dots":2.95,"target":"right","response":"right","rt":623,"correct":true,"confidence":2},{"trial_n":174,"n_dots":2.85,"target":"right","response":"right","rt":483.70000000019,"correct":true,"confidence":1},{"trial_n":175,"n_dots":2.85,"target":"left","response":"left","rt":617.20000000019,"correct":true,"confidence":4},{"trial_n":176,"n_dots":2.75,"target":"right","response":"left","rt":403.10000000056,"correct":false,"confidence":3},{"trial_n":177,"n_dots":2.85,"target":"left","response":"left","rt":556.90000000037,"correct":true,"confidence":3},{"trial_n":178,"n_dots":2.85,"target":"right","response":"left","rt":807.5,"correct":false,"confidence":2},{"trial_n":179,"n_dots":2.95,"target":"left","response":"left","rt":511.69999999925,"correct":true,"confidence":3},{"trial_n":180,"n_dots":2.95,"target":"left","response":"right","rt":286.39999999944,"correct":false,"confidence":4},{"trial_n":181,"n_dots":3.05,"target":"right","response":"right","rt":604.20000000019,"correct":true,"confidence":3},{"trial_n":182,"n_dots":3.05,"target":"right","response":"right","rt":372.29999999981,"correct":true,"confidence":1},{"trial_n":183,"n_dots":2.95,"target":"right","response":"right","rt":292.79999999981,"correct":true,"confidence":3},{"trial_n":184,"n_dots":2.95,"target":"left","response":"left","rt":407.30000000075,"correct":true,"confidence":2},{"trial_n":185,"n_dots":2.85,"target":"right","response":"right","rt":369.10000000056,"correct":true,"confidence":4},{"trial_n":186,"n_dots":2.85,"target":"left","response":"left","rt":466,"correct":true,"confidence":4},{"trial_n":187,"n_dots":2.75,"target":"left","response":"left","rt":386.10000000056,"correct":true,"confidence":5},{"trial_n":188,"n_dots":2.75,"target":"left","response":"left","rt":770.59999999963,"correct":true,"confidence":2},{"trial_n":189,"n_dots":2.65,"target":"left","response":"left","rt":436.20000000019,"correct":true,"confidence":2},{"trial_n":190,"n_dots":2.65,"target":"right","response":"right","rt":188.89999999944,"correct":true,"confidence":3},{"trial_n":191,"n_dots":2.55,"target":"left","response":"right","rt":601.70000000019,"correct":false,"confidence":2},{"trial_n":192,"n_dots":2.65,"target":"right","response":"right","rt":246.29999999981,"correct":true,"confidence":6},{"trial_n":193,"n_dots":2.65,"target":"left","response":"right","rt":483.89999999944,"correct":false,"confidence":3},{"trial_n":194,"n_dots":2.75,"target":"right","response":"right","rt":211.79999999981,"correct":true,"confidence":3}]