[{"trial_n":1,"n_dots":4.25,"target":"right","response":"left","rt":2312,"correct":false,"confidence":-1},{"trial_n":2,"n_dots":4.25,"target":"right","response":"right","rt":354.20000004768,"correct":true,"confidence":-1},{"trial_n":3,"n_dots":4.25,"target":"right","response":"right","rt":397.30000019073,"correct":true,"confidence":-1},{"trial_n":4,"n_dots":3.85,"target":"right","response":"right","rt":386.5,"correct":true,"confidence":-1},{"trial_n":5,"n_dots":3.85,"target":"left","response":"right","rt":772.79999995232,"correct":false,"confidence":-1},{"trial_n":6,"n_dots":4.25,"target":"left","response":"left","rt":336.90000009537,"correct":true,"confidence":-1},{"trial_n":7,"n_dots":4.25,"target":"left","response":"left","rt":340.29999995232,"correct":true,"confidence":-1},{"trial_n":8,"n_dots":4.05,"target":"right","response":"right","rt":294.89999985695,"correct":true,"confidence":-1},{"trial_n":9,"n_dots":4.05,"target":"right","response":"right","rt":320.89999985695,"correct":true,"confidence":-1},{"trial_n":10,"n_dots":3.85,"target":"left","response":"left","rt":452,"correct":true,"confidence":-1},{"trial_n":11,"n_dots":3.85,"target":"left","response":"left","rt":447.20000004768,"correct":true,"confidence":-1},{"trial_n":12,"n_dots":3.65,"target":"left","response":"right","rt":487.29999995232,"correct":false,"confidence":-1},{"trial_n":13,"n_dots":3.75,"target":"left","response":"left","rt":539.09999990463,"correct":true,"confidence":-1},{"trial_n":14,"n_dots":3.75,"target":"right","response":"right","rt":354,"correct":true,"confidence":-1},{"trial_n":15,"n_dots":3.65,"target":"right","response":"right","rt":422.09999990463,"correct":true,"confidence":-1},{"trial_n":16,"n_dots":3.65,"target":"left","response":"left","rt":521.5,"correct":true,"confidence":-1},{"trial_n":17,"n_dots":3.55,"target":"left","response":"right","rt":607.70000004768,"correct":false,"confidence":-1},{"trial_n":18,"n_dots":3.65,"target":"left","response":"left","rt":402.10000014305,"correct":true,"confidence":-1},{"trial_n":19,"n_dots":3.65,"target":"right","response":"right","rt":357.5,"correct":true,"confidence":-1},{"trial_n":20,"n_dots":3.55,"target":"left","response":"left","rt":407.5,"correct":true,"confidence":-1},{"trial_n":21,"n_dots":3.55,"target":"left","response":"left","rt":610.29999995232,"correct":true,"confidence":-1},{"trial_n":22,"n_dots":3.45,"target":"right","response":"right","rt":328,"correct":true,"confidence":-1},{"trial_n":23,"n_dots":3.45,"target":"left","response":"right","rt":375,"correct":false,"confidence":-1},{"trial_n":24,"n_dots":3.55,"target":"right","response":"right","rt":325.60000014305,"correct":true,"confidence":-1},{"trial_n":25,"n_dots":3.55,"target":"right","response":"right","rt":332.30000019073,"correct":true,"confidence":-1},{"trial_n":26,"n_dots":3.45,"target":"right","response":"right","rt":344.5,"correct":true,"confidence":-1},{"trial_n":27,"n_dots":3.45,"target":"right","response":"right","rt":267.90000009537,"correct":true,"confidence":4},{"trial_n":28,"n_dots":3.35,"target":"left","response":"left","rt":373.70000004768,"correct":true,"confidence":3},{"trial_n":29,"n_dots":3.35,"target":"right","response":"right","rt":384.29999995232,"correct":true,"confidence":4},{"trial_n":30,"n_dots":3.25,"target":"right","response":"right","rt":397,"correct":true,"confidence":5},{"trial_n":31,"n_dots":3.25,"target":"left","response":"right","rt":355.30000019073,"correct":false,"confidence":6},{"trial_n":32,"n_dots":3.35,"target":"left","response":"left","rt":906.40000009537,"correct":true,"confidence":3},{"trial_n":33,"n_dots":3.35,"target":"left","response":"left","rt":564.79999995232,"correct":true,"confidence":3},{"trial_n":34,"n_dots":3.25,"target":"left","response":"left","rt":439.5,"correct":true,"confidence":4},{"trial_n":35,"n_dots":3.25,"target":"right","response":"right","rt":811.29999995232,"correct":true,"confidence":3},{"trial_n":36,"n_dots":3.15,"target":"right","response":"right","rt":326.79999995232,"correct":true,"confidence":5},{"trial_n":37,"n_dots":3.15,"target":"left","response":"right","rt":543,"correct":false,"confidence":5},{"trial_n":38,"n_dots":3.25,"target":"left","response":"left","rt":1067,"correct":true,"confidence":2},{"trial_n":39,"n_dots":3.25,"target":"left","response":"right","rt":443.70000004768,"correct":false,"confidence":3},{"trial_n":40,"n_dots":3.35,"target":"left","response":"left","rt":816.29999995232,"correct":true,"confidence":2},{"trial_n":41,"n_dots":3.35,"target":"left","response":"right","rt":385.5,"correct":false,"confidence":3},{"trial_n":42,"n_dots":3.45,"target":"left","response":"left","rt":494.70000004768,"correct":true,"confidence":2},{"trial_n":43,"n_dots":3.45,"target":"left","response":"left","rt":511,"correct":true,"confidence":2},{"trial_n":44,"n_dots":3.35,"target":"right","response":"right","rt":314.90000009537,"correct":true,"confidence":3},{"trial_n":45,"n_dots":3.35,"target":"right","response":"right","rt":676.89999985695,"correct":true,"confidence":2},{"trial_n":46,"n_dots":3.25,"target":"right","response":"right","rt":326.5,"correct":true,"confidence":4},{"trial_n":47,"n_dots":3.25,"target":"right","response":"right","rt":398.39999985695,"correct":true,"confidence":4},{"trial_n":48,"n_dots":3.15,"target":"right","response":"right","rt":611,"correct":true,"confidence":5},{"trial_n":49,"n_dots":3.15,"target":"right","response":"right","rt":535.09999990463,"correct":true,"confidence":3},{"trial_n":50,"n_dots":3.05,"target":"left","response":"right","rt":443.29999995232,"correct":false,"confidence":2},{"trial_n":51,"n_dots":3.15,"target":"right","response":"right","rt":364.90000009537,"correct":true,"confidence":4},{"trial_n":52,"n_dots":3.15,"target":"left","response":"right","rt":639.89999985695,"correct":false,"confidence":2},{"trial_n":53,"n_dots":3.25,"target":"left","response":"right","rt":470.5,"correct":false,"confidence":2},{"trial_n":54,"n_dots":3.35,"target":"left","response":"left","rt":682.59999990463,"correct":true,"confidence":2},{"trial_n":55,"n_dots":3.35,"target":"left","response":"left","rt":441,"correct":true,"confidence":3},{"trial_n":56,"n_dots":3.25,"target":"left","response":"right","rt":635.59999990463,"correct":false,"confidence":2},{"trial_n":57,"n_dots":3.35,"target":"left","response":"right","rt":994.69999980927,"correct":false,"confidence":3},{"trial_n":58,"n_dots":3.45,"target":"left","response":"right","rt":593,"correct":false,"confidence":4},{"trial_n":59,"n_dots":3.55,"target":"left","response":"left","rt":493.79999995232,"correct":true,"confidence":2},{"trial_n":60,"n_dots":3.55,"target":"left","response":"left","rt":696.5,"correct":true,"confidence":2},{"trial_n":61,"n_dots":3.45,"target":"right","response":"right","rt":475.60000014305,"correct":true,"confidence":3},{"trial_n":62,"n_dots":3.45,"target":"left","response":"left","rt":408,"correct":true,"confidence":3},{"trial_n":63,"n_dots":3.35,"target":"left","response":"left","rt":341.39999985695,"correct":true,"confidence":3},{"trial_n":64,"n_dots":3.35,"target":"right","response":"right","rt":293.10000014305,"correct":true,"confidence":5},{"trial_n":65,"n_dots":3.25,"target":"right","response":"right","rt":297.79999995232,"correct":true,"confidence":5},{"trial_n":66,"n_dots":3.25,"target":"right","response":"right","rt":305.89999985695,"correct":true,"confidence":5},{"trial_n":67,"n_dots":3.15,"target":"left","response":"right","rt":339.10000014305,"correct":false,"confidence":4},{"trial_n":68,"n_dots":3.25,"target":"right","response":"right","rt":268,"correct":true,"confidence":4},{"trial_n":69,"n_dots":3.25,"target":"right","response":"right","rt":244.79999995232,"correct":true,"confidence":4},{"trial_n":70,"n_dots":3.15,"target":"left","response":"left","rt":489.29999995232,"correct":true,"confidence":2},{"trial_n":71,"n_dots":3.15,"target":"right","response":"right","rt":331.20000004768,"correct":true,"confidence":5},{"trial_n":72,"n_dots":3.05,"target":"right","response":"right","rt":346.40000009537,"correct":true,"confidence":4},{"trial_n":73,"n_dots":3.05,"target":"right","response":"right","rt":336.19999980927,"correct":true,"confidence":5},{"trial_n":74,"n_dots":2.95,"target":"right","response":"right","rt":361.79999995232,"correct":true,"confidence":4},{"trial_n":75,"n_dots":2.95,"target":"right","response":"right","rt":318.90000009537,"correct":true,"confidence":3},{"trial_n":76,"n_dots":2.85,"target":"left","response":"right","rt":595.5,"correct":false,"confidence":3},{"trial_n":77,"n_dots":2.95,"target":"left","response":"right","rt":518.70000004768,"correct":false,"confidence":4},{"trial_n":78,"n_dots":3.05,"target":"right","response":"right","rt":401,"correct":true,"confidence":4},{"trial_n":79,"n_dots":3.05,"target":"right","response":"right","rt":330.79999995232,"correct":true,"confidence":4},{"trial_n":80,"n_dots":2.95,"target":"left","response":"left","rt":374.60000014305,"correct":true,"confidence":3},{"trial_n":81,"n_dots":2.95,"target":"left","response":"left","rt":611.60000014305,"correct":true,"confidence":5},{"trial_n":82,"n_dots":2.85,"target":"left","response":"left","rt":355.5,"correct":true,"confidence":4},{"trial_n":83,"n_dots":2.85,"target":"right","response":"right","rt":352.70000004768,"correct":true,"confidence":4},{"trial_n":84,"n_dots":2.75,"target":"right","response":"left","rt":456,"correct":false,"confidence":2},{"trial_n":85,"n_dots":2.85,"target":"right","response":"right","rt":349.09999990463,"correct":true,"confidence":5},{"trial_n":86,"n_dots":2.85,"target":"left","response":"right","rt":618.20000004768,"correct":false,"confidence":4},{"trial_n":87,"n_dots":2.95,"target":"right","response":"right","rt":450.90000009537,"correct":true,"confidence":3},{"trial_n":88,"n_dots":2.95,"target":"left","response":"right","rt":551.10000014305,"correct":false,"confidence":3},{"trial_n":89,"n_dots":3.05,"target":"right","response":"right","rt":390.70000004768,"correct":true,"confidence":5},{"trial_n":90,"n_dots":3.05,"target":"left","response":"left","rt":392.20000004768,"correct":true,"confidence":2},{"trial_n":91,"n_dots":2.95,"target":"left","response":"left","rt":480.39999985695,"correct":true,"confidence":2},{"trial_n":92,"n_dots":2.95,"target":"left","response":"left","rt":837.80000019073,"correct":true,"confidence":4},{"trial_n":93,"n_dots":2.85,"target":"right","response":"right","rt":350,"correct":true,"confidence":3},{"trial_n":94,"n_dots":2.85,"target":"left","response":"left","rt":729.10000014305,"correct":true,"confidence":2},{"trial_n":95,"n_dots":2.75,"target":"left","response":"left","rt":520.39999985695,"correct":true,"confidence":4},{"trial_n":96,"n_dots":2.75,"target":"right","response":"right","rt":371.79999995232,"correct":true,"confidence":4},{"trial_n":97,"n_dots":2.65,"target":"right","response":"right","rt":805,"correct":true,"confidence":3},{"trial_n":98,"n_dots":2.65,"target":"right","response":"right","rt":313.5,"correct":true,"confidence":5},{"trial_n":99,"n_dots":2.55,"target":"left","response":"right","rt":688.80000019073,"correct":false,"confidence":5},{"trial_n":100,"n_dots":2.65,"target":"left","response":"left","rt":355.29999995232,"correct":true,"confidence":3},{"trial_n":101,"n_dots":2.65,"target":"left","response":"left","rt":533.80000019073,"correct":true,"confidence":3},{"trial_n":102,"n_dots":2.55,"target":"right","response":"right","rt":308.89999985695,"correct":true,"confidence":3},{"trial_n":103,"n_dots":2.55,"target":"right","response":"right","rt":278.59999990463,"correct":true,"confidence":3},{"trial_n":104,"n_dots":2.45,"target":"right","response":"right","rt":333.60000014305,"correct":true,"confidence":4},{"trial_n":105,"n_dots":2.45,"target":"left","response":"right","rt":463.59999990463,"correct":false,"confidence":4},{"trial_n":106,"n_dots":2.55,"target":"left","response":"right","rt":437.79999995232,"correct":false,"confidence":2},{"trial_n":107,"n_dots":2.65,"target":"right","response":"right","rt":265.90000009537,"correct":true,"confidence":5},{"trial_n":108,"n_dots":2.65,"target":"right","response":"right","rt":380.30000019073,"correct":true,"confidence":5},{"trial_n":109,"n_dots":2.55,"target":"left","response":"right","rt":400.30000019073,"correct":false,"confidence":3},{"trial_n":110,"n_dots":2.65,"target":"left","response":"right","rt":462,"correct":false,"confidence":3},{"trial_n":111,"n_dots":2.75,"target":"right","response":"right","rt":359.80000019073,"correct":true,"confidence":3},{"trial_n":112,"n_dots":2.75,"target":"left","response":"right","rt":350.10000014305,"correct":false,"confidence":3},{"trial_n":113,"n_dots":2.85,"target":"right","response":"right","rt":335.10000014305,"correct":true,"confidence":4},{"trial_n":114,"n_dots":2.85,"target":"right","response":"right","rt":274.79999995232,"correct":true,"confidence":3},{"trial_n":115,"n_dots":2.75,"target":"right","response":"right","rt":337.70000004768,"correct":true,"confidence":3},{"trial_n":116,"n_dots":2.75,"target":"right","response":"right","rt":334.10000014305,"correct":true,"confidence":3},{"trial_n":117,"n_dots":2.65,"target":"right","response":"right","rt":1216.6000001431,"correct":true,"confidence":2},{"trial_n":118,"n_dots":2.65,"target":"left","response":"left","rt":387.70000004768,"correct":true,"confidence":3},{"trial_n":119,"n_dots":2.55,"target":"right","response":"right","rt":416.70000004768,"correct":true,"confidence":4},{"trial_n":120,"n_dots":2.55,"target":"right","response":"right","rt":322.5,"correct":true,"confidence":5},{"trial_n":121,"n_dots":2.45,"target":"right","response":"right","rt":666.40000009537,"correct":true,"confidence":3},{"trial_n":122,"n_dots":2.45,"target":"left","response":"left","rt":455.80000019073,"correct":true,"confidence":3},{"trial_n":123,"n_dots":2.35,"target":"right","response":"right","rt":380.20000004768,"correct":true,"confidence":5},{"trial_n":124,"n_dots":2.35,"target":"right","response":"right","rt":400.59999990463,"correct":true,"confidence":4},{"trial_n":125,"n_dots":2.25,"target":"left","response":"right","rt":336.70000004768,"correct":false,"confidence":3},{"trial_n":126,"n_dots":2.35,"target":"right","response":"right","rt":434.70000004768,"correct":true,"confidence":3},{"trial_n":127,"n_dots":2.35,"target":"right","response":"right","rt":365.70000004768,"correct":true,"confidence":3},{"trial_n":128,"n_dots":2.25,"target":"left","response":"right","rt":541,"correct":false,"confidence":3},{"trial_n":129,"n_dots":2.35,"target":"left","response":"right","rt":412.70000004768,"correct":false,"confidence":4},{"trial_n":130,"n_dots":2.45,"target":"left","response":"left","rt":702.70000004768,"correct":true,"confidence":2},{"trial_n":131,"n_dots":2.45,"target":"right","response":"right","rt":386.5,"correct":true,"confidence":2},{"trial_n":132,"n_dots":2.35,"target":"left","response":"left","rt":727.40000009537,"correct":true,"confidence":3},{"trial_n":133,"n_dots":2.35,"target":"right","response":"right","rt":323.59999990463,"correct":true,"confidence":3},{"trial_n":134,"n_dots":2.25,"target":"left","response":"right","rt":462.59999990463,"correct":false,"confidence":2},{"trial_n":135,"n_dots":2.35,"target":"left","response":"left","rt":524.70000004768,"correct":true,"confidence":3},{"trial_n":136,"n_dots":2.35,"target":"left","response":"left","rt":537.09999990463,"correct":true,"confidence":3},{"trial_n":137,"n_dots":2.25,"target":"right","response":"right","rt":517.5,"correct":true,"confidence":3},{"trial_n":138,"n_dots":2.25,"target":"left","response":"right","rt":655.20000004768,"correct":false,"confidence":3},{"trial_n":139,"n_dots":2.35,"target":"right","response":"right","rt":354.40000009537,"correct":true,"confidence":3},{"trial_n":140,"n_dots":2.35,"target":"right","response":"right","rt":411.70000004768,"correct":true,"confidence":4},{"trial_n":141,"n_dots":2.25,"target":"right","response":"right","rt":472.39999985695,"correct":true,"confidence":4},{"trial_n":142,"n_dots":2.25,"target":"left","response":"left","rt":488.09999990463,"correct":true,"confidence":3},{"trial_n":143,"n_dots":2.15,"target":"right","response":"right","rt":843.09999990463,"correct":true,"confidence":3},{"trial_n":144,"n_dots":2.15,"target":"left","response":"right","rt":478.79999995232,"correct":false,"confidence":3},{"trial_n":145,"n_dots":2.25,"target":"right","response":"right","rt":396.5,"correct":true,"confidence":3},{"trial_n":146,"n_dots":2.25,"target":"right","response":"right","rt":390.09999990463,"correct":true,"confidence":3},{"trial_n":147,"n_dots":2.15,"target":"right","response":"right","rt":373.90000009537,"correct":true,"confidence":3},{"trial_n":148,"n_dots":2.15,"target":"left","response":"left","rt":1101.7000000477,"correct":true,"confidence":2},{"trial_n":149,"n_dots":2.05,"target":"right","response":"right","rt":315,"correct":true,"confidence":2},{"trial_n":150,"n_dots":2.05,"target":"left","response":"right","rt":541.69999980927,"correct":false,"confidence":3},{"trial_n":151,"n_dots":2.15,"target":"right","response":"right","rt":388.79999995232,"correct":true,"confidence":3},{"trial_n":152,"n_dots":2.15,"target":"right","response":"right","rt":521,"correct":true,"confidence":3},{"trial_n":153,"n_dots":2.05,"target":"right","response":"right","rt":342.89999985695,"correct":true,"confidence":3},{"trial_n":154,"n_dots":2.05,"target":"right","response":"right","rt":537.29999995232,"correct":true,"confidence":3},{"trial_n":155,"n_dots":1.95,"target":"left","response":"right","rt":407.09999990463,"correct":false,"confidence":2},{"trial_n":156,"n_dots":2.05,"target":"left","response":"right","rt":364.79999995232,"correct":false,"confidence":2},{"trial_n":157,"n_dots":2.15,"target":"right","response":"right","rt":414.69999980927,"correct":true,"confidence":3},{"trial_n":158,"n_dots":2.15,"target":"right","response":"right","rt":820.20000004768,"correct":true,"confidence":2},{"trial_n":159,"n_dots":2.05,"target":"right","response":"right","rt":436.69999980927,"correct":true,"confidence":2},{"trial_n":160,"n_dots":2.05,"target":"right","response":"left","rt":454.29999995232,"correct":false,"confidence":2},{"trial_n":161,"n_dots":2.15,"target":"left","response":"left","rt":489.70000004768,"correct":true,"confidence":2},{"trial_n":162,"n_dots":2.15,"target":"left","response":"left","rt":470.20000004768,"correct":true,"confidence":3},{"trial_n":163,"n_dots":2.05,"target":"right","response":"left","rt":458.5,"correct":false,"confidence":3},{"trial_n":164,"n_dots":2.15,"target":"right","response":"left","rt":435.69999980927,"correct":false,"confidence":4},{"trial_n":165,"n_dots":2.25,"target":"left","response":"left","rt":447.09999990463,"correct":true,"confidence":4},{"trial_n":166,"n_dots":2.25,"target":"right","response":"right","rt":198.89999985695,"correct":true,"confidence":3},{"trial_n":167,"n_dots":2.15,"target":"left","response":"right","rt":460.29999995232,"correct":false,"confidence":3},{"trial_n":168,"n_dots":2.25,"target":"right","response":"right","rt":379.60000014305,"correct":true,"confidence":4},{"trial_n":169,"n_dots":2.25,"target":"left","response":"right","rt":602.5,"correct":false,"confidence":4},{"trial_n":170,"n_dots":2.35,"target":"left","response":"right","rt":407.40000009537,"correct":false,"confidence":4},{"trial_n":171,"n_dots":2.45,"target":"left","response":"left","rt":406.79999995232,"correct":true,"confidence":4},{"trial_n":172,"n_dots":2.45,"target":"right","response":"right","rt":311.5,"correct":true,"confidence":4},{"trial_n":173,"n_dots":2.35,"target":"right","response":"left","rt":904.40000009537,"correct":false,"confidence":4},{"trial_n":174,"n_dots":2.45,"target":"left","response":"left","rt":556.79999995232,"correct":true,"confidence":3},{"trial_n":175,"n_dots":2.45,"target":"right","response":"right","rt":287.90000009537,"correct":true,"confidence":4},{"trial_n":176,"n_dots":2.35,"target":"left","response":"left","rt":391.5,"correct":true,"confidence":3},{"trial_n":177,"n_dots":2.35,"target":"left","response":"right","rt":612.5,"correct":false,"confidence":4},{"trial_n":178,"n_dots":2.45,"target":"left","response":"right","rt":774.80000019073,"correct":false,"confidence":3},{"trial_n":179,"n_dots":2.55,"target":"left","response":"left","rt":887,"correct":true,"confidence":3},{"trial_n":180,"n_dots":2.55,"target":"left","response":"left","rt":511.60000014305,"correct":true,"confidence":3},{"trial_n":181,"n_dots":2.45,"target":"left","response":"left","rt":415.59999990463,"correct":true,"confidence":3},{"trial_n":182,"n_dots":2.45,"target":"right","response":"right","rt":394.90000009537,"correct":true,"confidence":3},{"trial_n":183,"n_dots":2.35,"target":"left","response":"left","rt":496.90000009537,"correct":true,"confidence":3},{"trial_n":184,"n_dots":2.35,"target":"right","response":"right","rt":412.60000014305,"correct":true,"confidence":3},{"trial_n":185,"n_dots":2.25,"target":"left","response":"right","rt":338.5,"correct":false,"confidence":3},{"trial_n":186,"n_dots":2.35,"target":"right","response":"left","rt":542.39999985695,"correct":false,"confidence":2},{"trial_n":187,"n_dots":2.45,"target":"left","response":"right","rt":500.09999990463,"correct":false,"confidence":2},{"trial_n":188,"n_dots":2.55,"target":"right","response":"right","rt":429.20000004768,"correct":true,"confidence":3},{"trial_n":189,"n_dots":2.55,"target":"left","response":"left","rt":478.79999995232,"correct":true,"confidence":3},{"trial_n":190,"n_dots":2.45,"target":"left","response":"left","rt":341.79999995232,"correct":true,"confidence":3},{"trial_n":191,"n_dots":2.45,"target":"right","response":"right","rt":308.40000009537,"correct":true,"confidence":3},{"trial_n":192,"n_dots":2.35,"target":"left","response":"left","rt":340.10000014305,"correct":true,"confidence":3},{"trial_n":193,"n_dots":2.35,"target":"left","response":"right","rt":375.20000004768,"correct":false,"confidence":3},{"trial_n":194,"n_dots":2.45,"target":"right","response":"right","rt":368.70000004768,"correct":true,"confidence":3}]