[{"trial_n":1,"n_dots":4.25,"target":"right","response":"right","rt":3343.5,"correct":true,"confidence":-1},{"trial_n":2,"n_dots":4.25,"target":"left","response":"right","rt":686.09999990463,"correct":false,"confidence":-1},{"trial_n":3,"n_dots":4.65,"target":"right","response":"right","rt":570.09999990463,"correct":true,"confidence":-1},{"trial_n":4,"n_dots":4.65,"target":"right","response":"right","rt":999.10000002384,"correct":true,"confidence":-1},{"trial_n":5,"n_dots":4.25,"target":"left","response":"left","rt":590.59999990463,"correct":true,"confidence":-1},{"trial_n":6,"n_dots":4.25,"target":"right","response":"right","rt":368.39999997616,"correct":true,"confidence":-1},{"trial_n":7,"n_dots":3.85,"target":"left","response":"left","rt":622.60000002384,"correct":true,"confidence":-1},{"trial_n":8,"n_dots":3.85,"target":"left","response":"left","rt":870.89999997616,"correct":true,"confidence":-1},{"trial_n":9,"n_dots":3.65,"target":"left","response":"left","rt":352.79999995232,"correct":true,"confidence":-1},{"trial_n":10,"n_dots":3.65,"target":"right","response":"right","rt":374.79999995232,"correct":true,"confidence":-1},{"trial_n":11,"n_dots":3.45,"target":"left","response":"left","rt":478.5,"correct":true,"confidence":-1},{"trial_n":12,"n_dots":3.45,"target":"left","response":"right","rt":344.39999997616,"correct":false,"confidence":-1},{"trial_n":13,"n_dots":3.55,"target":"right","response":"right","rt":216.80000007153,"correct":true,"confidence":-1},{"trial_n":14,"n_dots":3.55,"target":"right","response":"right","rt":354,"correct":true,"confidence":-1},{"trial_n":15,"n_dots":3.45,"target":"right","response":"right","rt":600.90000009537,"correct":true,"confidence":-1},{"trial_n":16,"n_dots":3.45,"target":"right","response":"right","rt":504.89999997616,"correct":true,"confidence":-1},{"trial_n":17,"n_dots":3.35,"target":"right","response":"right","rt":285.5,"correct":true,"confidence":-1},{"trial_n":18,"n_dots":3.35,"target":"left","response":"left","rt":271.20000004768,"correct":true,"confidence":-1},{"trial_n":19,"n_dots":3.25,"target":"left","response":"right","rt":380.19999992847,"correct":false,"confidence":-1},{"trial_n":20,"n_dots":3.35,"target":"right","response":"right","rt":208.5,"correct":true,"confidence":-1},{"trial_n":21,"n_dots":3.35,"target":"left","response":"left","rt":617.60000002384,"correct":true,"confidence":-1},{"trial_n":22,"n_dots":3.25,"target":"left","response":"left","rt":572.70000004768,"correct":true,"confidence":-1},{"trial_n":23,"n_dots":3.25,"target":"left","response":"right","rt":429.29999995232,"correct":false,"confidence":-1},{"trial_n":24,"n_dots":3.35,"target":"right","response":"right","rt":586.39999997616,"correct":true,"confidence":-1},{"trial_n":25,"n_dots":3.35,"target":"right","response":"right","rt":504,"correct":true,"confidence":-1},{"trial_n":26,"n_dots":3.25,"target":"left","response":"left","rt":289.89999997616,"correct":true,"confidence":-1},{"trial_n":27,"n_dots":3.25,"target":"right","response":"right","rt":296.10000002384,"correct":true,"confidence":4},{"trial_n":28,"n_dots":3.15,"target":"left","response":"left","rt":292.59999990463,"correct":true,"confidence":6},{"trial_n":29,"n_dots":3.15,"target":"left","response":"left","rt":499.10000002384,"correct":true,"confidence":5},{"trial_n":30,"n_dots":3.05,"target":"right","response":"right","rt":577.20000004768,"correct":true,"confidence":1},{"trial_n":31,"n_dots":3.05,"target":"right","response":"right","rt":282.20000004768,"correct":true,"confidence":5},{"trial_n":32,"n_dots":2.95,"target":"left","response":"left","rt":338,"correct":true,"confidence":5},{"trial_n":33,"n_dots":2.95,"target":"left","response":"left","rt":596.60000002384,"correct":true,"confidence":4},{"trial_n":34,"n_dots":2.85,"target":"right","response":"right","rt":369.20000004768,"correct":true,"confidence":5},{"trial_n":35,"n_dots":2.85,"target":"right","response":"right","rt":382.19999992847,"correct":true,"confidence":3},{"trial_n":36,"n_dots":2.75,"target":"right","response":"right","rt":391,"correct":true,"confidence":2},{"trial_n":37,"n_dots":2.75,"target":"left","response":"right","rt":324.60000002384,"correct":false,"confidence":1},{"trial_n":38,"n_dots":2.85,"target":"right","response":"right","rt":321.60000002384,"correct":true,"confidence":6},{"trial_n":39,"n_dots":2.85,"target":"left","response":"right","rt":659.20000004768,"correct":false,"confidence":1},{"trial_n":40,"n_dots":2.95,"target":"left","response":"right","rt":315.60000002384,"correct":false,"confidence":1},{"trial_n":41,"n_dots":3.05,"target":"left","response":"right","rt":285.5,"correct":false,"confidence":3},{"trial_n":42,"n_dots":3.15,"target":"right","response":"right","rt":281,"correct":true,"confidence":2},{"trial_n":43,"n_dots":3.15,"target":"right","response":"right","rt":283.39999997616,"correct":true,"confidence":5},{"trial_n":44,"n_dots":3.05,"target":"right","response":"right","rt":366,"correct":true,"confidence":1},{"trial_n":45,"n_dots":3.05,"target":"right","response":"right","rt":262.29999995232,"correct":true,"confidence":6},{"trial_n":46,"n_dots":2.95,"target":"left","response":"left","rt":317.30000007153,"correct":true,"confidence":1},{"trial_n":47,"n_dots":2.95,"target":"left","response":"right","rt":427.5,"correct":false,"confidence":3},{"trial_n":48,"n_dots":3.05,"target":"right","response":"right","rt":181.60000002384,"correct":true,"confidence":6},{"trial_n":49,"n_dots":3.05,"target":"left","response":"right","rt":121.5,"correct":false,"confidence":4},{"trial_n":50,"n_dots":3.15,"target":"right","response":"right","rt":136.30000007153,"correct":true,"confidence":6},{"trial_n":51,"n_dots":3.15,"target":"left","response":"left","rt":261.60000002384,"correct":true,"confidence":6},{"trial_n":52,"n_dots":3.05,"target":"left","response":"left","rt":254.89999997616,"correct":true,"confidence":6},{"trial_n":53,"n_dots":3.05,"target":"left","response":"right","rt":282.89999997616,"correct":false,"confidence":4},{"trial_n":54,"n_dots":3.15,"target":"left","response":"right","rt":530.60000002384,"correct":false,"confidence":1},{"trial_n":55,"n_dots":3.25,"target":"right","response":"right","rt":652.60000002384,"correct":true,"confidence":3},{"trial_n":56,"n_dots":3.25,"target":"left","response":"left","rt":304.89999997616,"correct":true,"confidence":6},{"trial_n":57,"n_dots":3.15,"target":"right","response":"left","rt":587.29999995232,"correct":false,"confidence":1},{"trial_n":58,"n_dots":3.25,"target":"left","response":"left","rt":470.69999992847,"correct":true,"confidence":6},{"trial_n":59,"n_dots":3.25,"target":"right","response":"right","rt":383.69999992847,"correct":true,"confidence":4},{"trial_n":60,"n_dots":3.15,"target":"left","response":"left","rt":327.20000004768,"correct":true,"confidence":4},{"trial_n":61,"n_dots":3.15,"target":"left","response":"left","rt":301.70000004768,"correct":true,"confidence":5},{"trial_n":62,"n_dots":3.05,"target":"right","response":"right","rt":159.80000007153,"correct":true,"confidence":5},{"trial_n":63,"n_dots":3.05,"target":"left","response":"left","rt":303.29999995232,"correct":true,"confidence":5},{"trial_n":64,"n_dots":2.95,"target":"left","response":"left","rt":698.19999992847,"correct":true,"confidence":1},{"trial_n":65,"n_dots":2.95,"target":"left","response":"left","rt":306.29999995232,"correct":true,"confidence":4},{"trial_n":66,"n_dots":2.85,"target":"right","response":"right","rt":139.39999997616,"correct":true,"confidence":4},{"trial_n":67,"n_dots":2.85,"target":"right","response":"right","rt":171.80000007153,"correct":true,"confidence":2},{"trial_n":68,"n_dots":2.75,"target":"left","response":"left","rt":377.19999992847,"correct":true,"confidence":5},{"trial_n":69,"n_dots":2.75,"target":"right","response":"right","rt":360.10000002384,"correct":true,"confidence":2},{"trial_n":70,"n_dots":2.65,"target":"right","response":"left","rt":625.89999997616,"correct":false,"confidence":4},{"trial_n":71,"n_dots":2.75,"target":"left","response":"left","rt":299.80000007153,"correct":true,"confidence":4},{"trial_n":72,"n_dots":2.75,"target":"left","response":"right","rt":350,"correct":false,"confidence":1},{"trial_n":73,"n_dots":2.85,"target":"right","response":"right","rt":679.89999997616,"correct":true,"confidence":1},{"trial_n":74,"n_dots":2.85,"target":"left","response":"left","rt":168.19999992847,"correct":true,"confidence":5},{"trial_n":75,"n_dots":2.75,"target":"left","response":"left","rt":356.79999995232,"correct":true,"confidence":6},{"trial_n":76,"n_dots":2.75,"target":"left","response":"left","rt":299.29999995232,"correct":true,"confidence":6},{"trial_n":77,"n_dots":2.65,"target":"left","response":"left","rt":95.399999976158,"correct":true,"confidence":6},{"trial_n":78,"n_dots":2.65,"target":"right","response":"right","rt":731.5,"correct":true,"confidence":6},{"trial_n":79,"n_dots":2.55,"target":"left","response":"left","rt":287.79999995232,"correct":true,"confidence":6},{"trial_n":80,"n_dots":2.55,"target":"right","response":"left","rt":765.89999997616,"correct":false,"confidence":1},{"trial_n":81,"n_dots":2.65,"target":"left","response":"left","rt":349.80000007153,"correct":true,"confidence":6},{"trial_n":82,"n_dots":2.65,"target":"right","response":"right","rt":347.10000002384,"correct":true,"confidence":1},{"trial_n":83,"n_dots":2.55,"target":"right","response":"right","rt":950.70000004768,"correct":true,"confidence":1},{"trial_n":84,"n_dots":2.55,"target":"left","response":"left","rt":337.89999997616,"correct":true,"confidence":6},{"trial_n":85,"n_dots":2.45,"target":"left","response":"right","rt":229.70000004768,"correct":false,"confidence":2},{"trial_n":86,"n_dots":2.55,"target":"left","response":"left","rt":288,"correct":true,"confidence":4},{"trial_n":87,"n_dots":2.55,"target":"left","response":"left","rt":297.10000002384,"correct":true,"confidence":4},{"trial_n":88,"n_dots":2.45,"target":"right","response":"left","rt":333.5,"correct":false,"confidence":6},{"trial_n":89,"n_dots":2.55,"target":"left","response":"left","rt":336.69999992847,"correct":true,"confidence":5},{"trial_n":90,"n_dots":2.55,"target":"left","response":"left","rt":1134.1000000238,"correct":true,"confidence":3},{"trial_n":91,"n_dots":2.45,"target":"right","response":"right","rt":317.09999990463,"correct":true,"confidence":3},{"trial_n":92,"n_dots":2.45,"target":"left","response":"left","rt":270.39999997616,"correct":true,"confidence":6},{"trial_n":93,"n_dots":2.35,"target":"left","response":"left","rt":710.60000002384,"correct":true,"confidence":2},{"trial_n":94,"n_dots":2.35,"target":"left","response":"right","rt":419.60000002384,"correct":false,"confidence":3},{"trial_n":95,"n_dots":2.45,"target":"left","response":"left","rt":160.5,"correct":true,"confidence":6},{"trial_n":96,"n_dots":2.45,"target":"left","response":"right","rt":383.10000002384,"correct":false,"confidence":2},{"trial_n":97,"n_dots":2.55,"target":"right","response":"right","rt":473.30000007153,"correct":true,"confidence":4},{"trial_n":98,"n_dots":2.55,"target":"right","response":"right","rt":264.30000007153,"correct":true,"confidence":5},{"trial_n":99,"n_dots":2.45,"target":"right","response":"right","rt":173.20000004768,"correct":true,"confidence":5},{"trial_n":100,"n_dots":2.45,"target":"left","response":"left","rt":418.79999995232,"correct":true,"confidence":6},{"trial_n":101,"n_dots":2.35,"target":"right","response":"left","rt":470,"correct":false,"confidence":4},{"trial_n":102,"n_dots":2.45,"target":"left","response":"left","rt":750,"correct":true,"confidence":1},{"trial_n":103,"n_dots":2.45,"target":"left","response":"right","rt":715.5,"correct":false,"confidence":1},{"trial_n":104,"n_dots":2.55,"target":"right","response":"right","rt":205.5,"correct":true,"confidence":6},{"trial_n":105,"n_dots":2.55,"target":"right","response":"right","rt":1002,"correct":true,"confidence":4},{"trial_n":106,"n_dots":2.45,"target":"left","response":"right","rt":281.30000007153,"correct":false,"confidence":1},{"trial_n":107,"n_dots":2.55,"target":"left","response":"right","rt":548.20000004768,"correct":false,"confidence":1},{"trial_n":108,"n_dots":2.65,"target":"left","response":"left","rt":916.10000002384,"correct":true,"confidence":2},{"trial_n":109,"n_dots":2.65,"target":"right","response":"right","rt":190.19999992847,"correct":true,"confidence":5},{"trial_n":110,"n_dots":2.55,"target":"left","response":"left","rt":393.09999990463,"correct":true,"confidence":5},{"trial_n":111,"n_dots":2.55,"target":"right","response":"right","rt":172.80000007153,"correct":true,"confidence":5},{"trial_n":112,"n_dots":2.45,"target":"right","response":"right","rt":106.20000004768,"correct":true,"confidence":1},{"trial_n":113,"n_dots":2.45,"target":"left","response":"left","rt":647.30000007153,"correct":true,"confidence":5},{"trial_n":114,"n_dots":2.35,"target":"right","response":"left","rt":421.20000004768,"correct":false,"confidence":4},{"trial_n":115,"n_dots":2.45,"target":"left","response":"right","rt":187.79999995232,"correct":false,"confidence":4},{"trial_n":116,"n_dots":2.55,"target":"left","response":"right","rt":559.79999995232,"correct":false,"confidence":1},{"trial_n":117,"n_dots":2.65,"target":"right","response":"left","rt":794.79999995232,"correct":false,"confidence":2},{"trial_n":118,"n_dots":2.75,"target":"right","response":"right","rt":238.90000009537,"correct":true,"confidence":3},{"trial_n":119,"n_dots":2.75,"target":"left","response":"left","rt":573.5,"correct":true,"confidence":1},{"trial_n":120,"n_dots":2.65,"target":"left","response":"left","rt":451,"correct":true,"confidence":3},{"trial_n":121,"n_dots":2.65,"target":"right","response":"left","rt":370,"correct":false,"confidence":4},{"trial_n":122,"n_dots":2.75,"target":"left","response":"left","rt":269,"correct":true,"confidence":5},{"trial_n":123,"n_dots":2.75,"target":"left","response":"left","rt":286.5,"correct":true,"confidence":4},{"trial_n":124,"n_dots":2.65,"target":"right","response":"left","rt":289.39999997616,"correct":false,"confidence":4},{"trial_n":125,"n_dots":2.75,"target":"left","response":"left","rt":273.5,"correct":true,"confidence":4},{"trial_n":126,"n_dots":2.75,"target":"right","response":"left","rt":997.69999992847,"correct":false,"confidence":1},{"trial_n":127,"n_dots":2.85,"target":"left","response":"left","rt":710.70000004768,"correct":true,"confidence":1},{"trial_n":128,"n_dots":2.85,"target":"right","response":"right","rt":967.69999992847,"correct":true,"confidence":1},{"trial_n":129,"n_dots":2.75,"target":"left","response":"left","rt":997,"correct":true,"confidence":1},{"trial_n":130,"n_dots":2.75,"target":"left","response":"left","rt":268.39999997616,"correct":true,"confidence":6},{"trial_n":131,"n_dots":2.65,"target":"right","response":"right","rt":776.29999995232,"correct":true,"confidence":3},{"trial_n":132,"n_dots":2.65,"target":"left","response":"left","rt":206.90000009537,"correct":true,"confidence":6},{"trial_n":133,"n_dots":2.55,"target":"right","response":"left","rt":238.10000002384,"correct":false,"confidence":6},{"trial_n":134,"n_dots":2.65,"target":"left","response":"left","rt":289.89999997616,"correct":true,"confidence":5},{"trial_n":135,"n_dots":2.65,"target":"right","response":"left","rt":375.69999992847,"correct":false,"confidence":4},{"trial_n":136,"n_dots":2.75,"target":"left","response":"left","rt":186.20000004768,"correct":true,"confidence":4},{"trial_n":137,"n_dots":2.75,"target":"right","response":"left","rt":308,"correct":false,"confidence":3},{"trial_n":138,"n_dots":2.85,"target":"left","response":"left","rt":485.30000007153,"correct":true,"confidence":5},{"trial_n":139,"n_dots":2.85,"target":"left","response":"left","rt":290.39999997616,"correct":true,"confidence":4},{"trial_n":140,"n_dots":2.75,"target":"left","response":"left","rt":263.30000007153,"correct":true,"confidence":5},{"trial_n":141,"n_dots":2.75,"target":"left","response":"left","rt":269.29999995232,"correct":true,"confidence":5},{"trial_n":142,"n_dots":2.65,"target":"left","response":"left","rt":208,"correct":true,"confidence":5},{"trial_n":143,"n_dots":2.65,"target":"right","response":"right","rt":274.69999992847,"correct":true,"confidence":3},{"trial_n":144,"n_dots":2.55,"target":"right","response":"left","rt":339.69999992847,"correct":false,"confidence":4},{"trial_n":145,"n_dots":2.65,"target":"right","response":"right","rt":34.100000023842,"correct":true,"confidence":4},{"trial_n":146,"n_dots":2.65,"target":"right","response":"right","rt":857.29999995232,"correct":true,"confidence":1},{"trial_n":147,"n_dots":2.55,"target":"right","response":"left","rt":364.20000004768,"correct":false,"confidence":4},{"trial_n":148,"n_dots":2.65,"target":"right","response":"left","rt":810.60000002384,"correct":false,"confidence":4},{"trial_n":149,"n_dots":2.75,"target":"left","response":"right","rt":2146.1000000238,"correct":false,"confidence":3},{"trial_n":150,"n_dots":2.85,"target":"left","response":"right","rt":1160.1999999285,"correct":false,"confidence":6},{"trial_n":151,"n_dots":2.95,"target":"right","response":"right","rt":343.19999992847,"correct":true,"confidence":5},{"trial_n":152,"n_dots":2.95,"target":"right","response":"left","rt":381.70000004768,"correct":false,"confidence":4},{"trial_n":153,"n_dots":3.05,"target":"right","response":"left","rt":326.10000002384,"correct":false,"confidence":4},{"trial_n":154,"n_dots":3.15,"target":"right","response":"right","rt":142.70000004768,"correct":true,"confidence":4},{"trial_n":155,"n_dots":3.15,"target":"right","response":"right","rt":713.60000002384,"correct":true,"confidence":1},{"trial_n":156,"n_dots":3.05,"target":"right","response":"right","rt":242.60000002384,"correct":true,"confidence":6},{"trial_n":157,"n_dots":3.05,"target":"left","response":"left","rt":326.20000004768,"correct":true,"confidence":5},{"trial_n":158,"n_dots":2.95,"target":"right","response":"right","rt":253,"correct":true,"confidence":6},{"trial_n":159,"n_dots":2.95,"target":"right","response":"right","rt":184.39999997616,"correct":true,"confidence":6},{"trial_n":160,"n_dots":2.85,"target":"right","response":"left","rt":354.39999997616,"correct":false,"confidence":6},{"trial_n":161,"n_dots":2.95,"target":"right","response":"left","rt":283,"correct":false,"confidence":6},{"trial_n":162,"n_dots":3.05,"target":"right","response":"right","rt":120.29999995232,"correct":true,"confidence":6},{"trial_n":163,"n_dots":3.05,"target":"right","response":"right","rt":119.69999992847,"correct":true,"confidence":6},{"trial_n":164,"n_dots":2.95,"target":"right","response":"right","rt":440.60000002384,"correct":true,"confidence":6},{"trial_n":165,"n_dots":2.95,"target":"right","response":"left","rt":314.10000002384,"correct":false,"confidence":4},{"trial_n":166,"n_dots":3.05,"target":"right","response":"right","rt":93.099999904633,"correct":true,"confidence":6},{"trial_n":167,"n_dots":3.05,"target":"left","response":"left","rt":570.79999995232,"correct":true,"confidence":2},{"trial_n":168,"n_dots":2.95,"target":"left","response":"left","rt":467.5,"correct":true,"confidence":6},{"trial_n":169,"n_dots":2.95,"target":"left","response":"left","rt":476.89999997616,"correct":true,"confidence":4},{"trial_n":170,"n_dots":2.85,"target":"right","response":"left","rt":278.60000002384,"correct":false,"confidence":4},{"trial_n":171,"n_dots":2.95,"target":"right","response":"right","rt":136.40000009537,"correct":true,"confidence":4},{"trial_n":172,"n_dots":2.95,"target":"right","response":"right","rt":252.10000002384,"correct":true,"confidence":2},{"trial_n":173,"n_dots":2.85,"target":"left","response":"right","rt":292.10000002384,"correct":false,"confidence":4},{"trial_n":174,"n_dots":2.95,"target":"left","response":"right","rt":1246.2000000477,"correct":false,"confidence":4},{"trial_n":175,"n_dots":3.05,"target":"right","response":"right","rt":956.80000007153,"correct":true,"confidence":4},{"trial_n":176,"n_dots":3.05,"target":"right","response":"right","rt":1066.1999999285,"correct":true,"confidence":2},{"trial_n":177,"n_dots":2.95,"target":"left","response":"left","rt":1256.1999999285,"correct":true,"confidence":4},{"trial_n":178,"n_dots":2.95,"target":"right","response":"left","rt":1011.7000000477,"correct":false,"confidence":3},{"trial_n":179,"n_dots":3.05,"target":"right","response":"left","rt":2162.3000000715,"correct":false,"confidence":2},{"trial_n":180,"n_dots":3.15,"target":"right","response":"right","rt":1900.2999999523,"correct":true,"confidence":2},{"trial_n":181,"n_dots":3.15,"target":"left","response":"left","rt":2041.3999999762,"correct":true,"confidence":1},{"trial_n":182,"n_dots":3.05,"target":"right","response":"right","rt":954.89999997616,"correct":true,"confidence":3},{"trial_n":183,"n_dots":3.05,"target":"right","response":"left","rt":438.80000007153,"correct":false,"confidence":1},{"trial_n":184,"n_dots":3.15,"target":"right","response":"right","rt":131.5,"correct":true,"confidence":3},{"trial_n":185,"n_dots":3.15,"target":"right","response":"right","rt":144.19999992847,"correct":true,"confidence":6},{"trial_n":186,"n_dots":3.05,"target":"left","response":"left","rt":266.10000002384,"correct":true,"confidence":6},{"trial_n":187,"n_dots":3.05,"target":"right","response":"right","rt":473.60000002384,"correct":true,"confidence":6},{"trial_n":188,"n_dots":2.95,"target":"left","response":"right","rt":783.80000007153,"correct":false,"confidence":1},{"trial_n":189,"n_dots":3.05,"target":"right","response":"left","rt":399.39999997616,"correct":false,"confidence":3},{"trial_n":190,"n_dots":3.15,"target":"left","response":"left","rt":403.69999992847,"correct":true,"confidence":3},{"trial_n":191,"n_dots":3.15,"target":"right","response":"right","rt":120.39999997616,"correct":true,"confidence":2},{"trial_n":192,"n_dots":3.05,"target":"left","response":"right","rt":393.80000007153,"correct":false,"confidence":3},{"trial_n":193,"n_dots":3.15,"target":"left","response":"right","rt":398.39999997616,"correct":false,"confidence":2},{"trial_n":194,"n_dots":3.25,"target":"left","response":"right","rt":280.89999997616,"correct":false,"confidence":1}]