[{"trial_n":1,"n_dots":4.25,"target":"right","response":"right","rt":6201.3000000119,"correct":true,"confidence":-1},{"trial_n":2,"n_dots":4.25,"target":"left","response":"left","rt":727.59999996424,"correct":true,"confidence":-1},{"trial_n":3,"n_dots":3.85,"target":"left","response":"left","rt":696.30000001192,"correct":true,"confidence":-1},{"trial_n":4,"n_dots":3.85,"target":"right","response":"right","rt":425.30000001192,"correct":true,"confidence":-1},{"trial_n":5,"n_dots":3.45,"target":"right","response":"right","rt":504.5,"correct":true,"confidence":-1},{"trial_n":6,"n_dots":3.45,"target":"right","response":"left","rt":450.69999998808,"correct":false,"confidence":-1},{"trial_n":7,"n_dots":3.85,"target":"right","response":"right","rt":657,"correct":true,"confidence":-1},{"trial_n":8,"n_dots":3.85,"target":"right","response":"right","rt":653.40000003576,"correct":true,"confidence":-1},{"trial_n":9,"n_dots":3.65,"target":"left","response":"left","rt":539.69999998808,"correct":true,"confidence":-1},{"trial_n":10,"n_dots":3.65,"target":"right","response":"left","rt":1276,"correct":false,"confidence":-1},{"trial_n":11,"n_dots":3.85,"target":"right","response":"right","rt":516.30000001192,"correct":true,"confidence":-1},{"trial_n":12,"n_dots":3.85,"target":"left","response":"left","rt":414.5,"correct":true,"confidence":-1},{"trial_n":13,"n_dots":3.75,"target":"right","response":"right","rt":370.80000001192,"correct":true,"confidence":-1},{"trial_n":14,"n_dots":3.75,"target":"right","response":"right","rt":138.10000002384,"correct":true,"confidence":-1},{"trial_n":15,"n_dots":3.65,"target":"left","response":"left","rt":692.39999997616,"correct":true,"confidence":-1},{"trial_n":16,"n_dots":3.65,"target":"right","response":"right","rt":421.59999996424,"correct":true,"confidence":-1},{"trial_n":17,"n_dots":3.55,"target":"left","response":"left","rt":1139.3000000119,"correct":true,"confidence":-1},{"trial_n":18,"n_dots":3.55,"target":"left","response":"left","rt":471.40000003576,"correct":true,"confidence":-1},{"trial_n":19,"n_dots":3.45,"target":"left","response":"right","rt":541.5,"correct":false,"confidence":-1},{"trial_n":20,"n_dots":3.55,"target":"left","response":"left","rt":340.90000003576,"correct":true,"confidence":-1},{"trial_n":21,"n_dots":3.55,"target":"right","response":"right","rt":300.30000001192,"correct":true,"confidence":-1},{"trial_n":22,"n_dots":3.45,"target":"right","response":"right","rt":509.80000001192,"correct":true,"confidence":-1},{"trial_n":23,"n_dots":3.45,"target":"right","response":"right","rt":423.39999997616,"correct":true,"confidence":-1},{"trial_n":24,"n_dots":3.35,"target":"left","response":"left","rt":667.40000003576,"correct":true,"confidence":-1},{"trial_n":25,"n_dots":3.35,"target":"left","response":"right","rt":281.30000001192,"correct":false,"confidence":-1},{"trial_n":26,"n_dots":3.45,"target":"left","response":"right","rt":406.5,"correct":false,"confidence":-1},{"trial_n":27,"n_dots":3.55,"target":"right","response":"right","rt":690.5,"correct":true,"confidence":5},{"trial_n":28,"n_dots":3.55,"target":"right","response":"right","rt":826,"correct":true,"confidence":6},{"trial_n":29,"n_dots":3.45,"target":"right","response":"left","rt":979.39999997616,"correct":false,"confidence":4},{"trial_n":30,"n_dots":3.55,"target":"right","response":"right","rt":387,"correct":true,"confidence":6},{"trial_n":31,"n_dots":3.55,"target":"right","response":"right","rt":1058.5,"correct":true,"confidence":4},{"trial_n":32,"n_dots":3.45,"target":"right","response":"right","rt":619.90000003576,"correct":true,"confidence":5},{"trial_n":33,"n_dots":3.45,"target":"right","response":"left","rt":1070.3999999762,"correct":false,"confidence":3},{"trial_n":34,"n_dots":3.55,"target":"right","response":"right","rt":864.30000001192,"correct":true,"confidence":4},{"trial_n":35,"n_dots":3.55,"target":"right","response":"left","rt":1073.4000000358,"correct":false,"confidence":4},{"trial_n":36,"n_dots":3.65,"target":"right","response":"left","rt":566.80000001192,"correct":false,"confidence":4},{"trial_n":37,"n_dots":3.75,"target":"right","response":"right","rt":865.19999998808,"correct":true,"confidence":5},{"trial_n":38,"n_dots":3.75,"target":"left","response":"left","rt":808.29999995232,"correct":true,"confidence":6},{"trial_n":39,"n_dots":3.65,"target":"left","response":"left","rt":479.29999995232,"correct":true,"confidence":6},{"trial_n":40,"n_dots":3.65,"target":"right","response":"right","rt":1134.6000000238,"correct":true,"confidence":6},{"trial_n":41,"n_dots":3.55,"target":"left","response":"left","rt":882.10000002384,"correct":true,"confidence":6},{"trial_n":42,"n_dots":3.55,"target":"left","response":"left","rt":398.5,"correct":true,"confidence":4},{"trial_n":43,"n_dots":3.45,"target":"right","response":"right","rt":861.90000003576,"correct":true,"confidence":6},{"trial_n":44,"n_dots":3.45,"target":"left","response":"left","rt":788.30000001192,"correct":true,"confidence":6},{"trial_n":45,"n_dots":3.35,"target":"left","response":"left","rt":468.59999996424,"correct":true,"confidence":4},{"trial_n":46,"n_dots":3.35,"target":"left","response":"left","rt":394.10000002384,"correct":true,"confidence":5},{"trial_n":47,"n_dots":3.25,"target":"right","response":"right","rt":1568.6000000238,"correct":true,"confidence":3},{"trial_n":48,"n_dots":3.25,"target":"left","response":"left","rt":654.10000002384,"correct":true,"confidence":6},{"trial_n":49,"n_dots":3.15,"target":"left","response":"left","rt":1702.4000000358,"correct":true,"confidence":3},{"trial_n":50,"n_dots":3.15,"target":"left","response":"left","rt":378,"correct":true,"confidence":5},{"trial_n":51,"n_dots":3.05,"target":"right","response":"right","rt":609.40000003576,"correct":true,"confidence":4},{"trial_n":52,"n_dots":3.05,"target":"left","response":"left","rt":724.69999998808,"correct":true,"confidence":4},{"trial_n":53,"n_dots":2.95,"target":"left","response":"left","rt":504.19999998808,"correct":true,"confidence":4},{"trial_n":54,"n_dots":2.95,"target":"right","response":"right","rt":423.39999997616,"correct":true,"confidence":5},{"trial_n":55,"n_dots":2.85,"target":"right","response":"right","rt":434.80000001192,"correct":true,"confidence":6},{"trial_n":56,"n_dots":2.85,"target":"left","response":"left","rt":618.69999998808,"correct":true,"confidence":5},{"trial_n":57,"n_dots":2.75,"target":"right","response":"left","rt":420.19999998808,"correct":false,"confidence":3},{"trial_n":58,"n_dots":2.85,"target":"right","response":"right","rt":661.5,"correct":true,"confidence":4},{"trial_n":59,"n_dots":2.85,"target":"left","response":"left","rt":1303,"correct":true,"confidence":3},{"trial_n":60,"n_dots":2.75,"target":"right","response":"right","rt":594.19999998808,"correct":true,"confidence":4},{"trial_n":61,"n_dots":2.75,"target":"right","response":"left","rt":587.90000003576,"correct":false,"confidence":5},{"trial_n":62,"n_dots":2.85,"target":"left","response":"right","rt":895.40000003576,"correct":false,"confidence":2},{"trial_n":63,"n_dots":2.95,"target":"left","response":"left","rt":386.80000001192,"correct":true,"confidence":4},{"trial_n":64,"n_dots":2.95,"target":"right","response":"right","rt":458.19999998808,"correct":true,"confidence":4},{"trial_n":65,"n_dots":2.85,"target":"left","response":"left","rt":508.60000002384,"correct":true,"confidence":4},{"trial_n":66,"n_dots":2.85,"target":"left","response":"left","rt":525,"correct":true,"confidence":5},{"trial_n":67,"n_dots":2.75,"target":"left","response":"left","rt":632.30000001192,"correct":true,"confidence":5},{"trial_n":68,"n_dots":2.75,"target":"left","response":"right","rt":684.80000001192,"correct":false,"confidence":4},{"trial_n":69,"n_dots":2.85,"target":"right","response":"left","rt":4147.5,"correct":false,"confidence":3},{"trial_n":70,"n_dots":2.95,"target":"left","response":"left","rt":560.10000002384,"correct":true,"confidence":4},{"trial_n":71,"n_dots":2.95,"target":"left","response":"left","rt":528.59999996424,"correct":true,"confidence":5},{"trial_n":72,"n_dots":2.85,"target":"right","response":"right","rt":429.19999998808,"correct":true,"confidence":6},{"trial_n":73,"n_dots":2.85,"target":"right","response":"right","rt":316.30000001192,"correct":true,"confidence":6},{"trial_n":74,"n_dots":2.75,"target":"left","response":"left","rt":443.60000002384,"correct":true,"confidence":5},{"trial_n":75,"n_dots":2.75,"target":"right","response":"right","rt":607.89999997616,"correct":true,"confidence":4},{"trial_n":76,"n_dots":2.65,"target":"left","response":"left","rt":416.40000003576,"correct":true,"confidence":4},{"trial_n":77,"n_dots":2.65,"target":"left","response":"left","rt":635.80000001192,"correct":true,"confidence":2},{"trial_n":78,"n_dots":2.55,"target":"left","response":"left","rt":459.19999998808,"correct":true,"confidence":4},{"trial_n":79,"n_dots":2.55,"target":"left","response":"left","rt":380.5,"correct":true,"confidence":5},{"trial_n":80,"n_dots":2.45,"target":"left","response":"left","rt":367.10000002384,"correct":true,"confidence":6},{"trial_n":81,"n_dots":2.45,"target":"right","response":"left","rt":687.30000001192,"correct":false,"confidence":4},{"trial_n":82,"n_dots":2.55,"target":"right","response":"right","rt":530.60000002384,"correct":true,"confidence":5},{"trial_n":83,"n_dots":2.55,"target":"right","response":"right","rt":62.200000047684,"correct":true,"confidence":6},{"trial_n":84,"n_dots":2.45,"target":"left","response":"right","rt":725.40000003576,"correct":false,"confidence":3},{"trial_n":85,"n_dots":2.55,"target":"right","response":"left","rt":689.19999998808,"correct":false,"confidence":3},{"trial_n":86,"n_dots":2.65,"target":"left","response":"right","rt":660.19999998808,"correct":false,"confidence":3},{"trial_n":87,"n_dots":2.75,"target":"right","response":"left","rt":469.60000002384,"correct":false,"confidence":3},{"trial_n":88,"n_dots":2.85,"target":"left","response":"left","rt":606.69999998808,"correct":true,"confidence":2},{"trial_n":89,"n_dots":2.85,"target":"left","response":"right","rt":336.09999996424,"correct":false,"confidence":5},{"trial_n":90,"n_dots":2.95,"target":"left","response":"right","rt":543.5,"correct":false,"confidence":6},{"trial_n":91,"n_dots":3.05,"target":"right","response":"right","rt":539,"correct":true,"confidence":4},{"trial_n":92,"n_dots":3.05,"target":"left","response":"left","rt":506.19999998808,"correct":true,"confidence":3},{"trial_n":93,"n_dots":2.95,"target":"left","response":"right","rt":4280.3000000119,"correct":false,"confidence":1},{"trial_n":94,"n_dots":3.05,"target":"left","response":"left","rt":524.19999998808,"correct":true,"confidence":5},{"trial_n":95,"n_dots":3.05,"target":"right","response":"right","rt":1194.1000000238,"correct":true,"confidence":3},{"trial_n":96,"n_dots":2.95,"target":"right","response":"left","rt":785.60000002384,"correct":false,"confidence":3},{"trial_n":97,"n_dots":3.05,"target":"right","response":"right","rt":1372.9000000358,"correct":true,"confidence":4},{"trial_n":98,"n_dots":3.05,"target":"left","response":"right","rt":804.5,"correct":false,"confidence":4},{"trial_n":99,"n_dots":3.15,"target":"right","response":"right","rt":411.80000001192,"correct":true,"confidence":5},{"trial_n":100,"n_dots":3.15,"target":"right","response":"right","rt":1006.3999999762,"correct":true,"confidence":5},{"trial_n":101,"n_dots":3.05,"target":"right","response":"right","rt":685.29999995232,"correct":true,"confidence":5},{"trial_n":102,"n_dots":3.05,"target":"left","response":"left","rt":450.10000002384,"correct":true,"confidence":5},{"trial_n":103,"n_dots":2.95,"target":"right","response":"right","rt":332.40000003576,"correct":true,"confidence":5},{"trial_n":104,"n_dots":2.95,"target":"left","response":"left","rt":535.30000001192,"correct":true,"confidence":5},{"trial_n":105,"n_dots":2.85,"target":"right","response":"right","rt":489.19999998808,"correct":true,"confidence":5},{"trial_n":106,"n_dots":2.85,"target":"right","response":"right","rt":306.60000002384,"correct":true,"confidence":5},{"trial_n":107,"n_dots":2.75,"target":"left","response":"left","rt":335.30000001192,"correct":true,"confidence":6},{"trial_n":108,"n_dots":2.75,"target":"right","response":"right","rt":389.30000001192,"correct":true,"confidence":6},{"trial_n":109,"n_dots":2.65,"target":"right","response":"right","rt":596.69999998808,"correct":true,"confidence":3},{"trial_n":110,"n_dots":2.65,"target":"right","response":"right","rt":472.30000001192,"correct":true,"confidence":2},{"trial_n":111,"n_dots":2.55,"target":"left","response":"right","rt":2159.6999999881,"correct":false,"confidence":3},{"trial_n":112,"n_dots":2.65,"target":"left","response":"right","rt":575.19999998808,"correct":false,"confidence":4},{"trial_n":113,"n_dots":2.75,"target":"left","response":"right","rt":778.59999996424,"correct":false,"confidence":3},{"trial_n":114,"n_dots":2.85,"target":"right","response":"left","rt":858.39999997616,"correct":false,"confidence":3},{"trial_n":115,"n_dots":2.95,"target":"left","response":"right","rt":644.40000003576,"correct":false,"confidence":2},{"trial_n":116,"n_dots":3.05,"target":"left","response":"left","rt":454.80000001192,"correct":true,"confidence":4},{"trial_n":117,"n_dots":3.05,"target":"right","response":"left","rt":1132.0999999642,"correct":false,"confidence":1},{"trial_n":118,"n_dots":3.15,"target":"left","response":"left","rt":1296.5999999642,"correct":true,"confidence":3},{"trial_n":119,"n_dots":3.15,"target":"left","response":"left","rt":384.19999998808,"correct":true,"confidence":4},{"trial_n":120,"n_dots":3.05,"target":"left","response":"left","rt":881.40000003576,"correct":true,"confidence":4},{"trial_n":121,"n_dots":3.05,"target":"right","response":"right","rt":307.30000001192,"correct":true,"confidence":4},{"trial_n":122,"n_dots":2.95,"target":"right","response":"right","rt":697.40000003576,"correct":true,"confidence":4},{"trial_n":123,"n_dots":2.95,"target":"left","response":"left","rt":516.60000002384,"correct":true,"confidence":5},{"trial_n":124,"n_dots":2.85,"target":"right","response":"right","rt":442,"correct":true,"confidence":6},{"trial_n":125,"n_dots":2.85,"target":"left","response":"left","rt":650.39999997616,"correct":true,"confidence":4},{"trial_n":126,"n_dots":2.75,"target":"right","response":"right","rt":451.80000001192,"correct":true,"confidence":4},{"trial_n":127,"n_dots":2.75,"target":"right","response":"right","rt":643.29999995232,"correct":true,"confidence":6},{"trial_n":128,"n_dots":2.65,"target":"right","response":"right","rt":447.5,"correct":true,"confidence":4},{"trial_n":129,"n_dots":2.65,"target":"right","response":"right","rt":824.10000002384,"correct":true,"confidence":3},{"trial_n":130,"n_dots":2.55,"target":"left","response":"left","rt":328.30000001192,"correct":true,"confidence":5},{"trial_n":131,"n_dots":2.55,"target":"left","response":"left","rt":517.5,"correct":true,"confidence":4},{"trial_n":132,"n_dots":2.45,"target":"right","response":"left","rt":1462.1000000238,"correct":false,"confidence":1},{"trial_n":133,"n_dots":2.55,"target":"left","response":"left","rt":696.39999997616,"correct":true,"confidence":3},{"trial_n":134,"n_dots":2.55,"target":"right","response":"left","rt":900.90000003576,"correct":false,"confidence":4},{"trial_n":135,"n_dots":2.65,"target":"right","response":"right","rt":1044.3000000119,"correct":true,"confidence":4},{"trial_n":136,"n_dots":2.65,"target":"right","response":"right","rt":762.69999998808,"correct":true,"confidence":3},{"trial_n":137,"n_dots":2.55,"target":"right","response":"left","rt":494,"correct":false,"confidence":5},{"trial_n":138,"n_dots":2.65,"target":"left","response":"left","rt":487.20000004768,"correct":true,"confidence":4},{"trial_n":139,"n_dots":2.65,"target":"left","response":"right","rt":1381.9000000358,"correct":false,"confidence":3},{"trial_n":140,"n_dots":2.75,"target":"left","response":"left","rt":494.30000001192,"correct":true,"confidence":5},{"trial_n":141,"n_dots":2.75,"target":"left","response":"right","rt":593.60000002384,"correct":false,"confidence":3},{"trial_n":142,"n_dots":2.85,"target":"left","response":"left","rt":602,"correct":true,"confidence":4},{"trial_n":143,"n_dots":2.85,"target":"right","response":"right","rt":541.40000003576,"correct":true,"confidence":5},{"trial_n":144,"n_dots":2.75,"target":"right","response":"left","rt":987.90000003576,"correct":false,"confidence":3},{"trial_n":145,"n_dots":2.85,"target":"right","response":"right","rt":570.30000001192,"correct":true,"confidence":4},{"trial_n":146,"n_dots":2.85,"target":"left","response":"left","rt":453.60000002384,"correct":true,"confidence":3},{"trial_n":147,"n_dots":2.75,"target":"left","response":"right","rt":385.89999997616,"correct":false,"confidence":4},{"trial_n":148,"n_dots":2.85,"target":"right","response":"right","rt":370.10000002384,"correct":true,"confidence":4},{"trial_n":149,"n_dots":2.85,"target":"right","response":"right","rt":378.69999998808,"correct":true,"confidence":5},{"trial_n":150,"n_dots":2.75,"target":"left","response":"left","rt":463.90000003576,"correct":true,"confidence":4},{"trial_n":151,"n_dots":2.75,"target":"right","response":"left","rt":494.30000001192,"correct":false,"confidence":4},{"trial_n":152,"n_dots":2.85,"target":"left","response":"right","rt":569.80000001192,"correct":false,"confidence":4},{"trial_n":153,"n_dots":2.95,"target":"left","response":"left","rt":728.10000002384,"correct":true,"confidence":3},{"trial_n":154,"n_dots":2.95,"target":"left","response":"right","rt":589.09999996424,"correct":false,"confidence":5},{"trial_n":155,"n_dots":3.05,"target":"right","response":"right","rt":492,"correct":true,"confidence":4},{"trial_n":156,"n_dots":3.05,"target":"right","response":"left","rt":667.09999996424,"correct":false,"confidence":3},{"trial_n":157,"n_dots":3.15,"target":"left","response":"left","rt":431.60000002384,"correct":true,"confidence":3},{"trial_n":158,"n_dots":3.15,"target":"left","response":"left","rt":384,"correct":true,"confidence":4},{"trial_n":159,"n_dots":3.05,"target":"left","response":"right","rt":333.19999998808,"correct":false,"confidence":5},{"trial_n":160,"n_dots":3.15,"target":"right","response":"right","rt":1802.3999999762,"correct":true,"confidence":4},{"trial_n":161,"n_dots":3.15,"target":"right","response":"right","rt":1008.1999999881,"correct":true,"confidence":4},{"trial_n":162,"n_dots":3.05,"target":"right","response":"left","rt":394.69999998808,"correct":false,"confidence":5},{"trial_n":163,"n_dots":3.15,"target":"right","response":"right","rt":574.80000001192,"correct":true,"confidence":3},{"trial_n":164,"n_dots":3.15,"target":"right","response":"right","rt":694.20000004768,"correct":true,"confidence":4},{"trial_n":165,"n_dots":3.05,"target":"left","response":"left","rt":1961.8000000119,"correct":true,"confidence":2},{"trial_n":166,"n_dots":3.05,"target":"right","response":"right","rt":682.5,"correct":true,"confidence":5},{"trial_n":167,"n_dots":2.95,"target":"right","response":"left","rt":1917.9000000358,"correct":false,"confidence":3},{"trial_n":168,"n_dots":3.05,"target":"left","response":"right","rt":634.30000001192,"correct":false,"confidence":3},{"trial_n":169,"n_dots":3.15,"target":"right","response":"left","rt":610.5,"correct":false,"confidence":3},{"trial_n":170,"n_dots":3.25,"target":"right","response":"right","rt":303.59999996424,"correct":true,"confidence":5},{"trial_n":171,"n_dots":3.25,"target":"left","response":"right","rt":1576.4000000358,"correct":false,"confidence":3},{"trial_n":172,"n_dots":3.35,"target":"right","response":"right","rt":348.80000001192,"correct":true,"confidence":5},{"trial_n":173,"n_dots":3.35,"target":"left","response":"left","rt":457.09999996424,"correct":true,"confidence":4},{"trial_n":174,"n_dots":3.25,"target":"right","response":"left","rt":703.39999997616,"correct":false,"confidence":4},{"trial_n":175,"n_dots":3.35,"target":"left","response":"left","rt":553.89999997616,"correct":true,"confidence":5},{"trial_n":176,"n_dots":3.35,"target":"left","response":"left","rt":606.40000003576,"correct":true,"confidence":4},{"trial_n":177,"n_dots":3.25,"target":"left","response":"right","rt":328.69999998808,"correct":false,"confidence":5},{"trial_n":178,"n_dots":3.35,"target":"right","response":"right","rt":781.10000002384,"correct":true,"confidence":4},{"trial_n":179,"n_dots":3.35,"target":"right","response":"left","rt":1115,"correct":false,"confidence":3},{"trial_n":180,"n_dots":3.45,"target":"right","response":"left","rt":807.90000003576,"correct":false,"confidence":3},{"trial_n":181,"n_dots":3.55,"target":"right","response":"right","rt":392.19999998808,"correct":true,"confidence":4},{"trial_n":182,"n_dots":3.55,"target":"left","response":"left","rt":397.60000002384,"correct":true,"confidence":4},{"trial_n":183,"n_dots":3.45,"target":"left","response":"left","rt":3135.5,"correct":true,"confidence":4},{"trial_n":184,"n_dots":3.45,"target":"right","response":"right","rt":636.79999995232,"correct":true,"confidence":5},{"trial_n":185,"n_dots":3.35,"target":"left","response":"left","rt":2149.1999999881,"correct":true,"confidence":3},{"trial_n":186,"n_dots":3.35,"target":"left","response":"right","rt":403.60000002384,"correct":false,"confidence":3},{"trial_n":187,"n_dots":3.45,"target":"left","response":"left","rt":836.10000002384,"correct":true,"confidence":3},{"trial_n":188,"n_dots":3.45,"target":"left","response":"right","rt":1160.3999999762,"correct":false,"confidence":4},{"trial_n":189,"n_dots":3.55,"target":"left","response":"left","rt":651.90000003576,"correct":true,"confidence":4},{"trial_n":190,"n_dots":3.55,"target":"left","response":"right","rt":1363.3000000119,"correct":false,"confidence":4},{"trial_n":191,"n_dots":3.65,"target":"left","response":"left","rt":656.60000002384,"correct":true,"confidence":4},{"trial_n":192,"n_dots":3.65,"target":"left","response":"left","rt":835,"correct":true,"confidence":4},{"trial_n":193,"n_dots":3.55,"target":"right","response":"right","rt":277.30000001192,"correct":true,"confidence":4},{"trial_n":194,"n_dots":3.55,"target":"left","response":"left","rt":524.80000001192,"correct":true,"confidence":4}]