[{"trial_n":1,"n_dots":4.25,"target":"left","response":"left","rt":1500,"correct":true,"confidence":-1},{"trial_n":2,"n_dots":4.25,"target":"right","response":"right","rt":448.99999999999,"correct":true,"confidence":-1},{"trial_n":3,"n_dots":3.85,"target":"right","response":"right","rt":347,"correct":true,"confidence":-1},{"trial_n":4,"n_dots":3.85,"target":"left","response":"left","rt":315,"correct":true,"confidence":-1},{"trial_n":5,"n_dots":3.45,"target":"left","response":"left","rt":323,"correct":true,"confidence":-1},{"trial_n":6,"n_dots":3.45,"target":"right","response":"left","rt":310,"correct":false,"confidence":-1},{"trial_n":7,"n_dots":3.85,"target":"right","response":"right","rt":473,"correct":true,"confidence":-1},{"trial_n":8,"n_dots":3.85,"target":"right","response":"left","rt":422,"correct":false,"confidence":-1},{"trial_n":9,"n_dots":4.05,"target":"right","response":"right","rt":356,"correct":true,"confidence":-1},{"trial_n":10,"n_dots":4.05,"target":"left","response":"left","rt":321,"correct":true,"confidence":-1},{"trial_n":11,"n_dots":3.85,"target":"left","response":"left","rt":314,"correct":true,"confidence":-1},{"trial_n":12,"n_dots":3.85,"target":"left","response":"left","rt":258,"correct":true,"confidence":-1},{"trial_n":13,"n_dots":3.75,"target":"right","response":"left","rt":465,"correct":false,"confidence":-1},{"trial_n":14,"n_dots":3.85,"target":"left","response":"left","rt":313,"correct":true,"confidence":-1},{"trial_n":15,"n_dots":3.85,"target":"left","response":"left","rt":496.00000000001,"correct":true,"confidence":-1},{"trial_n":16,"n_dots":3.75,"target":"left","response":"left","rt":338,"correct":true,"confidence":-1},{"trial_n":17,"n_dots":3.75,"target":"right","response":"right","rt":372,"correct":true,"confidence":-1},{"trial_n":18,"n_dots":3.65,"target":"right","response":"right","rt":356,"correct":true,"confidence":-1},{"trial_n":19,"n_dots":3.65,"target":"left","response":"left","rt":305,"correct":true,"confidence":-1},{"trial_n":20,"n_dots":3.55,"target":"right","response":"right","rt":223,"correct":true,"confidence":-1},{"trial_n":21,"n_dots":3.55,"target":"left","response":"left","rt":339,"correct":true,"confidence":-1},{"trial_n":22,"n_dots":3.45,"target":"right","response":"right","rt":573,"correct":true,"confidence":-1},{"trial_n":23,"n_dots":3.45,"target":"right","response":"right","rt":382.99999999999,"correct":true,"confidence":-1},{"trial_n":24,"n_dots":3.35,"target":"left","response":"left","rt":422.99999999999,"correct":true,"confidence":-1},{"trial_n":25,"n_dots":3.35,"target":"right","response":"right","rt":436.99999999999,"correct":true,"confidence":-1},{"trial_n":26,"n_dots":3.25,"target":"left","response":"left","rt":339,"correct":true,"confidence":-1},{"trial_n":27,"n_dots":3.25,"target":"right","response":"right","rt":2102,"correct":true,"confidence":4},{"trial_n":28,"n_dots":3.15,"target":"right","response":"left","rt":545.00000000003,"correct":false,"confidence":5},{"trial_n":29,"n_dots":3.25,"target":"right","response":"right","rt":985,"correct":true,"confidence":4},{"trial_n":30,"n_dots":3.25,"target":"right","response":"left","rt":709,"correct":false,"confidence":3},{"trial_n":31,"n_dots":3.35,"target":"right","response":"right","rt":430,"correct":true,"confidence":4},{"trial_n":32,"n_dots":3.35,"target":"left","response":"left","rt":422,"correct":true,"confidence":6},{"trial_n":33,"n_dots":3.25,"target":"right","response":"right","rt":1267,"correct":true,"confidence":3},{"trial_n":34,"n_dots":3.25,"target":"right","response":"right","rt":344,"correct":true,"confidence":6},{"trial_n":35,"n_dots":3.15,"target":"right","response":"right","rt":501,"correct":true,"confidence":5},{"trial_n":36,"n_dots":3.15,"target":"left","response":"left","rt":434,"correct":true,"confidence":6},{"trial_n":37,"n_dots":3.05,"target":"right","response":"right","rt":307,"correct":true,"confidence":5},{"trial_n":38,"n_dots":3.05,"target":"right","response":"right","rt":471.00000000003,"correct":true,"confidence":4},{"trial_n":39,"n_dots":2.95,"target":"left","response":"left","rt":405.99999999997,"correct":true,"confidence":6},{"trial_n":40,"n_dots":2.95,"target":"right","response":"right","rt":477,"correct":true,"confidence":4},{"trial_n":41,"n_dots":2.85,"target":"left","response":"left","rt":399,"correct":true,"confidence":6},{"trial_n":42,"n_dots":2.85,"target":"right","response":"left","rt":537,"correct":false,"confidence":4},{"trial_n":43,"n_dots":2.95,"target":"right","response":"left","rt":592,"correct":false,"confidence":5},{"trial_n":44,"n_dots":3.05,"target":"left","response":"left","rt":490,"correct":true,"confidence":6},{"trial_n":45,"n_dots":3.05,"target":"right","response":"left","rt":841.00000000003,"correct":false,"confidence":4},{"trial_n":46,"n_dots":3.15,"target":"right","response":"left","rt":769,"correct":false,"confidence":4},{"trial_n":47,"n_dots":3.25,"target":"left","response":"left","rt":472,"correct":true,"confidence":6},{"trial_n":48,"n_dots":3.25,"target":"left","response":"left","rt":422,"correct":true,"confidence":6},{"trial_n":49,"n_dots":3.15,"target":"left","response":"right","rt":577.99999999997,"correct":false,"confidence":4},{"trial_n":50,"n_dots":3.25,"target":"left","response":"left","rt":352,"correct":true,"confidence":5},{"trial_n":51,"n_dots":3.25,"target":"left","response":"left","rt":405,"correct":true,"confidence":5},{"trial_n":52,"n_dots":3.15,"target":"left","response":"left","rt":644,"correct":true,"confidence":5},{"trial_n":53,"n_dots":3.15,"target":"right","response":"right","rt":544,"correct":true,"confidence":3},{"trial_n":54,"n_dots":3.05,"target":"left","response":"left","rt":1289,"correct":true,"confidence":5},{"trial_n":55,"n_dots":3.05,"target":"right","response":"right","rt":1032,"correct":true,"confidence":5},{"trial_n":56,"n_dots":2.95,"target":"right","response":"right","rt":1203.9999999999,"correct":true,"confidence":3},{"trial_n":57,"n_dots":2.95,"target":"right","response":"left","rt":547,"correct":false,"confidence":5},{"trial_n":58,"n_dots":3.05,"target":"left","response":"left","rt":400.99999999994,"correct":true,"confidence":6},{"trial_n":59,"n_dots":3.05,"target":"right","response":"left","rt":595,"correct":false,"confidence":6},{"trial_n":60,"n_dots":3.15,"target":"right","response":"right","rt":1799,"correct":true,"confidence":2},{"trial_n":61,"n_dots":3.15,"target":"left","response":"left","rt":405,"correct":true,"confidence":6},{"trial_n":62,"n_dots":3.05,"target":"right","response":"right","rt":750,"correct":true,"confidence":6},{"trial_n":63,"n_dots":3.05,"target":"right","response":"right","rt":742,"correct":true,"confidence":6},{"trial_n":64,"n_dots":2.95,"target":"left","response":"left","rt":515,"correct":true,"confidence":3},{"trial_n":65,"n_dots":2.95,"target":"right","response":"right","rt":516,"correct":true,"confidence":5},{"trial_n":66,"n_dots":2.85,"target":"left","response":"left","rt":1050,"correct":true,"confidence":5},{"trial_n":67,"n_dots":2.85,"target":"left","response":"right","rt":797,"correct":false,"confidence":2},{"trial_n":68,"n_dots":2.95,"target":"right","response":"right","rt":916,"correct":true,"confidence":5},{"trial_n":69,"n_dots":2.95,"target":"left","response":"left","rt":458,"correct":true,"confidence":5},{"trial_n":70,"n_dots":2.85,"target":"right","response":"right","rt":561,"correct":true,"confidence":4},{"trial_n":71,"n_dots":2.85,"target":"left","response":"left","rt":468.99999999994,"correct":true,"confidence":6},{"trial_n":72,"n_dots":2.75,"target":"left","response":"right","rt":637,"correct":false,"confidence":4},{"trial_n":73,"n_dots":2.85,"target":"right","response":"right","rt":1242.9999999999,"correct":true,"confidence":3},{"trial_n":74,"n_dots":2.85,"target":"left","response":"left","rt":470,"correct":true,"confidence":6},{"trial_n":75,"n_dots":2.75,"target":"right","response":"right","rt":752,"correct":true,"confidence":5},{"trial_n":76,"n_dots":2.75,"target":"left","response":"left","rt":539,"correct":true,"confidence":6},{"trial_n":77,"n_dots":2.65,"target":"right","response":"left","rt":528,"correct":false,"confidence":6},{"trial_n":78,"n_dots":2.75,"target":"right","response":"right","rt":678,"correct":true,"confidence":5},{"trial_n":79,"n_dots":2.75,"target":"right","response":"left","rt":1582,"correct":false,"confidence":3},{"trial_n":80,"n_dots":2.85,"target":"right","response":"left","rt":482,"correct":false,"confidence":5},{"trial_n":81,"n_dots":2.95,"target":"right","response":"left","rt":485.00000000006,"correct":false,"confidence":5},{"trial_n":82,"n_dots":3.05,"target":"left","response":"left","rt":390,"correct":true,"confidence":5},{"trial_n":83,"n_dots":3.05,"target":"right","response":"right","rt":389,"correct":true,"confidence":5},{"trial_n":84,"n_dots":2.95,"target":"right","response":"right","rt":765,"correct":true,"confidence":5},{"trial_n":85,"n_dots":2.95,"target":"right","response":"left","rt":853.00000000006,"correct":false,"confidence":3},{"trial_n":86,"n_dots":3.05,"target":"left","response":"left","rt":370,"correct":true,"confidence":6},{"trial_n":87,"n_dots":3.05,"target":"right","response":"right","rt":379,"correct":true,"confidence":6},{"trial_n":88,"n_dots":2.95,"target":"right","response":"right","rt":946,"correct":true,"confidence":4},{"trial_n":89,"n_dots":2.95,"target":"right","response":"left","rt":495,"correct":false,"confidence":5},{"trial_n":90,"n_dots":3.05,"target":"left","response":"left","rt":463,"correct":true,"confidence":5},{"trial_n":91,"n_dots":3.05,"target":"left","response":"left","rt":899.99999999994,"correct":true,"confidence":5},{"trial_n":92,"n_dots":2.95,"target":"right","response":"left","rt":366,"correct":false,"confidence":5},{"trial_n":93,"n_dots":3.05,"target":"left","response":"left","rt":433,"correct":true,"confidence":6},{"trial_n":94,"n_dots":3.05,"target":"left","response":"right","rt":815,"correct":false,"confidence":4},{"trial_n":95,"n_dots":3.15,"target":"left","response":"left","rt":629,"correct":true,"confidence":4},{"trial_n":96,"n_dots":3.15,"target":"left","response":"left","rt":402,"correct":true,"confidence":5},{"trial_n":97,"n_dots":3.05,"target":"left","response":"left","rt":382,"correct":true,"confidence":6},{"trial_n":98,"n_dots":3.05,"target":"left","response":"left","rt":1324.9999999999,"correct":true,"confidence":2},{"trial_n":99,"n_dots":2.95,"target":"right","response":"left","rt":834,"correct":false,"confidence":5},{"trial_n":100,"n_dots":3.05,"target":"right","response":"right","rt":670.00000000006,"correct":true,"confidence":5},{"trial_n":101,"n_dots":3.05,"target":"right","response":"right","rt":715,"correct":true,"confidence":3},{"trial_n":102,"n_dots":2.95,"target":"left","response":"left","rt":739,"correct":true,"confidence":5},{"trial_n":103,"n_dots":2.95,"target":"left","response":"left","rt":794,"correct":true,"confidence":5},{"trial_n":104,"n_dots":2.85,"target":"left","response":"left","rt":548,"correct":true,"confidence":5},{"trial_n":105,"n_dots":2.85,"target":"right","response":"left","rt":974,"correct":false,"confidence":4},{"trial_n":106,"n_dots":2.95,"target":"right","response":"right","rt":920.99999999994,"correct":true,"confidence":4},{"trial_n":107,"n_dots":2.95,"target":"left","response":"left","rt":489.00000000006,"correct":true,"confidence":5},{"trial_n":108,"n_dots":2.85,"target":"left","response":"left","rt":454.99999999994,"correct":true,"confidence":4},{"trial_n":109,"n_dots":2.85,"target":"left","response":"left","rt":1094,"correct":true,"confidence":4},{"trial_n":110,"n_dots":2.75,"target":"right","response":"right","rt":782,"correct":true,"confidence":4},{"trial_n":111,"n_dots":2.75,"target":"left","response":"left","rt":381.00000000012,"correct":true,"confidence":6},{"trial_n":112,"n_dots":2.65,"target":"right","response":"right","rt":487,"correct":true,"confidence":6},{"trial_n":113,"n_dots":2.65,"target":"right","response":"left","rt":2301,"correct":false,"confidence":4},{"trial_n":114,"n_dots":2.75,"target":"left","response":"left","rt":1039,"correct":true,"confidence":5},{"trial_n":115,"n_dots":2.75,"target":"left","response":"left","rt":917,"correct":true,"confidence":5},{"trial_n":116,"n_dots":2.65,"target":"left","response":"left","rt":473,"correct":true,"confidence":6},{"trial_n":117,"n_dots":2.65,"target":"left","response":"right","rt":808,"correct":false,"confidence":6},{"trial_n":118,"n_dots":2.75,"target":"right","response":"right","rt":1080,"correct":true,"confidence":6},{"trial_n":119,"n_dots":2.75,"target":"right","response":"left","rt":642,"correct":false,"confidence":5},{"trial_n":120,"n_dots":2.85,"target":"left","response":"left","rt":427,"correct":true,"confidence":6},{"trial_n":121,"n_dots":2.85,"target":"right","response":"left","rt":1179,"correct":false,"confidence":3},{"trial_n":122,"n_dots":2.95,"target":"left","response":"left","rt":809,"correct":true,"confidence":2},{"trial_n":123,"n_dots":2.95,"target":"left","response":"left","rt":358,"correct":true,"confidence":6},{"trial_n":124,"n_dots":2.85,"target":"left","response":"left","rt":362.99999999988,"correct":true,"confidence":6},{"trial_n":125,"n_dots":2.85,"target":"right","response":"right","rt":843,"correct":true,"confidence":5},{"trial_n":126,"n_dots":2.75,"target":"right","response":"left","rt":1056,"correct":false,"confidence":4},{"trial_n":127,"n_dots":2.85,"target":"left","response":"left","rt":459,"correct":true,"confidence":5},{"trial_n":128,"n_dots":2.85,"target":"right","response":"right","rt":738,"correct":true,"confidence":3},{"trial_n":129,"n_dots":2.75,"target":"left","response":"left","rt":323,"correct":true,"confidence":5},{"trial_n":130,"n_dots":2.75,"target":"right","response":"right","rt":1085,"correct":true,"confidence":5},{"trial_n":131,"n_dots":2.65,"target":"left","response":"left","rt":504.99999999988,"correct":true,"confidence":4},{"trial_n":132,"n_dots":2.65,"target":"right","response":"right","rt":1036,"correct":true,"confidence":5},{"trial_n":133,"n_dots":2.55,"target":"right","response":"right","rt":1173,"correct":true,"confidence":5},{"trial_n":134,"n_dots":2.55,"target":"right","response":"right","rt":947,"correct":true,"confidence":3},{"trial_n":135,"n_dots":2.45,"target":"left","response":"left","rt":422,"correct":true,"confidence":5},{"trial_n":136,"n_dots":2.45,"target":"left","response":"left","rt":814,"correct":true,"confidence":5},{"trial_n":137,"n_dots":2.35,"target":"left","response":"left","rt":408.00000000012,"correct":true,"confidence":5},{"trial_n":138,"n_dots":2.35,"target":"right","response":"right","rt":814,"correct":true,"confidence":5},{"trial_n":139,"n_dots":2.25,"target":"right","response":"right","rt":1087,"correct":true,"confidence":4},{"trial_n":140,"n_dots":2.25,"target":"right","response":"left","rt":1016,"correct":false,"confidence":4},{"trial_n":141,"n_dots":2.35,"target":"right","response":"left","rt":989.00000000012,"correct":false,"confidence":4},{"trial_n":142,"n_dots":2.45,"target":"left","response":"left","rt":691,"correct":true,"confidence":3},{"trial_n":143,"n_dots":2.45,"target":"right","response":"left","rt":1300.9999999999,"correct":false,"confidence":3},{"trial_n":144,"n_dots":2.55,"target":"right","response":"right","rt":1072,"correct":true,"confidence":3},{"trial_n":145,"n_dots":2.55,"target":"left","response":"left","rt":1723,"correct":true,"confidence":2},{"trial_n":146,"n_dots":2.45,"target":"right","response":"left","rt":3425,"correct":false,"confidence":1},{"trial_n":147,"n_dots":2.55,"target":"right","response":"right","rt":1093.9999999999,"correct":true,"confidence":2},{"trial_n":148,"n_dots":2.55,"target":"left","response":"right","rt":1487,"correct":false,"confidence":2},{"trial_n":149,"n_dots":2.65,"target":"right","response":"right","rt":661,"correct":true,"confidence":2},{"trial_n":150,"n_dots":2.65,"target":"left","response":"left","rt":817,"correct":true,"confidence":3},{"trial_n":151,"n_dots":2.55,"target":"right","response":"right","rt":942,"correct":true,"confidence":3},{"trial_n":152,"n_dots":2.55,"target":"left","response":"left","rt":1215.0000000001,"correct":true,"confidence":3},{"trial_n":153,"n_dots":2.45,"target":"right","response":"left","rt":934,"correct":false,"confidence":5},{"trial_n":154,"n_dots":2.55,"target":"left","response":"left","rt":796,"correct":true,"confidence":3},{"trial_n":155,"n_dots":2.55,"target":"left","response":"right","rt":1674,"correct":false,"confidence":2},{"trial_n":156,"n_dots":2.65,"target":"right","response":"left","rt":891,"correct":false,"confidence":1},{"trial_n":157,"n_dots":2.75,"target":"right","response":"right","rt":942,"correct":true,"confidence":2},{"trial_n":158,"n_dots":2.75,"target":"right","response":"left","rt":593,"correct":false,"confidence":3},{"trial_n":159,"n_dots":2.85,"target":"left","response":"left","rt":621,"correct":true,"confidence":5},{"trial_n":160,"n_dots":2.85,"target":"right","response":"left","rt":1217.0000000001,"correct":false,"confidence":3},{"trial_n":161,"n_dots":2.95,"target":"left","response":"left","rt":859.00000000012,"correct":true,"confidence":4},{"trial_n":162,"n_dots":2.95,"target":"left","response":"left","rt":348.00000000012,"correct":true,"confidence":5},{"trial_n":163,"n_dots":2.85,"target":"left","response":"right","rt":1433.9999999999,"correct":false,"confidence":3},{"trial_n":164,"n_dots":2.95,"target":"right","response":"right","rt":889,"correct":true,"confidence":3},{"trial_n":165,"n_dots":2.95,"target":"left","response":"left","rt":803,"correct":true,"confidence":4},{"trial_n":166,"n_dots":2.85,"target":"right","response":"left","rt":1114,"correct":false,"confidence":3},{"trial_n":167,"n_dots":2.95,"target":"left","response":"left","rt":793,"correct":true,"confidence":3},{"trial_n":168,"n_dots":2.95,"target":"right","response":"right","rt":664,"correct":true,"confidence":5},{"trial_n":169,"n_dots":2.85,"target":"left","response":"right","rt":1015,"correct":false,"confidence":4},{"trial_n":170,"n_dots":2.95,"target":"left","response":"right","rt":928,"correct":false,"confidence":4},{"trial_n":171,"n_dots":3.05,"target":"right","response":"left","rt":2208.9999999999,"correct":false,"confidence":1},{"trial_n":172,"n_dots":3.15,"target":"left","response":"left","rt":962,"correct":true,"confidence":3},{"trial_n":173,"n_dots":3.15,"target":"left","response":"left","rt":1863,"correct":true,"confidence":2},{"trial_n":174,"n_dots":3.05,"target":"left","response":"left","rt":696,"correct":true,"confidence":3},{"trial_n":175,"n_dots":3.05,"target":"left","response":"left","rt":755,"correct":true,"confidence":4},{"trial_n":176,"n_dots":2.95,"target":"right","response":"left","rt":486,"correct":false,"confidence":4},{"trial_n":177,"n_dots":3.05,"target":"left","response":"left","rt":1194,"correct":true,"confidence":5},{"trial_n":178,"n_dots":3.05,"target":"right","response":"right","rt":793,"correct":true,"confidence":2},{"trial_n":179,"n_dots":2.95,"target":"left","response":"left","rt":691,"correct":true,"confidence":5},{"trial_n":180,"n_dots":2.95,"target":"left","response":"left","rt":746,"correct":true,"confidence":5},{"trial_n":181,"n_dots":2.85,"target":"left","response":"left","rt":843,"correct":true,"confidence":4},{"trial_n":182,"n_dots":2.85,"target":"left","response":"left","rt":719,"correct":true,"confidence":4},{"trial_n":183,"n_dots":2.75,"target":"left","response":"left","rt":368,"correct":true,"confidence":5},{"trial_n":184,"n_dots":2.75,"target":"right","response":"left","rt":570,"correct":false,"confidence":5},{"trial_n":185,"n_dots":2.85,"target":"left","response":"left","rt":431.00000000012,"correct":true,"confidence":5},{"trial_n":186,"n_dots":2.85,"target":"right","response":"right","rt":890.99999999988,"correct":true,"confidence":6},{"trial_n":187,"n_dots":2.75,"target":"left","response":"left","rt":771,"correct":true,"confidence":6},{"trial_n":188,"n_dots":2.75,"target":"left","response":"left","rt":320.00000000012,"correct":true,"confidence":5},{"trial_n":189,"n_dots":2.65,"target":"right","response":"right","rt":2150.0000000001,"correct":true,"confidence":3},{"trial_n":190,"n_dots":2.65,"target":"right","response":"left","rt":1036,"correct":false,"confidence":4},{"trial_n":191,"n_dots":2.75,"target":"right","response":"left","rt":961,"correct":false,"confidence":4},{"trial_n":192,"n_dots":2.85,"target":"left","response":"right","rt":1057,"correct":false,"confidence":5},{"trial_n":193,"n_dots":2.95,"target":"left","response":"left","rt":901,"correct":true,"confidence":4},{"trial_n":194,"n_dots":2.95,"target":"left","response":"left","rt":1144,"correct":true,"confidence":4}]