[{"trial_n":1,"n_dots":4.25,"target":"left","response":"left","rt":8393.6999999881,"correct":true,"confidence":-1},{"trial_n":2,"n_dots":4.25,"target":"left","response":"right","rt":839.19999998808,"correct":false,"confidence":-1},{"trial_n":3,"n_dots":4.65,"target":"right","response":"right","rt":4260.6000000238,"correct":true,"confidence":-1},{"trial_n":4,"n_dots":4.65,"target":"right","response":"right","rt":587.70000001788,"correct":true,"confidence":-1},{"trial_n":5,"n_dots":4.25,"target":"right","response":"right","rt":1163.7000000179,"correct":true,"confidence":-1},{"trial_n":6,"n_dots":4.25,"target":"left","response":"left","rt":1305.7999999821,"correct":true,"confidence":-1},{"trial_n":7,"n_dots":3.85,"target":"right","response":"right","rt":976.90000000596,"correct":true,"confidence":-1},{"trial_n":8,"n_dots":3.85,"target":"left","response":"left","rt":1290.8000000119,"correct":true,"confidence":-1},{"trial_n":9,"n_dots":3.65,"target":"left","response":"right","rt":1531.1999999881,"correct":false,"confidence":-1},{"trial_n":10,"n_dots":3.85,"target":"left","response":"left","rt":698,"correct":true,"confidence":-1},{"trial_n":11,"n_dots":3.85,"target":"left","response":"left","rt":914.59999999404,"correct":true,"confidence":-1},{"trial_n":12,"n_dots":3.65,"target":"left","response":"left","rt":1042.7999999821,"correct":true,"confidence":-1},{"trial_n":13,"n_dots":3.65,"target":"right","response":"right","rt":983.30000001192,"correct":true,"confidence":-1},{"trial_n":14,"n_dots":3.55,"target":"right","response":"right","rt":686.19999998808,"correct":true,"confidence":-1},{"trial_n":15,"n_dots":3.55,"target":"left","response":"left","rt":780.39999997616,"correct":true,"confidence":-1},{"trial_n":16,"n_dots":3.45,"target":"left","response":"right","rt":1429,"correct":false,"confidence":-1},{"trial_n":17,"n_dots":3.55,"target":"right","response":"right","rt":644.20000001788,"correct":true,"confidence":-1},{"trial_n":18,"n_dots":3.55,"target":"right","response":"right","rt":397.70000001788,"correct":true,"confidence":-1},{"trial_n":19,"n_dots":3.45,"target":"right","response":"left","rt":911.90000000596,"correct":false,"confidence":-1},{"trial_n":20,"n_dots":3.55,"target":"right","response":"left","rt":643.09999999404,"correct":false,"confidence":-1},{"trial_n":21,"n_dots":3.65,"target":"right","response":"right","rt":557.30000001192,"correct":true,"confidence":-1},{"trial_n":22,"n_dots":3.65,"target":"left","response":"left","rt":867.30000001192,"correct":true,"confidence":-1},{"trial_n":23,"n_dots":3.55,"target":"left","response":"left","rt":497.09999999404,"correct":true,"confidence":-1},{"trial_n":24,"n_dots":3.55,"target":"right","response":"right","rt":2000.1000000238,"correct":true,"confidence":-1},{"trial_n":25,"n_dots":3.45,"target":"left","response":"left","rt":777.5,"correct":true,"confidence":-1},{"trial_n":26,"n_dots":3.45,"target":"left","response":"left","rt":589.5,"correct":true,"confidence":-1},{"trial_n":27,"n_dots":3.35,"target":"right","response":"right","rt":476.59999999404,"correct":true,"confidence":3},{"trial_n":28,"n_dots":3.35,"target":"left","response":"right","rt":1328.099999994,"correct":false,"confidence":4},{"trial_n":29,"n_dots":3.45,"target":"right","response":"right","rt":1032.400000006,"correct":true,"confidence":5},{"trial_n":30,"n_dots":3.45,"target":"left","response":"left","rt":739.09999999404,"correct":true,"confidence":3},{"trial_n":31,"n_dots":3.35,"target":"left","response":"right","rt":1149.6000000238,"correct":false,"confidence":4},{"trial_n":32,"n_dots":3.45,"target":"right","response":"right","rt":463.70000001788,"correct":true,"confidence":6},{"trial_n":33,"n_dots":3.45,"target":"right","response":"left","rt":1932.6000000238,"correct":false,"confidence":1},{"trial_n":34,"n_dots":3.55,"target":"left","response":"left","rt":1042.599999994,"correct":true,"confidence":4},{"trial_n":35,"n_dots":3.55,"target":"right","response":"right","rt":17.800000011921,"correct":true,"confidence":4},{"trial_n":36,"n_dots":3.45,"target":"right","response":"left","rt":572.80000001192,"correct":false,"confidence":1},{"trial_n":37,"n_dots":3.55,"target":"right","response":"right","rt":19.800000011921,"correct":true,"confidence":4},{"trial_n":38,"n_dots":3.55,"target":"left","response":"left","rt":3118.8000000119,"correct":true,"confidence":3},{"trial_n":39,"n_dots":3.45,"target":"right","response":"right","rt":216,"correct":true,"confidence":4},{"trial_n":40,"n_dots":3.45,"target":"right","response":"right","rt":82.700000017881,"correct":true,"confidence":4},{"trial_n":41,"n_dots":3.35,"target":"right","response":"left","rt":48.200000017881,"correct":false,"confidence":3},{"trial_n":42,"n_dots":3.45,"target":"right","response":"left","rt":619.80000001192,"correct":false,"confidence":1},{"trial_n":43,"n_dots":3.55,"target":"right","response":"right","rt":216.09999999404,"correct":true,"confidence":5},{"trial_n":44,"n_dots":3.55,"target":"left","response":"left","rt":177.70000001788,"correct":true,"confidence":6},{"trial_n":45,"n_dots":3.45,"target":"left","response":"left","rt":71.5,"correct":true,"confidence":6},{"trial_n":46,"n_dots":3.45,"target":"right","response":"left","rt":893.30000001192,"correct":false,"confidence":3},{"trial_n":47,"n_dots":3.55,"target":"left","response":"right","rt":167.5,"correct":false,"confidence":4},{"trial_n":48,"n_dots":3.65,"target":"left","response":"left","rt":168.19999998808,"correct":true,"confidence":4},{"trial_n":49,"n_dots":3.65,"target":"right","response":"right","rt":330.80000001192,"correct":true,"confidence":1},{"trial_n":50,"n_dots":3.55,"target":"right","response":"left","rt":87.90000000596,"correct":false,"confidence":4},{"trial_n":51,"n_dots":3.65,"target":"left","response":"right","rt":392.80000001192,"correct":false,"confidence":4},{"trial_n":52,"n_dots":3.75,"target":"right","response":"right","rt":543.90000000596,"correct":true,"confidence":4},{"trial_n":53,"n_dots":3.75,"target":"right","response":"right","rt":158.09999999404,"correct":true,"confidence":5},{"trial_n":54,"n_dots":3.65,"target":"right","response":"left","rt":1698.7000000179,"correct":false,"confidence":4},{"trial_n":55,"n_dots":3.75,"target":"left","response":"left","rt":426.30000001192,"correct":true,"confidence":3},{"trial_n":56,"n_dots":3.75,"target":"left","response":"left","rt":357.5,"correct":true,"confidence":4},{"trial_n":57,"n_dots":3.65,"target":"right","response":"right","rt":237.09999999404,"correct":true,"confidence":4},{"trial_n":58,"n_dots":3.65,"target":"left","response":"left","rt":190.59999999404,"correct":true,"confidence":5},{"trial_n":59,"n_dots":3.55,"target":"right","response":"right","rt":252.5,"correct":true,"confidence":5},{"trial_n":60,"n_dots":3.55,"target":"left","response":"left","rt":701.5,"correct":true,"confidence":3},{"trial_n":61,"n_dots":3.45,"target":"right","response":"right","rt":258.70000001788,"correct":true,"confidence":5},{"trial_n":62,"n_dots":3.45,"target":"left","response":"left","rt":377.59999999404,"correct":true,"confidence":5},{"trial_n":63,"n_dots":3.35,"target":"left","response":"left","rt":115.59999999404,"correct":true,"confidence":4},{"trial_n":64,"n_dots":3.35,"target":"right","response":"right","rt":1059.3000000119,"correct":true,"confidence":5},{"trial_n":65,"n_dots":3.25,"target":"left","response":"left","rt":556.39999997616,"correct":true,"confidence":3},{"trial_n":66,"n_dots":3.25,"target":"right","response":"right","rt":103.20000001788,"correct":true,"confidence":5},{"trial_n":67,"n_dots":3.15,"target":"left","response":"left","rt":549,"correct":true,"confidence":3},{"trial_n":68,"n_dots":3.15,"target":"right","response":"right","rt":485.30000001192,"correct":true,"confidence":4},{"trial_n":69,"n_dots":3.05,"target":"left","response":"left","rt":356.59999999404,"correct":true,"confidence":4},{"trial_n":70,"n_dots":3.05,"target":"left","response":"left","rt":5498.3999999762,"correct":true,"confidence":4},{"trial_n":71,"n_dots":2.95,"target":"right","response":"right","rt":882.5,"correct":true,"confidence":3},{"trial_n":72,"n_dots":2.95,"target":"right","response":"left","rt":1203.2999999821,"correct":false,"confidence":3},{"trial_n":73,"n_dots":3.05,"target":"left","response":"left","rt":573.10000002384,"correct":true,"confidence":2},{"trial_n":74,"n_dots":3.05,"target":"left","response":"right","rt":2658.6000000238,"correct":false,"confidence":5},{"trial_n":75,"n_dots":3.15,"target":"left","response":"left","rt":1125.7999999821,"correct":true,"confidence":3},{"trial_n":76,"n_dots":3.15,"target":"right","response":"right","rt":180.5,"correct":true,"confidence":5},{"trial_n":77,"n_dots":3.05,"target":"left","response":"right","rt":501,"correct":false,"confidence":5},{"trial_n":78,"n_dots":3.15,"target":"left","response":"left","rt":1796.8000000119,"correct":true,"confidence":4},{"trial_n":79,"n_dots":3.15,"target":"right","response":"right","rt":2123.6000000238,"correct":true,"confidence":4},{"trial_n":80,"n_dots":3.05,"target":"left","response":"left","rt":426.60000002384,"correct":true,"confidence":5},{"trial_n":81,"n_dots":3.05,"target":"left","response":"right","rt":515.5,"correct":false,"confidence":4},{"trial_n":82,"n_dots":3.15,"target":"left","response":"right","rt":1179.8000000119,"correct":false,"confidence":4},{"trial_n":83,"n_dots":3.25,"target":"left","response":"left","rt":1328.400000006,"correct":true,"confidence":4},{"trial_n":84,"n_dots":3.25,"target":"left","response":"right","rt":458.19999998808,"correct":false,"confidence":5},{"trial_n":85,"n_dots":3.35,"target":"left","response":"left","rt":463,"correct":true,"confidence":4},{"trial_n":86,"n_dots":3.35,"target":"right","response":"right","rt":402.19999998808,"correct":true,"confidence":4},{"trial_n":87,"n_dots":3.25,"target":"right","response":"right","rt":684.90000000596,"correct":true,"confidence":5},{"trial_n":88,"n_dots":3.25,"target":"right","response":"right","rt":220.80000001192,"correct":true,"confidence":4},{"trial_n":89,"n_dots":3.15,"target":"right","response":"right","rt":332.29999998212,"correct":true,"confidence":5},{"trial_n":90,"n_dots":3.15,"target":"right","response":"right","rt":483.5,"correct":true,"confidence":6},{"trial_n":91,"n_dots":3.05,"target":"right","response":"left","rt":821.20000001788,"correct":false,"confidence":4},{"trial_n":92,"n_dots":3.15,"target":"right","response":"right","rt":376.70000001788,"correct":true,"confidence":4},{"trial_n":93,"n_dots":3.15,"target":"right","response":"right","rt":735.09999999404,"correct":true,"confidence":4},{"trial_n":94,"n_dots":3.05,"target":"left","response":"right","rt":720.29999998212,"correct":false,"confidence":5},{"trial_n":95,"n_dots":3.15,"target":"right","response":"right","rt":410,"correct":true,"confidence":4},{"trial_n":96,"n_dots":3.15,"target":"right","response":"right","rt":316.69999998808,"correct":true,"confidence":5},{"trial_n":97,"n_dots":3.05,"target":"left","response":"left","rt":912.69999998808,"correct":true,"confidence":4},{"trial_n":98,"n_dots":3.05,"target":"left","response":"right","rt":334.79999998212,"correct":false,"confidence":5},{"trial_n":99,"n_dots":3.15,"target":"left","response":"right","rt":194.30000001192,"correct":false,"confidence":4},{"trial_n":100,"n_dots":3.25,"target":"right","response":"left","rt":985.39999997616,"correct":false,"confidence":4},{"trial_n":101,"n_dots":3.35,"target":"right","response":"right","rt":273.09999999404,"correct":true,"confidence":5},{"trial_n":102,"n_dots":3.35,"target":"right","response":"right","rt":97.200000017881,"correct":true,"confidence":5},{"trial_n":103,"n_dots":3.25,"target":"left","response":"left","rt":1579.3000000119,"correct":true,"confidence":5},{"trial_n":104,"n_dots":3.25,"target":"left","response":"right","rt":857,"correct":false,"confidence":5},{"trial_n":105,"n_dots":3.35,"target":"right","response":"right","rt":376.29999998212,"correct":true,"confidence":5},{"trial_n":106,"n_dots":3.35,"target":"left","response":"left","rt":877.10000002384,"correct":true,"confidence":4},{"trial_n":107,"n_dots":3.25,"target":"left","response":"right","rt":229.79999998212,"correct":false,"confidence":5},{"trial_n":108,"n_dots":3.35,"target":"left","response":"left","rt":556.90000000596,"correct":true,"confidence":4},{"trial_n":109,"n_dots":3.35,"target":"right","response":"right","rt":347,"correct":true,"confidence":5},{"trial_n":110,"n_dots":3.25,"target":"right","response":"right","rt":403,"correct":true,"confidence":5},{"trial_n":111,"n_dots":3.25,"target":"right","response":"left","rt":1355.3000000119,"correct":false,"confidence":4},{"trial_n":112,"n_dots":3.35,"target":"right","response":"right","rt":1789.1999999881,"correct":true,"confidence":5},{"trial_n":113,"n_dots":3.35,"target":"right","response":"right","rt":409.59999999404,"correct":true,"confidence":5},{"trial_n":114,"n_dots":3.25,"target":"right","response":"left","rt":1678.400000006,"correct":false,"confidence":4},{"trial_n":115,"n_dots":3.35,"target":"right","response":"left","rt":1431,"correct":false,"confidence":4},{"trial_n":116,"n_dots":3.45,"target":"right","response":"right","rt":149.69999998808,"correct":true,"confidence":6},{"trial_n":117,"n_dots":3.45,"target":"right","response":"right","rt":297.30000001192,"correct":true,"confidence":6},{"trial_n":118,"n_dots":3.35,"target":"left","response":"left","rt":1224.7000000179,"correct":true,"confidence":6},{"trial_n":119,"n_dots":3.35,"target":"right","response":"right","rt":958.90000000596,"correct":true,"confidence":2},{"trial_n":120,"n_dots":3.25,"target":"right","response":"right","rt":992.09999999404,"correct":true,"confidence":5},{"trial_n":121,"n_dots":3.25,"target":"right","response":"right","rt":1123,"correct":true,"confidence":4},{"trial_n":122,"n_dots":3.15,"target":"right","response":"left","rt":897.5,"correct":false,"confidence":4},{"trial_n":123,"n_dots":3.25,"target":"left","response":"right","rt":214.09999999404,"correct":false,"confidence":5},{"trial_n":124,"n_dots":3.35,"target":"right","response":"right","rt":457.19999998808,"correct":true,"confidence":4},{"trial_n":125,"n_dots":3.35,"target":"right","response":"right","rt":308.29999998212,"correct":true,"confidence":4},{"trial_n":126,"n_dots":3.25,"target":"right","response":"left","rt":643.5,"correct":false,"confidence":3},{"trial_n":127,"n_dots":3.35,"target":"right","response":"right","rt":-3,"correct":true,"confidence":5},{"trial_n":128,"n_dots":3.35,"target":"right","response":"left","rt":1852.5,"correct":false,"confidence":5},{"trial_n":129,"n_dots":3.45,"target":"left","response":"left","rt":393.19999998808,"correct":true,"confidence":4},{"trial_n":130,"n_dots":3.45,"target":"left","response":"right","rt":103.5,"correct":false,"confidence":5},{"trial_n":131,"n_dots":3.55,"target":"right","response":"right","rt":246.60000002384,"correct":true,"confidence":5},{"trial_n":132,"n_dots":3.55,"target":"left","response":"left","rt":378.09999999404,"correct":true,"confidence":4},{"trial_n":133,"n_dots":3.45,"target":"left","response":"left","rt":673,"correct":true,"confidence":5},{"trial_n":134,"n_dots":3.45,"target":"left","response":"right","rt":652.30000001192,"correct":false,"confidence":5},{"trial_n":135,"n_dots":3.55,"target":"left","response":"left","rt":1386.099999994,"correct":true,"confidence":3},{"trial_n":136,"n_dots":3.55,"target":"left","response":"left","rt":414.5,"correct":true,"confidence":5},{"trial_n":137,"n_dots":3.45,"target":"left","response":"left","rt":-3.0999999940395,"correct":true,"confidence":4},{"trial_n":138,"n_dots":3.45,"target":"left","response":"left","rt":19.299999982119,"correct":true,"confidence":4},{"trial_n":139,"n_dots":3.35,"target":"left","response":"left","rt":2811.1999999881,"correct":true,"confidence":4},{"trial_n":140,"n_dots":3.35,"target":"left","response":"left","rt":1610,"correct":true,"confidence":4},{"trial_n":141,"n_dots":3.25,"target":"left","response":"left","rt":1104.8000000119,"correct":true,"confidence":1},{"trial_n":142,"n_dots":3.25,"target":"right","response":"right","rt":516.5,"correct":true,"confidence":5},{"trial_n":143,"n_dots":3.15,"target":"right","response":"right","rt":715.10000002384,"correct":true,"confidence":4},{"trial_n":144,"n_dots":3.15,"target":"right","response":"right","rt":22.899999976158,"correct":true,"confidence":4},{"trial_n":145,"n_dots":3.05,"target":"left","response":"left","rt":1185.6999999881,"correct":true,"confidence":3},{"trial_n":146,"n_dots":3.05,"target":"right","response":"left","rt":643.59999999404,"correct":false,"confidence":5},{"trial_n":147,"n_dots":3.15,"target":"left","response":"right","rt":81.300000011921,"correct":false,"confidence":4},{"trial_n":148,"n_dots":3.25,"target":"right","response":"left","rt":174,"correct":false,"confidence":3},{"trial_n":149,"n_dots":3.35,"target":"right","response":"right","rt":513,"correct":true,"confidence":5},{"trial_n":150,"n_dots":3.35,"target":"left","response":"left","rt":846.40000000596,"correct":true,"confidence":4},{"trial_n":151,"n_dots":3.25,"target":"left","response":"left","rt":956.09999999404,"correct":true,"confidence":3},{"trial_n":152,"n_dots":3.25,"target":"left","response":"left","rt":1037.099999994,"correct":true,"confidence":5},{"trial_n":153,"n_dots":3.15,"target":"left","response":"right","rt":418.90000000596,"correct":false,"confidence":3},{"trial_n":154,"n_dots":3.25,"target":"right","response":"left","rt":637.40000000596,"correct":false,"confidence":4},{"trial_n":155,"n_dots":3.35,"target":"right","response":"right","rt":30.700000017881,"correct":true,"confidence":5},{"trial_n":156,"n_dots":3.35,"target":"right","response":"right","rt":562.09999999404,"correct":true,"confidence":4},{"trial_n":157,"n_dots":3.25,"target":"left","response":"left","rt":1908.7999999821,"correct":true,"confidence":4},{"trial_n":158,"n_dots":3.25,"target":"left","response":"right","rt":399.30000001192,"correct":false,"confidence":4},{"trial_n":159,"n_dots":3.35,"target":"right","response":"left","rt":1486.6000000238,"correct":false,"confidence":4},{"trial_n":160,"n_dots":3.45,"target":"right","response":"right","rt":568.90000000596,"correct":true,"confidence":3},{"trial_n":161,"n_dots":3.45,"target":"left","response":"left","rt":964.10000002384,"correct":true,"confidence":4},{"trial_n":162,"n_dots":3.35,"target":"left","response":"left","rt":114.79999998212,"correct":true,"confidence":5},{"trial_n":163,"n_dots":3.35,"target":"left","response":"left","rt":172.39999997616,"correct":true,"confidence":3},{"trial_n":164,"n_dots":3.25,"target":"left","response":"right","rt":537.69999998808,"correct":false,"confidence":5},{"trial_n":165,"n_dots":3.35,"target":"left","response":"left","rt":405.59999999404,"correct":true,"confidence":4},{"trial_n":166,"n_dots":3.35,"target":"left","response":"left","rt":1330.8000000119,"correct":true,"confidence":4},{"trial_n":167,"n_dots":3.25,"target":"right","response":"right","rt":4.5,"correct":true,"confidence":5},{"trial_n":168,"n_dots":3.25,"target":"right","response":"left","rt":378.29999998212,"correct":false,"confidence":4},{"trial_n":169,"n_dots":3.35,"target":"right","response":"right","rt":10.199999988079,"correct":true,"confidence":5},{"trial_n":170,"n_dots":3.35,"target":"left","response":"left","rt":1338.400000006,"correct":true,"confidence":4},{"trial_n":171,"n_dots":3.25,"target":"right","response":"right","rt":1988.900000006,"correct":true,"confidence":5},{"trial_n":172,"n_dots":3.25,"target":"right","response":"left","rt":377.29999998212,"correct":false,"confidence":3},{"trial_n":173,"n_dots":3.35,"target":"right","response":"right","rt":147,"correct":true,"confidence":5},{"trial_n":174,"n_dots":3.35,"target":"right","response":"left","rt":177.60000002384,"correct":false,"confidence":5},{"trial_n":175,"n_dots":3.45,"target":"right","response":"right","rt":1764.2000000179,"correct":true,"confidence":5},{"trial_n":176,"n_dots":3.45,"target":"left","response":"left","rt":218,"correct":true,"confidence":4},{"trial_n":177,"n_dots":3.35,"target":"right","response":"right","rt":566,"correct":true,"confidence":5},{"trial_n":178,"n_dots":3.35,"target":"left","response":"left","rt":494.69999998808,"correct":true,"confidence":3},{"trial_n":179,"n_dots":3.25,"target":"right","response":"right","rt":522.30000001192,"correct":true,"confidence":5},{"trial_n":180,"n_dots":3.25,"target":"left","response":"left","rt":433.80000001192,"correct":true,"confidence":4},{"trial_n":181,"n_dots":3.15,"target":"right","response":"right","rt":732.70000001788,"correct":true,"confidence":4},{"trial_n":182,"n_dots":3.15,"target":"left","response":"right","rt":267.59999999404,"correct":false,"confidence":4},{"trial_n":183,"n_dots":3.25,"target":"left","response":"left","rt":816.19999998808,"correct":true,"confidence":3},{"trial_n":184,"n_dots":3.25,"target":"left","response":"right","rt":34,"correct":false,"confidence":4},{"trial_n":185,"n_dots":3.35,"target":"left","response":"left","rt":1536.900000006,"correct":true,"confidence":4},{"trial_n":186,"n_dots":3.35,"target":"right","response":"right","rt":842.40000000596,"correct":true,"confidence":3},{"trial_n":187,"n_dots":3.25,"target":"left","response":"left","rt":40.40000000596,"correct":true,"confidence":4},{"trial_n":188,"n_dots":3.25,"target":"left","response":"right","rt":-6,"correct":false,"confidence":3},{"trial_n":189,"n_dots":3.35,"target":"left","response":"left","rt":349.30000001192,"correct":true,"confidence":5},{"trial_n":190,"n_dots":3.35,"target":"left","response":"left","rt":623.19999998808,"correct":true,"confidence":5},{"trial_n":191,"n_dots":3.25,"target":"left","response":"left","rt":48.90000000596,"correct":true,"confidence":5},{"trial_n":192,"n_dots":3.25,"target":"right","response":"left","rt":885.59999999404,"correct":false,"confidence":5},{"trial_n":193,"n_dots":3.35,"target":"left","response":"left","rt":68.399999976158,"correct":true,"confidence":5},{"trial_n":194,"n_dots":3.35,"target":"left","response":"left","rt":1111.099999994,"correct":true,"confidence":5}]