[{"trial_n":1,"n_dots":4.25,"target":"right","response":"right","rt":4536.700000003,"correct":true,"confidence":-1},{"trial_n":2,"n_dots":4.25,"target":"left","response":"left","rt":797.30000001192,"correct":true,"confidence":-1},{"trial_n":3,"n_dots":3.85,"target":"right","response":"right","rt":583.5,"correct":true,"confidence":-1},{"trial_n":4,"n_dots":3.85,"target":"right","response":"right","rt":620.79999999702,"correct":true,"confidence":-1},{"trial_n":5,"n_dots":3.45,"target":"right","response":"right","rt":599.89999999106,"correct":true,"confidence":-1},{"trial_n":6,"n_dots":3.45,"target":"left","response":"left","rt":219.59999999404,"correct":true,"confidence":-1},{"trial_n":7,"n_dots":3.05,"target":"left","response":"right","rt":785.70000000298,"correct":false,"confidence":-1},{"trial_n":8,"n_dots":3.25,"target":"right","response":"right","rt":588.90000000596,"correct":true,"confidence":-1},{"trial_n":9,"n_dots":3.25,"target":"right","response":"right","rt":628.20000000298,"correct":true,"confidence":-1},{"trial_n":10,"n_dots":3.05,"target":"right","response":"right","rt":648.39999999106,"correct":true,"confidence":-1},{"trial_n":11,"n_dots":3.05,"target":"left","response":"left","rt":695.90000000596,"correct":true,"confidence":-1},{"trial_n":12,"n_dots":2.85,"target":"right","response":"left","rt":937,"correct":false,"confidence":-1},{"trial_n":13,"n_dots":2.95,"target":"left","response":"left","rt":387.20000000298,"correct":true,"confidence":-1},{"trial_n":14,"n_dots":2.95,"target":"right","response":"right","rt":703,"correct":true,"confidence":-1},{"trial_n":15,"n_dots":2.85,"target":"right","response":"right","rt":848.79999999702,"correct":true,"confidence":-1},{"trial_n":16,"n_dots":2.85,"target":"right","response":"left","rt":693.69999998808,"correct":false,"confidence":-1},{"trial_n":17,"n_dots":2.95,"target":"left","response":"left","rt":596.09999999404,"correct":true,"confidence":-1},{"trial_n":18,"n_dots":2.95,"target":"left","response":"left","rt":871.5,"correct":true,"confidence":-1},{"trial_n":19,"n_dots":2.85,"target":"left","response":"left","rt":718.5,"correct":true,"confidence":-1},{"trial_n":20,"n_dots":2.85,"target":"left","response":"left","rt":669.29999999702,"correct":true,"confidence":-1},{"trial_n":21,"n_dots":2.75,"target":"right","response":"right","rt":535.10000000894,"correct":true,"confidence":-1},{"trial_n":22,"n_dots":2.75,"target":"left","response":"left","rt":319.09999999404,"correct":true,"confidence":-1},{"trial_n":23,"n_dots":2.65,"target":"left","response":"left","rt":571.5,"correct":true,"confidence":-1},{"trial_n":24,"n_dots":2.65,"target":"left","response":"left","rt":740,"correct":true,"confidence":-1},{"trial_n":25,"n_dots":2.55,"target":"right","response":"right","rt":608.90000000596,"correct":true,"confidence":-1},{"trial_n":26,"n_dots":2.55,"target":"right","response":"right","rt":605.5,"correct":true,"confidence":-1},{"trial_n":27,"n_dots":2.45,"target":"right","response":"right","rt":391.69999998808,"correct":true,"confidence":1},{"trial_n":28,"n_dots":2.45,"target":"right","response":"left","rt":490.20000000298,"correct":false,"confidence":1},{"trial_n":29,"n_dots":2.55,"target":"right","response":"right","rt":1136.5,"correct":true,"confidence":1},{"trial_n":30,"n_dots":2.55,"target":"left","response":"left","rt":625.5,"correct":true,"confidence":1},{"trial_n":31,"n_dots":2.45,"target":"right","response":"right","rt":235.90000000596,"correct":true,"confidence":1},{"trial_n":32,"n_dots":2.45,"target":"right","response":"right","rt":218.59999999404,"correct":true,"confidence":1},{"trial_n":33,"n_dots":2.35,"target":"left","response":"right","rt":125.5,"correct":false,"confidence":1},{"trial_n":34,"n_dots":2.45,"target":"right","response":"right","rt":709.90000000596,"correct":true,"confidence":1},{"trial_n":35,"n_dots":2.45,"target":"left","response":"left","rt":280.79999999702,"correct":true,"confidence":1},{"trial_n":36,"n_dots":2.35,"target":"left","response":"right","rt":219.39999999106,"correct":false,"confidence":1},{"trial_n":37,"n_dots":2.45,"target":"left","response":"right","rt":692.79999999702,"correct":false,"confidence":1},{"trial_n":38,"n_dots":2.55,"target":"left","response":"right","rt":566.89999999106,"correct":false,"confidence":1},{"trial_n":39,"n_dots":2.65,"target":"right","response":"right","rt":411.70000000298,"correct":true,"confidence":1},{"trial_n":40,"n_dots":2.65,"target":"right","response":"left","rt":560.59999999404,"correct":false,"confidence":1},{"trial_n":41,"n_dots":2.75,"target":"right","response":"left","rt":140.10000000894,"correct":false,"confidence":1},{"trial_n":42,"n_dots":2.85,"target":"right","response":"right","rt":446.5,"correct":true,"confidence":1},{"trial_n":43,"n_dots":2.85,"target":"right","response":"right","rt":106.10000000894,"correct":true,"confidence":1},{"trial_n":44,"n_dots":2.75,"target":"right","response":"left","rt":171.29999999702,"correct":false,"confidence":1},{"trial_n":45,"n_dots":2.85,"target":"right","response":"right","rt":138.70000000298,"correct":true,"confidence":1},{"trial_n":46,"n_dots":2.85,"target":"right","response":"right","rt":119.90000000596,"correct":true,"confidence":1},{"trial_n":47,"n_dots":2.75,"target":"left","response":"left","rt":248,"correct":true,"confidence":1},{"trial_n":48,"n_dots":2.75,"target":"right","response":"right","rt":929,"correct":true,"confidence":1},{"trial_n":49,"n_dots":2.65,"target":"right","response":"right","rt":467,"correct":true,"confidence":1},{"trial_n":50,"n_dots":2.65,"target":"right","response":"right","rt":624.5,"correct":true,"confidence":1},{"trial_n":51,"n_dots":2.55,"target":"left","response":"right","rt":732.70000000298,"correct":false,"confidence":1},{"trial_n":52,"n_dots":2.65,"target":"right","response":"right","rt":337.39999999106,"correct":true,"confidence":1},{"trial_n":53,"n_dots":2.65,"target":"left","response":"left","rt":97.5,"correct":true,"confidence":1},{"trial_n":54,"n_dots":2.55,"target":"left","response":"right","rt":561.59999999404,"correct":false,"confidence":1},{"trial_n":55,"n_dots":2.65,"target":"left","response":"left","rt":639.70000000298,"correct":true,"confidence":1},{"trial_n":56,"n_dots":2.65,"target":"left","response":"left","rt":168.90000000596,"correct":true,"confidence":1},{"trial_n":57,"n_dots":2.55,"target":"left","response":"left","rt":311.09999999404,"correct":true,"confidence":1},{"trial_n":58,"n_dots":2.55,"target":"left","response":"left","rt":185.29999999702,"correct":true,"confidence":1},{"trial_n":59,"n_dots":2.45,"target":"left","response":"right","rt":150.60000000894,"correct":false,"confidence":1},{"trial_n":60,"n_dots":2.55,"target":"left","response":"left","rt":129.59999999404,"correct":true,"confidence":1},{"trial_n":61,"n_dots":2.55,"target":"right","response":"left","rt":665.39999999106,"correct":false,"confidence":1},{"trial_n":62,"n_dots":2.65,"target":"right","response":"right","rt":383.30000001192,"correct":true,"confidence":1},{"trial_n":63,"n_dots":2.65,"target":"left","response":"left","rt":326.30000001192,"correct":true,"confidence":1},{"trial_n":64,"n_dots":2.55,"target":"right","response":"right","rt":1,"correct":true,"confidence":1},{"trial_n":65,"n_dots":2.55,"target":"right","response":"left","rt":739.5,"correct":false,"confidence":1},{"trial_n":66,"n_dots":2.65,"target":"right","response":"right","rt":493.60000000894,"correct":true,"confidence":1},{"trial_n":67,"n_dots":2.65,"target":"left","response":"right","rt":697.40000000596,"correct":false,"confidence":1},{"trial_n":68,"n_dots":2.75,"target":"left","response":"left","rt":136.40000000596,"correct":true,"confidence":1},{"trial_n":69,"n_dots":2.75,"target":"left","response":"left","rt":380.79999999702,"correct":true,"confidence":1},{"trial_n":70,"n_dots":2.65,"target":"left","response":"left","rt":386.40000000596,"correct":true,"confidence":1},{"trial_n":71,"n_dots":2.65,"target":"left","response":"right","rt":204.09999999404,"correct":false,"confidence":1},{"trial_n":72,"n_dots":2.75,"target":"left","response":"left","rt":308.09999999404,"correct":true,"confidence":1},{"trial_n":73,"n_dots":2.75,"target":"left","response":"left","rt":135,"correct":true,"confidence":1},{"trial_n":74,"n_dots":2.65,"target":"left","response":"left","rt":22.899999991059,"correct":true,"confidence":1},{"trial_n":75,"n_dots":2.65,"target":"right","response":"right","rt":176.20000000298,"correct":true,"confidence":1},{"trial_n":76,"n_dots":2.55,"target":"right","response":"left","rt":200.10000000894,"correct":false,"confidence":1},{"trial_n":77,"n_dots":2.65,"target":"right","response":"right","rt":423.70000000298,"correct":true,"confidence":1},{"trial_n":78,"n_dots":2.65,"target":"left","response":"right","rt":480.89999999106,"correct":false,"confidence":1},{"trial_n":79,"n_dots":2.75,"target":"right","response":"right","rt":864.19999998808,"correct":true,"confidence":1},{"trial_n":80,"n_dots":2.75,"target":"left","response":"left","rt":89.40000000596,"correct":true,"confidence":1},{"trial_n":81,"n_dots":2.65,"target":"right","response":"right","rt":524.70000000298,"correct":true,"confidence":1},{"trial_n":82,"n_dots":2.65,"target":"left","response":"left","rt":529.09999999404,"correct":true,"confidence":1},{"trial_n":83,"n_dots":2.55,"target":"left","response":"right","rt":262.89999999106,"correct":false,"confidence":1},{"trial_n":84,"n_dots":2.65,"target":"left","response":"left","rt":166.29999999702,"correct":true,"confidence":1},{"trial_n":85,"n_dots":2.65,"target":"left","response":"left","rt":-1.7999999970198,"correct":true,"confidence":1},{"trial_n":86,"n_dots":2.55,"target":"left","response":"right","rt":845,"correct":false,"confidence":1},{"trial_n":87,"n_dots":2.65,"target":"left","response":"left","rt":397.70000000298,"correct":true,"confidence":1},{"trial_n":88,"n_dots":2.65,"target":"right","response":"right","rt":1087.900000006,"correct":true,"confidence":1},{"trial_n":89,"n_dots":2.55,"target":"right","response":"right","rt":646,"correct":true,"confidence":1},{"trial_n":90,"n_dots":2.55,"target":"right","response":"left","rt":141.29999999702,"correct":false,"confidence":1},{"trial_n":91,"n_dots":2.65,"target":"right","response":"right","rt":40.70000000298,"correct":true,"confidence":1},{"trial_n":92,"n_dots":2.65,"target":"right","response":"left","rt":572.20000000298,"correct":false,"confidence":1},{"trial_n":93,"n_dots":2.75,"target":"right","response":"left","rt":250.30000001192,"correct":false,"confidence":1},{"trial_n":94,"n_dots":2.85,"target":"right","response":"right","rt":683.09999999404,"correct":true,"confidence":1},{"trial_n":95,"n_dots":2.85,"target":"left","response":"left","rt":232.40000000596,"correct":true,"confidence":1},{"trial_n":96,"n_dots":2.75,"target":"left","response":"right","rt":81.20000000298,"correct":false,"confidence":1},{"trial_n":97,"n_dots":2.85,"target":"left","response":"right","rt":129.5,"correct":false,"confidence":1},{"trial_n":98,"n_dots":2.95,"target":"right","response":"right","rt":97.699999988079,"correct":true,"confidence":1},{"trial_n":99,"n_dots":2.95,"target":"left","response":"right","rt":148.20000000298,"correct":false,"confidence":1},{"trial_n":100,"n_dots":3.05,"target":"right","response":"left","rt":106.09999999404,"correct":false,"confidence":1},{"trial_n":101,"n_dots":3.15,"target":"right","response":"right","rt":608.10000000894,"correct":true,"confidence":1},{"trial_n":102,"n_dots":3.15,"target":"left","response":"left","rt":378.29999999702,"correct":true,"confidence":1},{"trial_n":103,"n_dots":3.05,"target":"right","response":"right","rt":649,"correct":true,"confidence":1},{"trial_n":104,"n_dots":3.05,"target":"left","response":"left","rt":799.79999999702,"correct":true,"confidence":1},{"trial_n":105,"n_dots":2.95,"target":"right","response":"right","rt":242.09999999404,"correct":true,"confidence":1},{"trial_n":106,"n_dots":2.95,"target":"left","response":"right","rt":303.09999999404,"correct":false,"confidence":1},{"trial_n":107,"n_dots":3.05,"target":"right","response":"right","rt":178.79999999702,"correct":true,"confidence":1},{"trial_n":108,"n_dots":3.05,"target":"right","response":"right","rt":863.20000000298,"correct":true,"confidence":1},{"trial_n":109,"n_dots":2.95,"target":"left","response":"left","rt":267.5,"correct":true,"confidence":1},{"trial_n":110,"n_dots":2.95,"target":"left","response":"right","rt":525.5,"correct":false,"confidence":1},{"trial_n":111,"n_dots":3.05,"target":"left","response":"right","rt":103.10000000894,"correct":false,"confidence":1},{"trial_n":112,"n_dots":3.15,"target":"right","response":"left","rt":469.79999999702,"correct":false,"confidence":1},{"trial_n":113,"n_dots":3.25,"target":"left","response":"right","rt":44.40000000596,"correct":false,"confidence":1},{"trial_n":114,"n_dots":3.35,"target":"left","response":"left","rt":164.29999999702,"correct":true,"confidence":1},{"trial_n":115,"n_dots":3.35,"target":"right","response":"right","rt":237.5,"correct":true,"confidence":1},{"trial_n":116,"n_dots":3.25,"target":"left","response":"right","rt":203.89999999106,"correct":false,"confidence":1},{"trial_n":117,"n_dots":3.35,"target":"left","response":"left","rt":711.90000000596,"correct":true,"confidence":1},{"trial_n":118,"n_dots":3.35,"target":"left","response":"left","rt":232.20000000298,"correct":true,"confidence":1},{"trial_n":119,"n_dots":3.25,"target":"left","response":"left","rt":91.5,"correct":true,"confidence":1},{"trial_n":120,"n_dots":3.25,"target":"left","response":"left","rt":18.300000011921,"correct":true,"confidence":1},{"trial_n":121,"n_dots":3.15,"target":"right","response":"right","rt":607.5,"correct":true,"confidence":1},{"trial_n":122,"n_dots":3.15,"target":"left","response":"right","rt":851.79999999702,"correct":false,"confidence":1},{"trial_n":123,"n_dots":3.25,"target":"left","response":"left","rt":743.80000001192,"correct":true,"confidence":1},{"trial_n":124,"n_dots":3.25,"target":"left","response":"left","rt":649.79999999702,"correct":true,"confidence":1},{"trial_n":125,"n_dots":3.15,"target":"left","response":"left","rt":1160.700000003,"correct":true,"confidence":1},{"trial_n":126,"n_dots":3.15,"target":"right","response":"right","rt":78,"correct":true,"confidence":1},{"trial_n":127,"n_dots":3.05,"target":"right","response":"right","rt":80.59999999404,"correct":true,"confidence":1},{"trial_n":128,"n_dots":3.05,"target":"left","response":"right","rt":120.40000000596,"correct":false,"confidence":1},{"trial_n":129,"n_dots":3.15,"target":"left","response":"right","rt":158.09999999404,"correct":false,"confidence":1},{"trial_n":130,"n_dots":3.25,"target":"left","response":"left","rt":154.89999999106,"correct":true,"confidence":1},{"trial_n":131,"n_dots":3.25,"target":"right","response":"right","rt":51.79999999702,"correct":true,"confidence":1},{"trial_n":132,"n_dots":3.15,"target":"right","response":"right","rt":46.20000000298,"correct":true,"confidence":1},{"trial_n":133,"n_dots":3.15,"target":"left","response":"left","rt":288.40000000596,"correct":true,"confidence":1},{"trial_n":134,"n_dots":3.05,"target":"left","response":"left","rt":486.40000000596,"correct":true,"confidence":1},{"trial_n":135,"n_dots":3.05,"target":"left","response":"right","rt":46.100000008941,"correct":false,"confidence":1},{"trial_n":136,"n_dots":3.15,"target":"right","response":"right","rt":79.600000008941,"correct":true,"confidence":1},{"trial_n":137,"n_dots":3.15,"target":"left","response":"left","rt":17.70000000298,"correct":true,"confidence":1},{"trial_n":138,"n_dots":3.05,"target":"right","response":"right","rt":280.39999999106,"correct":true,"confidence":1},{"trial_n":139,"n_dots":3.05,"target":"right","response":"right","rt":179.40000000596,"correct":true,"confidence":1},{"trial_n":140,"n_dots":2.95,"target":"right","response":"right","rt":665.59999999404,"correct":true,"confidence":1},{"trial_n":141,"n_dots":2.95,"target":"right","response":"right","rt":229.5,"correct":true,"confidence":1},{"trial_n":142,"n_dots":2.85,"target":"right","response":"right","rt":625.70000000298,"correct":true,"confidence":1},{"trial_n":143,"n_dots":2.85,"target":"left","response":"left","rt":567.89999999106,"correct":true,"confidence":1},{"trial_n":144,"n_dots":2.75,"target":"right","response":"right","rt":517.89999999106,"correct":true,"confidence":1},{"trial_n":145,"n_dots":2.75,"target":"right","response":"right","rt":864.70000000298,"correct":true,"confidence":2},{"trial_n":146,"n_dots":2.65,"target":"right","response":"left","rt":517.59999999404,"correct":false,"confidence":2},{"trial_n":147,"n_dots":2.75,"target":"right","response":"right","rt":48.40000000596,"correct":true,"confidence":2},{"trial_n":148,"n_dots":2.75,"target":"left","response":"left","rt":377.89999999106,"correct":true,"confidence":2},{"trial_n":149,"n_dots":2.65,"target":"right","response":"right","rt":1509.8999999911,"correct":true,"confidence":2},{"trial_n":150,"n_dots":2.65,"target":"right","response":"left","rt":529.70000000298,"correct":false,"confidence":2},{"trial_n":151,"n_dots":2.75,"target":"right","response":"right","rt":505.70000000298,"correct":true,"confidence":5},{"trial_n":152,"n_dots":2.75,"target":"right","response":"left","rt":530.70000000298,"correct":false,"confidence":4},{"trial_n":153,"n_dots":2.85,"target":"left","response":"right","rt":186.5,"correct":false,"confidence":1},{"trial_n":154,"n_dots":2.95,"target":"left","response":"left","rt":550.09999999404,"correct":true,"confidence":1},{"trial_n":155,"n_dots":2.95,"target":"left","response":"left","rt":90,"correct":true,"confidence":3},{"trial_n":156,"n_dots":2.85,"target":"left","response":"right","rt":338.70000000298,"correct":false,"confidence":3},{"trial_n":157,"n_dots":2.95,"target":"left","response":"right","rt":300.29999999702,"correct":false,"confidence":1},{"trial_n":158,"n_dots":3.05,"target":"right","response":"left","rt":328.90000000596,"correct":false,"confidence":1},{"trial_n":159,"n_dots":3.15,"target":"left","response":"right","rt":215.60000000894,"correct":false,"confidence":1},{"trial_n":160,"n_dots":3.25,"target":"left","response":"left","rt":248.40000000596,"correct":true,"confidence":5},{"trial_n":161,"n_dots":3.25,"target":"left","response":"left","rt":514.79999999702,"correct":true,"confidence":4},{"trial_n":162,"n_dots":3.15,"target":"right","response":"right","rt":151.30000001192,"correct":true,"confidence":2},{"trial_n":163,"n_dots":3.15,"target":"right","response":"right","rt":348.29999999702,"correct":true,"confidence":2},{"trial_n":164,"n_dots":3.05,"target":"left","response":"left","rt":336.20000000298,"correct":true,"confidence":2},{"trial_n":165,"n_dots":3.05,"target":"left","response":"right","rt":188.90000000596,"correct":false,"confidence":5},{"trial_n":166,"n_dots":3.15,"target":"right","response":"right","rt":275.80000001192,"correct":true,"confidence":1},{"trial_n":167,"n_dots":3.15,"target":"left","response":"left","rt":87.899999991059,"correct":true,"confidence":4},{"trial_n":168,"n_dots":3.05,"target":"left","response":"left","rt":594.70000000298,"correct":true,"confidence":4},{"trial_n":169,"n_dots":3.05,"target":"left","response":"right","rt":275.39999999106,"correct":false,"confidence":3},{"trial_n":170,"n_dots":3.15,"target":"right","response":"left","rt":671.29999999702,"correct":false,"confidence":2},{"trial_n":171,"n_dots":3.25,"target":"right","response":"right","rt":46.29999999702,"correct":true,"confidence":5},{"trial_n":172,"n_dots":3.25,"target":"right","response":"left","rt":819.70000000298,"correct":false,"confidence":3},{"trial_n":173,"n_dots":3.35,"target":"right","response":"right","rt":507.89999999106,"correct":true,"confidence":4},{"trial_n":174,"n_dots":3.35,"target":"left","response":"right","rt":499.29999999702,"correct":false,"confidence":4},{"trial_n":175,"n_dots":3.45,"target":"right","response":"right","rt":895.5,"correct":true,"confidence":1},{"trial_n":176,"n_dots":3.45,"target":"right","response":"right","rt":661.09999999404,"correct":true,"confidence":3},{"trial_n":177,"n_dots":3.35,"target":"right","response":"right","rt":537.90000000596,"correct":true,"confidence":3},{"trial_n":178,"n_dots":3.35,"target":"right","response":"right","rt":130.5,"correct":true,"confidence":3},{"trial_n":179,"n_dots":3.25,"target":"right","response":"left","rt":496.60000000894,"correct":false,"confidence":3},{"trial_n":180,"n_dots":3.35,"target":"left","response":"left","rt":371.40000000596,"correct":true,"confidence":3},{"trial_n":181,"n_dots":3.35,"target":"right","response":"right","rt":166.90000000596,"correct":true,"confidence":3},{"trial_n":182,"n_dots":3.25,"target":"right","response":"left","rt":1123,"correct":false,"confidence":3},{"trial_n":183,"n_dots":3.35,"target":"left","response":"left","rt":535.90000000596,"correct":true,"confidence":1},{"trial_n":184,"n_dots":3.35,"target":"left","response":"left","rt":1430.5,"correct":true,"confidence":1},{"trial_n":185,"n_dots":3.25,"target":"left","response":"right","rt":432,"correct":false,"confidence":3},{"trial_n":186,"n_dots":3.35,"target":"right","response":"left","rt":153.10000000894,"correct":false,"confidence":1},{"trial_n":187,"n_dots":3.45,"target":"left","response":"right","rt":447.39999999106,"correct":false,"confidence":1},{"trial_n":188,"n_dots":3.55,"target":"right","response":"left","rt":653.5,"correct":false,"confidence":3},{"trial_n":189,"n_dots":3.65,"target":"left","response":"left","rt":166.69999998808,"correct":true,"confidence":4},{"trial_n":190,"n_dots":3.65,"target":"right","response":"right","rt":123.79999999702,"correct":true,"confidence":5},{"trial_n":191,"n_dots":3.55,"target":"left","response":"right","rt":147.90000000596,"correct":false,"confidence":1},{"trial_n":192,"n_dots":3.65,"target":"left","response":"left","rt":409.89999999106,"correct":true,"confidence":2},{"trial_n":193,"n_dots":3.65,"target":"right","response":"right","rt":475.39999999106,"correct":true,"confidence":2},{"trial_n":194,"n_dots":3.55,"target":"right","response":"right","rt":531.29999999702,"correct":true,"confidence":2}]