[{"trial_n":1,"n_dots":4.25,"target":"left","response":"left","rt":3576.0000000001,"correct":true,"confidence":-1},{"trial_n":2,"n_dots":4.25,"target":"right","response":"right","rt":1099,"correct":true,"confidence":-1},{"trial_n":3,"n_dots":3.85,"target":"left","response":"left","rt":749,"correct":true,"confidence":-1},{"trial_n":4,"n_dots":3.85,"target":"right","response":"right","rt":350.00000000006,"correct":true,"confidence":-1},{"trial_n":5,"n_dots":3.45,"target":"right","response":"left","rt":701,"correct":false,"confidence":-1},{"trial_n":6,"n_dots":3.85,"target":"left","response":"right","rt":665,"correct":false,"confidence":-1},{"trial_n":7,"n_dots":4.25,"target":"left","response":"left","rt":686.00000000006,"correct":true,"confidence":-1},{"trial_n":8,"n_dots":4.25,"target":"left","response":"left","rt":784,"correct":true,"confidence":-1},{"trial_n":9,"n_dots":4.05,"target":"right","response":"right","rt":533,"correct":true,"confidence":-1},{"trial_n":10,"n_dots":4.05,"target":"left","response":"left","rt":550,"correct":true,"confidence":-1},{"trial_n":11,"n_dots":3.85,"target":"left","response":"right","rt":647.99999999994,"correct":false,"confidence":-1},{"trial_n":12,"n_dots":4.05,"target":"left","response":"left","rt":750,"correct":true,"confidence":-1},{"trial_n":13,"n_dots":4.05,"target":"left","response":"right","rt":933,"correct":false,"confidence":-1},{"trial_n":14,"n_dots":4.15,"target":"left","response":"left","rt":667,"correct":true,"confidence":-1},{"trial_n":15,"n_dots":4.15,"target":"left","response":"left","rt":750,"correct":true,"confidence":-1},{"trial_n":16,"n_dots":4.05,"target":"left","response":"left","rt":685,"correct":true,"confidence":-1},{"trial_n":17,"n_dots":4.05,"target":"left","response":"left","rt":584,"correct":true,"confidence":-1},{"trial_n":18,"n_dots":3.95,"target":"right","response":"right","rt":634.99999999994,"correct":true,"confidence":-1},{"trial_n":19,"n_dots":3.95,"target":"right","response":"right","rt":650,"correct":true,"confidence":-1},{"trial_n":20,"n_dots":3.85,"target":"right","response":"left","rt":700,"correct":false,"confidence":-1},{"trial_n":21,"n_dots":3.95,"target":"left","response":"left","rt":683,"correct":true,"confidence":-1},{"trial_n":22,"n_dots":3.95,"target":"left","response":"left","rt":484,"correct":true,"confidence":-1},{"trial_n":23,"n_dots":3.85,"target":"left","response":"left","rt":687,"correct":true,"confidence":-1},{"trial_n":24,"n_dots":3.85,"target":"right","response":"right","rt":769,"correct":true,"confidence":-1},{"trial_n":25,"n_dots":3.75,"target":"left","response":"left","rt":597,"correct":true,"confidence":-1},{"trial_n":26,"n_dots":3.75,"target":"right","response":"right","rt":501,"correct":true,"confidence":-1},{"trial_n":27,"n_dots":3.65,"target":"right","response":"right","rt":770.00000000006,"correct":true,"confidence":4},{"trial_n":28,"n_dots":3.65,"target":"left","response":"left","rt":385,"correct":true,"confidence":5},{"trial_n":29,"n_dots":3.55,"target":"left","response":"left","rt":536,"correct":true,"confidence":5},{"trial_n":30,"n_dots":3.55,"target":"left","response":"left","rt":454,"correct":true,"confidence":4},{"trial_n":31,"n_dots":3.45,"target":"right","response":"right","rt":417,"correct":true,"confidence":5},{"trial_n":32,"n_dots":3.45,"target":"left","response":"left","rt":554,"correct":true,"confidence":4},{"trial_n":33,"n_dots":3.35,"target":"right","response":"left","rt":472,"correct":false,"confidence":1},{"trial_n":34,"n_dots":3.45,"target":"right","response":"right","rt":553,"correct":true,"confidence":3},{"trial_n":35,"n_dots":3.45,"target":"left","response":"left","rt":604.99999999994,"correct":true,"confidence":3},{"trial_n":36,"n_dots":3.35,"target":"left","response":"left","rt":569.99999999994,"correct":true,"confidence":6},{"trial_n":37,"n_dots":3.35,"target":"left","response":"left","rt":735,"correct":true,"confidence":4},{"trial_n":38,"n_dots":3.25,"target":"right","response":"left","rt":836,"correct":false,"confidence":3},{"trial_n":39,"n_dots":3.35,"target":"left","response":"left","rt":620,"correct":true,"confidence":6},{"trial_n":40,"n_dots":3.35,"target":"left","response":"left","rt":654.99999999994,"correct":true,"confidence":5},{"trial_n":41,"n_dots":3.25,"target":"left","response":"left","rt":669,"correct":true,"confidence":3},{"trial_n":42,"n_dots":3.25,"target":"left","response":"left","rt":688,"correct":true,"confidence":4},{"trial_n":43,"n_dots":3.15,"target":"left","response":"left","rt":652.99999999994,"correct":true,"confidence":2},{"trial_n":44,"n_dots":3.15,"target":"right","response":"right","rt":421,"correct":true,"confidence":4},{"trial_n":45,"n_dots":3.05,"target":"left","response":"left","rt":671,"correct":true,"confidence":2},{"trial_n":46,"n_dots":3.05,"target":"right","response":"right","rt":403,"correct":true,"confidence":5},{"trial_n":47,"n_dots":2.95,"target":"right","response":"right","rt":719,"correct":true,"confidence":4},{"trial_n":48,"n_dots":2.95,"target":"right","response":"right","rt":669,"correct":true,"confidence":4},{"trial_n":49,"n_dots":2.85,"target":"right","response":"left","rt":702.99999999994,"correct":false,"confidence":3},{"trial_n":50,"n_dots":2.95,"target":"left","response":"left","rt":539,"correct":true,"confidence":4},{"trial_n":51,"n_dots":2.95,"target":"right","response":"right","rt":453.99999999994,"correct":true,"confidence":5},{"trial_n":52,"n_dots":2.85,"target":"left","response":"right","rt":271.00000000006,"correct":false,"confidence":5},{"trial_n":53,"n_dots":2.95,"target":"right","response":"left","rt":620.99999999994,"correct":false,"confidence":3},{"trial_n":54,"n_dots":3.05,"target":"left","response":"left","rt":537,"correct":true,"confidence":3},{"trial_n":55,"n_dots":3.05,"target":"left","response":"right","rt":770.99999999988,"correct":false,"confidence":2},{"trial_n":56,"n_dots":3.15,"target":"left","response":"left","rt":588,"correct":true,"confidence":5},{"trial_n":57,"n_dots":3.15,"target":"right","response":"left","rt":655,"correct":false,"confidence":4},{"trial_n":58,"n_dots":3.25,"target":"right","response":"right","rt":554,"correct":true,"confidence":1},{"trial_n":59,"n_dots":3.25,"target":"left","response":"left","rt":487.00000000012,"correct":true,"confidence":4},{"trial_n":60,"n_dots":3.15,"target":"left","response":"left","rt":754.00000000012,"correct":true,"confidence":2},{"trial_n":61,"n_dots":3.15,"target":"left","response":"left","rt":538,"correct":true,"confidence":2},{"trial_n":62,"n_dots":3.05,"target":"right","response":"right","rt":603,"correct":true,"confidence":2},{"trial_n":63,"n_dots":3.05,"target":"left","response":"left","rt":436,"correct":true,"confidence":4},{"trial_n":64,"n_dots":2.95,"target":"left","response":"left","rt":586,"correct":true,"confidence":4},{"trial_n":65,"n_dots":2.95,"target":"right","response":"left","rt":853,"correct":false,"confidence":1},{"trial_n":66,"n_dots":3.05,"target":"right","response":"right","rt":537,"correct":true,"confidence":3},{"trial_n":67,"n_dots":3.05,"target":"left","response":"left","rt":738.99999999988,"correct":true,"confidence":3},{"trial_n":68,"n_dots":2.95,"target":"right","response":"right","rt":218,"correct":true,"confidence":4},{"trial_n":69,"n_dots":2.95,"target":"right","response":"right","rt":205.99999999988,"correct":true,"confidence":4},{"trial_n":70,"n_dots":2.85,"target":"left","response":"left","rt":372,"correct":true,"confidence":1},{"trial_n":71,"n_dots":2.85,"target":"left","response":"right","rt":226,"correct":false,"confidence":4},{"trial_n":72,"n_dots":2.95,"target":"right","response":"left","rt":121,"correct":false,"confidence":1},{"trial_n":73,"n_dots":3.05,"target":"right","response":"right","rt":121,"correct":true,"confidence":4},{"trial_n":74,"n_dots":3.05,"target":"left","response":"left","rt":540,"correct":true,"confidence":4},{"trial_n":75,"n_dots":2.95,"target":"right","response":"right","rt":322,"correct":true,"confidence":3},{"trial_n":76,"n_dots":2.95,"target":"right","response":"right","rt":370.99999999988,"correct":true,"confidence":4},{"trial_n":77,"n_dots":2.85,"target":"right","response":"right","rt":440,"correct":true,"confidence":3},{"trial_n":78,"n_dots":2.85,"target":"right","response":"left","rt":504,"correct":false,"confidence":4},{"trial_n":79,"n_dots":2.95,"target":"right","response":"right","rt":703.99999999988,"correct":true,"confidence":4},{"trial_n":80,"n_dots":2.95,"target":"right","response":"right","rt":353,"correct":true,"confidence":4},{"trial_n":81,"n_dots":2.85,"target":"right","response":"left","rt":1338,"correct":false,"confidence":1},{"trial_n":82,"n_dots":2.95,"target":"right","response":"left","rt":720,"correct":false,"confidence":1},{"trial_n":83,"n_dots":3.05,"target":"left","response":"left","rt":587,"correct":true,"confidence":3},{"trial_n":84,"n_dots":3.05,"target":"right","response":"right","rt":620,"correct":true,"confidence":3},{"trial_n":85,"n_dots":2.95,"target":"left","response":"right","rt":552,"correct":false,"confidence":3},{"trial_n":86,"n_dots":3.05,"target":"right","response":"right","rt":205,"correct":true,"confidence":3},{"trial_n":87,"n_dots":3.05,"target":"right","response":"left","rt":505,"correct":false,"confidence":3},{"trial_n":88,"n_dots":3.15,"target":"left","response":"right","rt":155,"correct":false,"confidence":3},{"trial_n":89,"n_dots":3.25,"target":"right","response":"right","rt":255,"correct":true,"confidence":3},{"trial_n":90,"n_dots":3.25,"target":"right","response":"right","rt":239,"correct":true,"confidence":3},{"trial_n":91,"n_dots":3.15,"target":"right","response":"right","rt":104,"correct":true,"confidence":3},{"trial_n":92,"n_dots":3.15,"target":"left","response":"right","rt":1175,"correct":false,"confidence":3},{"trial_n":93,"n_dots":3.25,"target":"right","response":"left","rt":339.00000000012,"correct":false,"confidence":3},{"trial_n":94,"n_dots":3.35,"target":"right","response":"left","rt":193.00000000012,"correct":false,"confidence":3},{"trial_n":95,"n_dots":3.45,"target":"left","response":"right","rt":1293.0000000001,"correct":false,"confidence":2},{"trial_n":96,"n_dots":3.55,"target":"right","response":"right","rt":191,"correct":true,"confidence":3},{"trial_n":97,"n_dots":3.55,"target":"left","response":"left","rt":239,"correct":true,"confidence":3},{"trial_n":98,"n_dots":3.45,"target":"right","response":"right","rt":252,"correct":true,"confidence":2},{"trial_n":99,"n_dots":3.45,"target":"left","response":"left","rt":55.000000000116,"correct":true,"confidence":3},{"trial_n":100,"n_dots":3.35,"target":"right","response":"right","rt":423,"correct":true,"confidence":3},{"trial_n":101,"n_dots":3.35,"target":"left","response":"left","rt":857,"correct":true,"confidence":3},{"trial_n":102,"n_dots":3.25,"target":"right","response":"right","rt":107,"correct":true,"confidence":3},{"trial_n":103,"n_dots":3.25,"target":"right","response":"left","rt":141,"correct":false,"confidence":3},{"trial_n":104,"n_dots":3.35,"target":"right","response":"left","rt":1123,"correct":false,"confidence":3},{"trial_n":105,"n_dots":3.45,"target":"right","response":"left","rt":1005,"correct":false,"confidence":4},{"trial_n":106,"n_dots":3.55,"target":"right","response":"right","rt":557.00000000012,"correct":true,"confidence":1},{"trial_n":107,"n_dots":3.55,"target":"left","response":"left","rt":124,"correct":true,"confidence":2},{"trial_n":108,"n_dots":3.45,"target":"right","response":"right","rt":139,"correct":true,"confidence":3},{"trial_n":109,"n_dots":3.45,"target":"right","response":"right","rt":55,"correct":true,"confidence":3},{"trial_n":110,"n_dots":3.35,"target":"left","response":"left","rt":275.00000000012,"correct":true,"confidence":3},{"trial_n":111,"n_dots":3.35,"target":"left","response":"right","rt":43,"correct":false,"confidence":3},{"trial_n":112,"n_dots":3.45,"target":"right","response":"right","rt":107,"correct":true,"confidence":3},{"trial_n":113,"n_dots":3.45,"target":"right","response":"right","rt":107.00000000012,"correct":true,"confidence":3},{"trial_n":114,"n_dots":3.35,"target":"right","response":"right","rt":207,"correct":true,"confidence":3},{"trial_n":115,"n_dots":3.35,"target":"right","response":"right","rt":482,"correct":true,"confidence":3},{"trial_n":116,"n_dots":3.25,"target":"left","response":"left","rt":140,"correct":true,"confidence":3},{"trial_n":117,"n_dots":3.25,"target":"right","response":"left","rt":141,"correct":false,"confidence":3},{"trial_n":118,"n_dots":3.35,"target":"left","response":"left","rt":1005,"correct":true,"confidence":3},{"trial_n":119,"n_dots":3.35,"target":"left","response":"left","rt":139,"correct":true,"confidence":3},{"trial_n":120,"n_dots":3.25,"target":"left","response":"right","rt":587,"correct":false,"confidence":2},{"trial_n":121,"n_dots":3.35,"target":"right","response":"right","rt":541,"correct":true,"confidence":2},{"trial_n":122,"n_dots":3.35,"target":"left","response":"right","rt":1238.0000000001,"correct":false,"confidence":1},{"trial_n":123,"n_dots":3.45,"target":"right","response":"right","rt":591,"correct":true,"confidence":3},{"trial_n":124,"n_dots":3.45,"target":"left","response":"left","rt":655,"correct":true,"confidence":1},{"trial_n":125,"n_dots":3.35,"target":"left","response":"left","rt":77,"correct":true,"confidence":2},{"trial_n":126,"n_dots":3.35,"target":"right","response":"right","rt":592,"correct":true,"confidence":1},{"trial_n":127,"n_dots":3.25,"target":"right","response":"left","rt":324,"correct":false,"confidence":1},{"trial_n":128,"n_dots":3.35,"target":"left","response":"right","rt":41.000000000116,"correct":false,"confidence":3},{"trial_n":129,"n_dots":3.45,"target":"left","response":"left","rt":75,"correct":true,"confidence":3},{"trial_n":130,"n_dots":3.45,"target":"right","response":"right","rt":139,"correct":true,"confidence":2},{"trial_n":131,"n_dots":3.35,"target":"right","response":"left","rt":809,"correct":false,"confidence":2},{"trial_n":132,"n_dots":3.45,"target":"left","response":"left","rt":1176,"correct":true,"confidence":1},{"trial_n":133,"n_dots":3.45,"target":"right","response":"right","rt":1038,"correct":true,"confidence":1},{"trial_n":134,"n_dots":3.35,"target":"left","response":"left","rt":103.00000000012,"correct":true,"confidence":2},{"trial_n":135,"n_dots":3.35,"target":"left","response":"left","rt":194,"correct":true,"confidence":6},{"trial_n":136,"n_dots":3.25,"target":"right","response":"right","rt":1714,"correct":true,"confidence":2},{"trial_n":137,"n_dots":3.25,"target":"left","response":"left","rt":1341.9999999999,"correct":true,"confidence":3},{"trial_n":138,"n_dots":3.15,"target":"left","response":"left","rt":1103,"correct":true,"confidence":3},{"trial_n":139,"n_dots":3.15,"target":"right","response":"right","rt":425,"correct":true,"confidence":2},{"trial_n":140,"n_dots":3.05,"target":"right","response":"right","rt":1060,"correct":true,"confidence":4},{"trial_n":141,"n_dots":3.05,"target":"right","response":"left","rt":958,"correct":false,"confidence":2},{"trial_n":142,"n_dots":3.15,"target":"left","response":"right","rt":957,"correct":false,"confidence":1},{"trial_n":143,"n_dots":3.25,"target":"left","response":"left","rt":167,"correct":true,"confidence":5},{"trial_n":144,"n_dots":3.25,"target":"right","response":"right","rt":828,"correct":true,"confidence":4},{"trial_n":145,"n_dots":3.15,"target":"left","response":"right","rt":844,"correct":false,"confidence":1},{"trial_n":146,"n_dots":3.25,"target":"left","response":"left","rt":1131,"correct":true,"confidence":2},{"trial_n":147,"n_dots":3.25,"target":"left","response":"right","rt":782.99999999988,"correct":false,"confidence":1},{"trial_n":148,"n_dots":3.35,"target":"left","response":"left","rt":731,"correct":true,"confidence":6},{"trial_n":149,"n_dots":3.35,"target":"left","response":"left","rt":1050,"correct":true,"confidence":6},{"trial_n":150,"n_dots":3.25,"target":"right","response":"right","rt":563,"correct":true,"confidence":6},{"trial_n":151,"n_dots":3.25,"target":"right","response":"right","rt":823,"correct":true,"confidence":5},{"trial_n":152,"n_dots":3.15,"target":"right","response":"right","rt":760,"correct":true,"confidence":5},{"trial_n":153,"n_dots":3.15,"target":"left","response":"left","rt":530,"correct":true,"confidence":4},{"trial_n":154,"n_dots":3.05,"target":"left","response":"right","rt":393.00000000012,"correct":false,"confidence":2},{"trial_n":155,"n_dots":3.15,"target":"left","response":"left","rt":401,"correct":true,"confidence":4},{"trial_n":156,"n_dots":3.15,"target":"right","response":"right","rt":329,"correct":true,"confidence":3},{"trial_n":157,"n_dots":3.05,"target":"left","response":"right","rt":1303,"correct":false,"confidence":1},{"trial_n":158,"n_dots":3.15,"target":"right","response":"right","rt":1894,"correct":true,"confidence":1},{"trial_n":159,"n_dots":3.15,"target":"left","response":"left","rt":857.00000000012,"correct":true,"confidence":4},{"trial_n":160,"n_dots":3.05,"target":"right","response":"right","rt":392,"correct":true,"confidence":5},{"trial_n":161,"n_dots":3.05,"target":"right","response":"right","rt":584.00000000012,"correct":true,"confidence":4},{"trial_n":162,"n_dots":2.95,"target":"left","response":"left","rt":927,"correct":true,"confidence":2},{"trial_n":163,"n_dots":2.95,"target":"right","response":"right","rt":734,"correct":true,"confidence":5},{"trial_n":164,"n_dots":2.85,"target":"right","response":"right","rt":738.00000000012,"correct":true,"confidence":5},{"trial_n":165,"n_dots":2.85,"target":"right","response":"right","rt":1178,"correct":true,"confidence":4},{"trial_n":166,"n_dots":2.75,"target":"right","response":"right","rt":851,"correct":true,"confidence":4},{"trial_n":167,"n_dots":2.75,"target":"right","response":"right","rt":614,"correct":true,"confidence":4},{"trial_n":168,"n_dots":2.65,"target":"right","response":"left","rt":383.99999999988,"correct":false,"confidence":2},{"trial_n":169,"n_dots":2.75,"target":"left","response":"right","rt":745,"correct":false,"confidence":2},{"trial_n":170,"n_dots":2.85,"target":"right","response":"right","rt":705,"correct":true,"confidence":4},{"trial_n":171,"n_dots":2.85,"target":"left","response":"left","rt":791,"correct":true,"confidence":2},{"trial_n":172,"n_dots":2.75,"target":"right","response":"right","rt":677,"correct":true,"confidence":3},{"trial_n":173,"n_dots":2.75,"target":"right","response":"right","rt":160,"correct":true,"confidence":3},{"trial_n":174,"n_dots":2.65,"target":"left","response":"right","rt":199,"correct":false,"confidence":2},{"trial_n":175,"n_dots":2.75,"target":"right","response":"right","rt":68.999999999884,"correct":true,"confidence":3},{"trial_n":176,"n_dots":2.75,"target":"left","response":"left","rt":792,"correct":true,"confidence":3},{"trial_n":177,"n_dots":2.65,"target":"left","response":"right","rt":136.00000000012,"correct":false,"confidence":3},{"trial_n":178,"n_dots":2.75,"target":"right","response":"right","rt":622.00000000012,"correct":true,"confidence":3},{"trial_n":179,"n_dots":2.75,"target":"left","response":"left","rt":300,"correct":true,"confidence":1},{"trial_n":180,"n_dots":2.65,"target":"right","response":"right","rt":531,"correct":true,"confidence":2},{"trial_n":181,"n_dots":2.65,"target":"left","response":"left","rt":1698.0000000001,"correct":true,"confidence":2},{"trial_n":182,"n_dots":2.55,"target":"left","response":"right","rt":130,"correct":false,"confidence":3},{"trial_n":183,"n_dots":2.65,"target":"right","response":"left","rt":418,"correct":false,"confidence":2},{"trial_n":184,"n_dots":2.75,"target":"right","response":"left","rt":316,"correct":false,"confidence":3},{"trial_n":185,"n_dots":2.85,"target":"left","response":"left","rt":433,"correct":true,"confidence":3},{"trial_n":186,"n_dots":2.85,"target":"right","response":"right","rt":801.99999999988,"correct":true,"confidence":4},{"trial_n":187,"n_dots":2.75,"target":"right","response":"left","rt":331,"correct":false,"confidence":3},{"trial_n":188,"n_dots":2.85,"target":"left","response":"left","rt":275,"correct":true,"confidence":3},{"trial_n":189,"n_dots":2.85,"target":"left","response":"left","rt":833,"correct":true,"confidence":3},{"trial_n":190,"n_dots":2.75,"target":"left","response":"right","rt":1294,"correct":false,"confidence":4},{"trial_n":191,"n_dots":2.85,"target":"left","response":"right","rt":635,"correct":false,"confidence":3},{"trial_n":192,"n_dots":2.95,"target":"left","response":"left","rt":256,"correct":true,"confidence":3},{"trial_n":193,"n_dots":2.95,"target":"left","response":"left","rt":411,"correct":true,"confidence":3},{"trial_n":194,"n_dots":2.85,"target":"right","response":"right","rt":834,"correct":true,"confidence":4}]