[{"trial_n":1,"n_dots":4.25,"target":"right","response":"left","rt":5022.1999999993,"correct":false,"confidence":-1},{"trial_n":2,"n_dots":4.25,"target":"left","response":"left","rt":33,"correct":true,"confidence":-1},{"trial_n":3,"n_dots":4.25,"target":"left","response":"left","rt":650.09999999776,"correct":true,"confidence":-1},{"trial_n":4,"n_dots":3.85,"target":"left","response":"left","rt":72.699999999255,"correct":true,"confidence":-1},{"trial_n":5,"n_dots":3.85,"target":"right","response":"left","rt":286.80000000075,"correct":false,"confidence":-1},{"trial_n":6,"n_dots":4.25,"target":"left","response":"left","rt":181.80000000075,"correct":true,"confidence":-1},{"trial_n":7,"n_dots":4.25,"target":"right","response":"right","rt":233.30000000075,"correct":true,"confidence":-1},{"trial_n":8,"n_dots":4.05,"target":"left","response":"left","rt":203.79999999702,"correct":true,"confidence":-1},{"trial_n":9,"n_dots":4.05,"target":"right","response":"right","rt":63,"correct":true,"confidence":-1},{"trial_n":10,"n_dots":3.85,"target":"right","response":"left","rt":36.89999999851,"correct":false,"confidence":-1},{"trial_n":11,"n_dots":4.05,"target":"right","response":"right","rt":176.80000000075,"correct":true,"confidence":-1},{"trial_n":12,"n_dots":4.05,"target":"left","response":"left","rt":215.19999999925,"correct":true,"confidence":-1},{"trial_n":13,"n_dots":3.95,"target":"right","response":"right","rt":364.60000000149,"correct":true,"confidence":-1},{"trial_n":14,"n_dots":3.95,"target":"left","response":"left","rt":202.10000000149,"correct":true,"confidence":-1},{"trial_n":15,"n_dots":3.85,"target":"right","response":"left","rt":270.80000000075,"correct":false,"confidence":-1},{"trial_n":16,"n_dots":3.95,"target":"left","response":"left","rt":277.5,"correct":true,"confidence":-1},{"trial_n":17,"n_dots":3.95,"target":"right","response":"left","rt":275.19999999925,"correct":false,"confidence":-1},{"trial_n":18,"n_dots":4.05,"target":"left","response":"left","rt":184,"correct":true,"confidence":-1},{"trial_n":19,"n_dots":4.05,"target":"right","response":"right","rt":190,"correct":true,"confidence":-1},{"trial_n":20,"n_dots":3.95,"target":"right","response":"right","rt":204.69999999925,"correct":true,"confidence":-1},{"trial_n":21,"n_dots":3.95,"target":"right","response":"left","rt":109.19999999925,"correct":false,"confidence":-1},{"trial_n":22,"n_dots":4.05,"target":"left","response":"left","rt":189.69999999925,"correct":true,"confidence":-1},{"trial_n":23,"n_dots":4.05,"target":"right","response":"right","rt":92.800000000745,"correct":true,"confidence":-1},{"trial_n":24,"n_dots":3.95,"target":"left","response":"left","rt":194.79999999702,"correct":true,"confidence":-1},{"trial_n":25,"n_dots":3.95,"target":"left","response":"left","rt":217,"correct":true,"confidence":-1},{"trial_n":26,"n_dots":3.85,"target":"left","response":"right","rt":105.29999999702,"correct":false,"confidence":-1},{"trial_n":27,"n_dots":3.95,"target":"left","response":"left","rt":446.39999999851,"correct":true,"confidence":5},{"trial_n":28,"n_dots":3.95,"target":"right","response":"right","rt":65.099999997765,"correct":true,"confidence":4},{"trial_n":29,"n_dots":3.85,"target":"right","response":"left","rt":207.19999999925,"correct":false,"confidence":2},{"trial_n":30,"n_dots":3.95,"target":"left","response":"left","rt":239,"correct":true,"confidence":5},{"trial_n":31,"n_dots":3.95,"target":"left","response":"left","rt":311,"correct":true,"confidence":6},{"trial_n":32,"n_dots":3.85,"target":"right","response":"right","rt":299.89999999851,"correct":true,"confidence":5},{"trial_n":33,"n_dots":3.85,"target":"left","response":"left","rt":243.79999999702,"correct":true,"confidence":4},{"trial_n":34,"n_dots":3.75,"target":"left","response":"left","rt":289.89999999851,"correct":true,"confidence":5},{"trial_n":35,"n_dots":3.75,"target":"right","response":"right","rt":242.89999999851,"correct":true,"confidence":5},{"trial_n":36,"n_dots":3.65,"target":"left","response":"left","rt":263.19999999925,"correct":true,"confidence":4},{"trial_n":37,"n_dots":3.65,"target":"right","response":"right","rt":219.79999999702,"correct":true,"confidence":6},{"trial_n":38,"n_dots":3.55,"target":"right","response":"left","rt":631.59999999776,"correct":false,"confidence":5},{"trial_n":39,"n_dots":3.65,"target":"left","response":"left","rt":275.19999999925,"correct":true,"confidence":5},{"trial_n":40,"n_dots":3.65,"target":"left","response":"left","rt":241.89999999851,"correct":true,"confidence":4},{"trial_n":41,"n_dots":3.55,"target":"right","response":"right","rt":569.30000000075,"correct":true,"confidence":5},{"trial_n":42,"n_dots":3.55,"target":"left","response":"left","rt":329.30000000075,"correct":true,"confidence":5},{"trial_n":43,"n_dots":3.45,"target":"right","response":"left","rt":525,"correct":false,"confidence":4},{"trial_n":44,"n_dots":3.55,"target":"left","response":"left","rt":304.19999999925,"correct":true,"confidence":5},{"trial_n":45,"n_dots":3.55,"target":"left","response":"left","rt":225.19999999925,"correct":true,"confidence":5},{"trial_n":46,"n_dots":3.45,"target":"right","response":"right","rt":264.89999999851,"correct":true,"confidence":4},{"trial_n":47,"n_dots":3.45,"target":"left","response":"left","rt":270.5,"correct":true,"confidence":5},{"trial_n":48,"n_dots":3.35,"target":"left","response":"left","rt":296.79999999702,"correct":true,"confidence":5},{"trial_n":49,"n_dots":3.35,"target":"left","response":"left","rt":283,"correct":true,"confidence":5},{"trial_n":50,"n_dots":3.25,"target":"left","response":"left","rt":483.69999999925,"correct":true,"confidence":4},{"trial_n":51,"n_dots":3.25,"target":"right","response":"left","rt":248.90000000224,"correct":false,"confidence":5},{"trial_n":52,"n_dots":3.35,"target":"left","response":"left","rt":290.69999999925,"correct":true,"confidence":4},{"trial_n":53,"n_dots":3.35,"target":"right","response":"right","rt":282.5,"correct":true,"confidence":3},{"trial_n":54,"n_dots":3.25,"target":"left","response":"left","rt":305.59999999776,"correct":true,"confidence":5},{"trial_n":55,"n_dots":3.25,"target":"right","response":"right","rt":439.79999999702,"correct":true,"confidence":4},{"trial_n":56,"n_dots":3.15,"target":"right","response":"left","rt":532.39999999851,"correct":false,"confidence":6},{"trial_n":57,"n_dots":3.25,"target":"left","response":"right","rt":314.5,"correct":false,"confidence":3},{"trial_n":58,"n_dots":3.35,"target":"left","response":"left","rt":204.10000000149,"correct":true,"confidence":4},{"trial_n":59,"n_dots":3.35,"target":"right","response":"right","rt":367,"correct":true,"confidence":6},{"trial_n":60,"n_dots":3.25,"target":"right","response":"right","rt":353.89999999851,"correct":true,"confidence":6},{"trial_n":61,"n_dots":3.25,"target":"right","response":"right","rt":134.10000000149,"correct":true,"confidence":6},{"trial_n":62,"n_dots":3.15,"target":"right","response":"right","rt":265.79999999702,"correct":true,"confidence":4},{"trial_n":63,"n_dots":3.15,"target":"right","response":"right","rt":239.20000000298,"correct":true,"confidence":5},{"trial_n":64,"n_dots":3.05,"target":"right","response":"left","rt":201.80000000075,"correct":false,"confidence":3},{"trial_n":65,"n_dots":3.15,"target":"left","response":"left","rt":249.89999999851,"correct":true,"confidence":4},{"trial_n":66,"n_dots":3.15,"target":"right","response":"right","rt":219.69999999925,"correct":true,"confidence":4},{"trial_n":67,"n_dots":3.05,"target":"left","response":"left","rt":284.39999999851,"correct":true,"confidence":4},{"trial_n":68,"n_dots":3.05,"target":"left","response":"left","rt":227.89999999851,"correct":true,"confidence":3},{"trial_n":69,"n_dots":2.95,"target":"right","response":"right","rt":666.89999999851,"correct":true,"confidence":4},{"trial_n":70,"n_dots":2.95,"target":"left","response":"left","rt":222.69999999925,"correct":true,"confidence":4},{"trial_n":71,"n_dots":2.85,"target":"right","response":"left","rt":255.89999999851,"correct":false,"confidence":4},{"trial_n":72,"n_dots":2.95,"target":"left","response":"left","rt":333.30000000075,"correct":true,"confidence":3},{"trial_n":73,"n_dots":2.95,"target":"left","response":"left","rt":394,"correct":true,"confidence":4},{"trial_n":74,"n_dots":2.85,"target":"left","response":"left","rt":656.30000000075,"correct":true,"confidence":3},{"trial_n":75,"n_dots":2.85,"target":"right","response":"left","rt":260.10000000149,"correct":false,"confidence":4},{"trial_n":76,"n_dots":2.95,"target":"right","response":"right","rt":321,"correct":true,"confidence":3},{"trial_n":77,"n_dots":2.95,"target":"right","response":"left","rt":310.39999999851,"correct":false,"confidence":4},{"trial_n":78,"n_dots":3.05,"target":"left","response":"left","rt":262.69999999925,"correct":true,"confidence":3},{"trial_n":79,"n_dots":3.05,"target":"left","response":"left","rt":354.20000000298,"correct":true,"confidence":4},{"trial_n":80,"n_dots":2.95,"target":"right","response":"right","rt":370.69999999925,"correct":true,"confidence":4},{"trial_n":81,"n_dots":2.95,"target":"left","response":"left","rt":329.89999999851,"correct":true,"confidence":5},{"trial_n":82,"n_dots":2.85,"target":"right","response":"left","rt":151.5,"correct":false,"confidence":4},{"trial_n":83,"n_dots":2.95,"target":"right","response":"right","rt":239.79999999702,"correct":true,"confidence":5},{"trial_n":84,"n_dots":2.95,"target":"right","response":"left","rt":268.30000000075,"correct":false,"confidence":3},{"trial_n":85,"n_dots":3.05,"target":"left","response":"right","rt":640.39999999851,"correct":false,"confidence":3},{"trial_n":86,"n_dots":3.15,"target":"right","response":"left","rt":115.39999999851,"correct":false,"confidence":5},{"trial_n":87,"n_dots":3.25,"target":"left","response":"left","rt":127.89999999851,"correct":true,"confidence":5},{"trial_n":88,"n_dots":3.25,"target":"right","response":"left","rt":212.69999999925,"correct":false,"confidence":4},{"trial_n":89,"n_dots":3.35,"target":"right","response":"right","rt":401.89999999851,"correct":true,"confidence":5},{"trial_n":90,"n_dots":3.35,"target":"right","response":"left","rt":224.19999999925,"correct":false,"confidence":5},{"trial_n":91,"n_dots":3.45,"target":"right","response":"right","rt":213.90000000224,"correct":true,"confidence":4},{"trial_n":92,"n_dots":3.45,"target":"right","response":"right","rt":363.40000000224,"correct":true,"confidence":4},{"trial_n":93,"n_dots":3.35,"target":"left","response":"left","rt":273.39999999851,"correct":true,"confidence":4},{"trial_n":94,"n_dots":3.35,"target":"right","response":"left","rt":303.80000000075,"correct":false,"confidence":3},{"trial_n":95,"n_dots":3.45,"target":"right","response":"left","rt":198.69999999925,"correct":false,"confidence":5},{"trial_n":96,"n_dots":3.55,"target":"left","response":"left","rt":260.5,"correct":true,"confidence":4},{"trial_n":97,"n_dots":3.55,"target":"right","response":"right","rt":258.39999999851,"correct":true,"confidence":3},{"trial_n":98,"n_dots":3.45,"target":"left","response":"left","rt":223.80000000075,"correct":true,"confidence":6},{"trial_n":99,"n_dots":3.45,"target":"right","response":"left","rt":28.900000002235,"correct":false,"confidence":4},{"trial_n":100,"n_dots":3.55,"target":"left","response":"left","rt":146.39999999851,"correct":true,"confidence":5},{"trial_n":101,"n_dots":3.55,"target":"right","response":"left","rt":337.89999999851,"correct":false,"confidence":3},{"trial_n":102,"n_dots":3.65,"target":"right","response":"right","rt":126.89999999851,"correct":true,"confidence":3},{"trial_n":103,"n_dots":3.65,"target":"left","response":"left","rt":125.40000000224,"correct":true,"confidence":5},{"trial_n":104,"n_dots":3.55,"target":"left","response":"left","rt":212,"correct":true,"confidence":4},{"trial_n":105,"n_dots":3.55,"target":"left","response":"left","rt":324.19999999925,"correct":true,"confidence":5},{"trial_n":106,"n_dots":3.45,"target":"left","response":"left","rt":166.09999999776,"correct":true,"confidence":3},{"trial_n":107,"n_dots":3.45,"target":"left","response":"left","rt":107,"correct":true,"confidence":4},{"trial_n":108,"n_dots":3.35,"target":"left","response":"left","rt":185,"correct":true,"confidence":5},{"trial_n":109,"n_dots":3.35,"target":"right","response":"right","rt":269.30000000075,"correct":true,"confidence":3},{"trial_n":110,"n_dots":3.25,"target":"left","response":"left","rt":108.10000000149,"correct":true,"confidence":4},{"trial_n":111,"n_dots":3.25,"target":"left","response":"left","rt":287.89999999851,"correct":true,"confidence":5},{"trial_n":112,"n_dots":3.15,"target":"left","response":"left","rt":344.89999999851,"correct":true,"confidence":3},{"trial_n":113,"n_dots":3.15,"target":"left","response":"left","rt":379.30000000075,"correct":true,"confidence":4},{"trial_n":114,"n_dots":3.05,"target":"right","response":"right","rt":264.60000000149,"correct":true,"confidence":3},{"trial_n":115,"n_dots":3.05,"target":"left","response":"left","rt":292.5,"correct":true,"confidence":3},{"trial_n":116,"n_dots":2.95,"target":"right","response":"left","rt":328,"correct":false,"confidence":4},{"trial_n":117,"n_dots":3.05,"target":"right","response":"left","rt":360.70000000298,"correct":false,"confidence":3},{"trial_n":118,"n_dots":3.15,"target":"left","response":"left","rt":255.19999999925,"correct":true,"confidence":4},{"trial_n":119,"n_dots":3.15,"target":"right","response":"right","rt":183.30000000075,"correct":true,"confidence":5},{"trial_n":120,"n_dots":3.05,"target":"left","response":"left","rt":81.29999999702,"correct":true,"confidence":4},{"trial_n":121,"n_dots":3.05,"target":"right","response":"right","rt":144.10000000149,"correct":true,"confidence":4},{"trial_n":122,"n_dots":2.95,"target":"right","response":"right","rt":453.39999999851,"correct":true,"confidence":3},{"trial_n":123,"n_dots":2.95,"target":"right","response":"left","rt":364.89999999851,"correct":false,"confidence":3},{"trial_n":124,"n_dots":3.05,"target":"left","response":"left","rt":404.90000000224,"correct":true,"confidence":4},{"trial_n":125,"n_dots":3.05,"target":"right","response":"left","rt":370.39999999851,"correct":false,"confidence":3},{"trial_n":126,"n_dots":3.15,"target":"right","response":"right","rt":377.69999999925,"correct":true,"confidence":4},{"trial_n":127,"n_dots":3.15,"target":"right","response":"left","rt":644.89999999851,"correct":false,"confidence":3},{"trial_n":128,"n_dots":3.25,"target":"right","response":"right","rt":334.20000000298,"correct":true,"confidence":4},{"trial_n":129,"n_dots":3.25,"target":"right","response":"right","rt":230,"correct":true,"confidence":5},{"trial_n":130,"n_dots":3.15,"target":"right","response":"left","rt":552.29999999702,"correct":false,"confidence":3},{"trial_n":131,"n_dots":3.25,"target":"right","response":"right","rt":1322,"correct":true,"confidence":4},{"trial_n":132,"n_dots":3.25,"target":"left","response":"left","rt":554.30000000075,"correct":true,"confidence":4},{"trial_n":133,"n_dots":3.15,"target":"left","response":"left","rt":336.69999999925,"correct":true,"confidence":3},{"trial_n":134,"n_dots":3.15,"target":"right","response":"right","rt":329.69999999925,"correct":true,"confidence":4},{"trial_n":135,"n_dots":3.05,"target":"left","response":"left","rt":264.39999999851,"correct":true,"confidence":3},{"trial_n":136,"n_dots":3.05,"target":"left","response":"left","rt":287.80000000075,"correct":true,"confidence":4},{"trial_n":137,"n_dots":2.95,"target":"left","response":"right","rt":407.5,"correct":false,"confidence":3},{"trial_n":138,"n_dots":3.05,"target":"right","response":"left","rt":176.80000000075,"correct":false,"confidence":4},{"trial_n":139,"n_dots":3.15,"target":"left","response":"left","rt":89.29999999702,"correct":true,"confidence":5},{"trial_n":140,"n_dots":3.15,"target":"right","response":"right","rt":303.80000000075,"correct":true,"confidence":3},{"trial_n":141,"n_dots":3.05,"target":"left","response":"left","rt":235.89999999851,"correct":true,"confidence":4},{"trial_n":142,"n_dots":3.05,"target":"right","response":"right","rt":282.90000000224,"correct":true,"confidence":4},{"trial_n":143,"n_dots":2.95,"target":"right","response":"right","rt":141,"correct":true,"confidence":5},{"trial_n":144,"n_dots":2.95,"target":"right","response":"left","rt":569,"correct":false,"confidence":3},{"trial_n":145,"n_dots":3.05,"target":"right","response":"left","rt":579.89999999851,"correct":false,"confidence":4},{"trial_n":146,"n_dots":3.15,"target":"left","response":"left","rt":175.30000000075,"correct":true,"confidence":4},{"trial_n":147,"n_dots":3.15,"target":"left","response":"left","rt":675,"correct":true,"confidence":3},{"trial_n":148,"n_dots":3.05,"target":"right","response":"right","rt":205.69999999925,"correct":true,"confidence":4},{"trial_n":149,"n_dots":3.05,"target":"left","response":"left","rt":103.70000000298,"correct":true,"confidence":4},{"trial_n":150,"n_dots":2.95,"target":"left","response":"left","rt":226.30000000075,"correct":true,"confidence":3},{"trial_n":151,"n_dots":2.95,"target":"left","response":"left","rt":954.39999999851,"correct":true,"confidence":4},{"trial_n":152,"n_dots":2.85,"target":"right","response":"right","rt":1021.700000003,"correct":true,"confidence":5},{"trial_n":153,"n_dots":2.85,"target":"right","response":"right","rt":411.60000000149,"correct":true,"confidence":4},{"trial_n":154,"n_dots":2.75,"target":"right","response":"left","rt":830.89999999851,"correct":false,"confidence":2},{"trial_n":155,"n_dots":2.85,"target":"right","response":"right","rt":500,"correct":true,"confidence":3},{"trial_n":156,"n_dots":2.85,"target":"left","response":"left","rt":339.30000000075,"correct":true,"confidence":4},{"trial_n":157,"n_dots":2.75,"target":"left","response":"left","rt":300.80000000075,"correct":true,"confidence":4},{"trial_n":158,"n_dots":2.75,"target":"left","response":"left","rt":214.10000000149,"correct":true,"confidence":3},{"trial_n":159,"n_dots":2.65,"target":"right","response":"right","rt":107.80000000075,"correct":true,"confidence":4},{"trial_n":160,"n_dots":2.65,"target":"left","response":"left","rt":55.699999999255,"correct":true,"confidence":5},{"trial_n":161,"n_dots":2.55,"target":"right","response":"left","rt":202.90000000224,"correct":false,"confidence":3},{"trial_n":162,"n_dots":2.65,"target":"left","response":"right","rt":487.70000000298,"correct":false,"confidence":4},{"trial_n":163,"n_dots":2.75,"target":"right","response":"left","rt":259.30000000075,"correct":false,"confidence":3},{"trial_n":164,"n_dots":2.85,"target":"right","response":"left","rt":447.60000000149,"correct":false,"confidence":4},{"trial_n":165,"n_dots":2.95,"target":"left","response":"left","rt":147,"correct":true,"confidence":3},{"trial_n":166,"n_dots":2.95,"target":"right","response":"right","rt":214.10000000149,"correct":true,"confidence":4},{"trial_n":167,"n_dots":2.85,"target":"left","response":"left","rt":286.69999999925,"correct":true,"confidence":5},{"trial_n":168,"n_dots":2.85,"target":"left","response":"right","rt":323.5,"correct":false,"confidence":4},{"trial_n":169,"n_dots":2.95,"target":"left","response":"left","rt":470.69999999925,"correct":true,"confidence":3},{"trial_n":170,"n_dots":2.95,"target":"left","response":"left","rt":302.10000000149,"correct":true,"confidence":4},{"trial_n":171,"n_dots":2.85,"target":"left","response":"left","rt":464.30000000075,"correct":true,"confidence":5},{"trial_n":172,"n_dots":2.85,"target":"right","response":"left","rt":362.80000000075,"correct":false,"confidence":3},{"trial_n":173,"n_dots":2.95,"target":"right","response":"right","rt":230.69999999925,"correct":true,"confidence":4},{"trial_n":174,"n_dots":2.95,"target":"right","response":"left","rt":305.30000000075,"correct":false,"confidence":3},{"trial_n":175,"n_dots":3.05,"target":"right","response":"right","rt":344.09999999776,"correct":true,"confidence":4},{"trial_n":176,"n_dots":3.05,"target":"left","response":"left","rt":190.69999999925,"correct":true,"confidence":2},{"trial_n":177,"n_dots":2.95,"target":"left","response":"left","rt":178.80000000075,"correct":true,"confidence":3},{"trial_n":178,"n_dots":2.95,"target":"right","response":"right","rt":299,"correct":true,"confidence":4},{"trial_n":179,"n_dots":2.85,"target":"left","response":"left","rt":1034.8999999985,"correct":true,"confidence":2},{"trial_n":180,"n_dots":2.85,"target":"left","response":"left","rt":260,"correct":true,"confidence":3},{"trial_n":181,"n_dots":2.75,"target":"right","response":"left","rt":1360.3000000007,"correct":false,"confidence":4},{"trial_n":182,"n_dots":2.85,"target":"left","response":"left","rt":229.5,"correct":true,"confidence":3},{"trial_n":183,"n_dots":2.85,"target":"right","response":"right","rt":267.90000000224,"correct":true,"confidence":4},{"trial_n":184,"n_dots":2.75,"target":"left","response":"left","rt":192.80000000075,"correct":true,"confidence":4},{"trial_n":185,"n_dots":2.75,"target":"left","response":"right","rt":512.89999999851,"correct":false,"confidence":5},{"trial_n":186,"n_dots":2.85,"target":"left","response":"left","rt":670.80000000075,"correct":true,"confidence":3},{"trial_n":187,"n_dots":2.85,"target":"right","response":"left","rt":629.80000000075,"correct":false,"confidence":5},{"trial_n":188,"n_dots":2.95,"target":"right","response":"left","rt":323.10000000149,"correct":false,"confidence":5},{"trial_n":189,"n_dots":3.05,"target":"left","response":"left","rt":215.20000000298,"correct":true,"confidence":4},{"trial_n":190,"n_dots":3.05,"target":"right","response":"right","rt":400,"correct":true,"confidence":4},{"trial_n":191,"n_dots":2.95,"target":"right","response":"right","rt":467,"correct":true,"confidence":4},{"trial_n":192,"n_dots":2.95,"target":"left","response":"left","rt":267.70000000298,"correct":true,"confidence":3},{"trial_n":193,"n_dots":2.85,"target":"left","response":"left","rt":185.70000000298,"correct":true,"confidence":4},{"trial_n":194,"n_dots":2.85,"target":"left","response":"left","rt":317.80000000075,"correct":true,"confidence":3}]