[{"trial_n":1,"n_dots":4.25,"target":"right","response":"left","rt":4159.8000000045,"correct":false,"confidence":-1},{"trial_n":2,"n_dots":4.25,"target":"left","response":"right","rt":969.29999999702,"correct":false,"confidence":-1},{"trial_n":3,"n_dots":4.65,"target":"right","response":"right","rt":670.79999999702,"correct":true,"confidence":-1},{"trial_n":4,"n_dots":4.65,"target":"right","response":"left","rt":954.60000000149,"correct":false,"confidence":-1},{"trial_n":5,"n_dots":5.05,"target":"left","response":"right","rt":587,"correct":false,"confidence":-1},{"trial_n":6,"n_dots":5.45,"target":"left","response":"left","rt":612.60000000149,"correct":true,"confidence":-1},{"trial_n":7,"n_dots":5.45,"target":"right","response":"right","rt":491.10000000149,"correct":true,"confidence":-1},{"trial_n":8,"n_dots":5.25,"target":"right","response":"right","rt":504,"correct":true,"confidence":-1},{"trial_n":9,"n_dots":5.25,"target":"right","response":"right","rt":398.5,"correct":true,"confidence":-1},{"trial_n":10,"n_dots":5.05,"target":"right","response":"right","rt":376.79999999702,"correct":true,"confidence":-1},{"trial_n":11,"n_dots":5.05,"target":"right","response":"right","rt":1235.6000000015,"correct":true,"confidence":-1},{"trial_n":12,"n_dots":4.85,"target":"left","response":"left","rt":135,"correct":true,"confidence":-1},{"trial_n":13,"n_dots":4.85,"target":"left","response":"left","rt":116.69999999553,"correct":true,"confidence":-1},{"trial_n":14,"n_dots":4.75,"target":"right","response":"left","rt":1164.3999999985,"correct":false,"confidence":-1},{"trial_n":15,"n_dots":4.85,"target":"right","response":"right","rt":433.70000000298,"correct":true,"confidence":-1},{"trial_n":16,"n_dots":4.85,"target":"right","response":"right","rt":416.70000000298,"correct":true,"confidence":-1},{"trial_n":17,"n_dots":4.75,"target":"right","response":"right","rt":570.79999999702,"correct":true,"confidence":-1},{"trial_n":18,"n_dots":4.75,"target":"left","response":"right","rt":328.30000000447,"correct":false,"confidence":-1},{"trial_n":19,"n_dots":4.85,"target":"left","response":"left","rt":2148.1000000015,"correct":true,"confidence":-1},{"trial_n":20,"n_dots":4.85,"target":"right","response":"right","rt":321.69999999553,"correct":true,"confidence":-1},{"trial_n":21,"n_dots":4.75,"target":"right","response":"right","rt":247.20000000298,"correct":true,"confidence":-1},{"trial_n":22,"n_dots":4.75,"target":"right","response":"right","rt":278.70000000298,"correct":true,"confidence":-1},{"trial_n":23,"n_dots":4.65,"target":"right","response":"right","rt":1026.3999999985,"correct":true,"confidence":-1},{"trial_n":24,"n_dots":4.65,"target":"left","response":"left","rt":65.70000000298,"correct":true,"confidence":-1},{"trial_n":25,"n_dots":4.55,"target":"right","response":"right","rt":1046.099999994,"correct":true,"confidence":-1},{"trial_n":26,"n_dots":4.55,"target":"right","response":"right","rt":503.30000000447,"correct":true,"confidence":-1},{"trial_n":27,"n_dots":4.45,"target":"right","response":"right","rt":283.5,"correct":true,"confidence":5},{"trial_n":28,"n_dots":4.45,"target":"left","response":"left","rt":102.5,"correct":true,"confidence":6},{"trial_n":29,"n_dots":4.35,"target":"right","response":"right","rt":140.60000000149,"correct":true,"confidence":5},{"trial_n":30,"n_dots":4.35,"target":"left","response":"left","rt":964.70000000298,"correct":true,"confidence":6},{"trial_n":31,"n_dots":4.25,"target":"left","response":"left","rt":8.2999999970198,"correct":true,"confidence":6},{"trial_n":32,"n_dots":4.25,"target":"right","response":"right","rt":323.5,"correct":true,"confidence":6},{"trial_n":33,"n_dots":4.15,"target":"left","response":"left","rt":679.79999999702,"correct":true,"confidence":6},{"trial_n":34,"n_dots":4.15,"target":"left","response":"left","rt":220.70000000298,"correct":true,"confidence":6},{"trial_n":35,"n_dots":4.05,"target":"left","response":"left","rt":222.5,"correct":true,"confidence":5},{"trial_n":36,"n_dots":4.05,"target":"right","response":"right","rt":720.89999999851,"correct":true,"confidence":3},{"trial_n":37,"n_dots":3.95,"target":"right","response":"left","rt":339.69999999553,"correct":false,"confidence":6},{"trial_n":38,"n_dots":4.05,"target":"right","response":"right","rt":607.5,"correct":true,"confidence":3},{"trial_n":39,"n_dots":4.05,"target":"left","response":"left","rt":371.89999999851,"correct":true,"confidence":6},{"trial_n":40,"n_dots":3.95,"target":"left","response":"left","rt":42.59999999404,"correct":true,"confidence":6},{"trial_n":41,"n_dots":3.95,"target":"right","response":"left","rt":625,"correct":false,"confidence":3},{"trial_n":42,"n_dots":4.05,"target":"right","response":"left","rt":315,"correct":false,"confidence":3},{"trial_n":43,"n_dots":4.15,"target":"right","response":"left","rt":640.19999999553,"correct":false,"confidence":1},{"trial_n":44,"n_dots":4.25,"target":"left","response":"left","rt":345.60000000149,"correct":true,"confidence":6},{"trial_n":45,"n_dots":4.25,"target":"right","response":"left","rt":460.10000000149,"correct":false,"confidence":3},{"trial_n":46,"n_dots":4.35,"target":"left","response":"left","rt":3.2000000029802,"correct":true,"confidence":6},{"trial_n":47,"n_dots":4.35,"target":"right","response":"left","rt":50.40000000596,"correct":false,"confidence":3},{"trial_n":48,"n_dots":4.45,"target":"left","response":"left","rt":753.20000000298,"correct":true,"confidence":6},{"trial_n":49,"n_dots":4.45,"target":"left","response":"left","rt":628.89999999851,"correct":true,"confidence":6},{"trial_n":50,"n_dots":4.35,"target":"left","response":"left","rt":59.5,"correct":true,"confidence":6},{"trial_n":51,"n_dots":4.35,"target":"left","response":"left","rt":37.20000000298,"correct":true,"confidence":6},{"trial_n":52,"n_dots":4.25,"target":"right","response":"left","rt":602.80000000447,"correct":false,"confidence":6},{"trial_n":53,"n_dots":4.35,"target":"left","response":"left","rt":166.5,"correct":true,"confidence":6},{"trial_n":54,"n_dots":4.35,"target":"left","response":"left","rt":119,"correct":true,"confidence":6},{"trial_n":55,"n_dots":4.25,"target":"left","response":"left","rt":703.10000000149,"correct":true,"confidence":6},{"trial_n":56,"n_dots":4.25,"target":"left","response":"left","rt":25.60000000149,"correct":true,"confidence":6},{"trial_n":57,"n_dots":4.15,"target":"left","response":"left","rt":505.29999999702,"correct":true,"confidence":6},{"trial_n":58,"n_dots":4.15,"target":"right","response":"left","rt":304.20000000298,"correct":false,"confidence":1},{"trial_n":59,"n_dots":4.25,"target":"left","response":"left","rt":133.90000000596,"correct":true,"confidence":6},{"trial_n":60,"n_dots":4.25,"target":"right","response":"right","rt":144.30000000447,"correct":true,"confidence":6},{"trial_n":61,"n_dots":4.15,"target":"right","response":"left","rt":1206.1000000015,"correct":false,"confidence":3},{"trial_n":62,"n_dots":4.25,"target":"left","response":"left","rt":338.60000000149,"correct":true,"confidence":6},{"trial_n":63,"n_dots":4.25,"target":"left","response":"left","rt":2309.1000000015,"correct":true,"confidence":6},{"trial_n":64,"n_dots":4.15,"target":"right","response":"right","rt":1142.299999997,"correct":true,"confidence":1},{"trial_n":65,"n_dots":4.15,"target":"right","response":"right","rt":1333.8999999985,"correct":true,"confidence":3},{"trial_n":66,"n_dots":4.05,"target":"left","response":"left","rt":300.10000000149,"correct":true,"confidence":6},{"trial_n":67,"n_dots":4.05,"target":"left","response":"left","rt":516.5,"correct":true,"confidence":6},{"trial_n":68,"n_dots":3.95,"target":"right","response":"right","rt":1112.3000000045,"correct":true,"confidence":6},{"trial_n":69,"n_dots":3.95,"target":"left","response":"left","rt":557.69999999553,"correct":true,"confidence":6},{"trial_n":70,"n_dots":3.85,"target":"left","response":"left","rt":548.39999999851,"correct":true,"confidence":6},{"trial_n":71,"n_dots":3.85,"target":"left","response":"left","rt":528.20000000298,"correct":true,"confidence":6},{"trial_n":72,"n_dots":3.75,"target":"right","response":"right","rt":1491.099999994,"correct":true,"confidence":1},{"trial_n":73,"n_dots":3.75,"target":"right","response":"right","rt":953.60000000149,"correct":true,"confidence":3},{"trial_n":74,"n_dots":3.65,"target":"right","response":"right","rt":731.70000000298,"correct":true,"confidence":1},{"trial_n":75,"n_dots":3.65,"target":"right","response":"right","rt":1081.5,"correct":true,"confidence":5},{"trial_n":76,"n_dots":3.55,"target":"right","response":"right","rt":611,"correct":true,"confidence":6},{"trial_n":77,"n_dots":3.55,"target":"right","response":"right","rt":474.89999999851,"correct":true,"confidence":5},{"trial_n":78,"n_dots":3.45,"target":"right","response":"right","rt":675.20000000298,"correct":true,"confidence":6},{"trial_n":79,"n_dots":3.45,"target":"left","response":"right","rt":601.5,"correct":false,"confidence":4},{"trial_n":80,"n_dots":3.55,"target":"left","response":"left","rt":722.10000000149,"correct":true,"confidence":5},{"trial_n":81,"n_dots":3.55,"target":"right","response":"right","rt":543.80000000447,"correct":true,"confidence":5},{"trial_n":82,"n_dots":3.45,"target":"left","response":"right","rt":923.79999999702,"correct":false,"confidence":3},{"trial_n":83,"n_dots":3.55,"target":"left","response":"right","rt":606.30000000447,"correct":false,"confidence":4},{"trial_n":84,"n_dots":3.65,"target":"right","response":"right","rt":421.29999999702,"correct":true,"confidence":4},{"trial_n":85,"n_dots":3.65,"target":"right","response":"right","rt":848.39999999851,"correct":true,"confidence":3},{"trial_n":86,"n_dots":3.55,"target":"right","response":"right","rt":333.20000000298,"correct":true,"confidence":3},{"trial_n":87,"n_dots":3.55,"target":"left","response":"left","rt":893.90000000596,"correct":true,"confidence":4},{"trial_n":88,"n_dots":3.45,"target":"left","response":"left","rt":713.39999999851,"correct":true,"confidence":2},{"trial_n":89,"n_dots":3.45,"target":"left","response":"left","rt":598.79999999702,"correct":true,"confidence":2},{"trial_n":90,"n_dots":3.35,"target":"right","response":"left","rt":733.5,"correct":false,"confidence":3},{"trial_n":91,"n_dots":3.45,"target":"left","response":"right","rt":570,"correct":false,"confidence":4},{"trial_n":92,"n_dots":3.55,"target":"right","response":"right","rt":544.60000000149,"correct":true,"confidence":3},{"trial_n":93,"n_dots":3.55,"target":"left","response":"left","rt":1115.5,"correct":true,"confidence":2},{"trial_n":94,"n_dots":3.45,"target":"right","response":"right","rt":602,"correct":true,"confidence":5},{"trial_n":95,"n_dots":3.45,"target":"right","response":"right","rt":608.80000000447,"correct":true,"confidence":3},{"trial_n":96,"n_dots":3.35,"target":"left","response":"right","rt":587.60000000149,"correct":false,"confidence":4},{"trial_n":97,"n_dots":3.45,"target":"left","response":"left","rt":587.89999999851,"correct":true,"confidence":5},{"trial_n":98,"n_dots":3.45,"target":"left","response":"left","rt":552.20000000298,"correct":true,"confidence":5},{"trial_n":99,"n_dots":3.35,"target":"right","response":"left","rt":562.69999999553,"correct":false,"confidence":4},{"trial_n":100,"n_dots":3.45,"target":"right","response":"left","rt":585,"correct":false,"confidence":3},{"trial_n":101,"n_dots":3.55,"target":"left","response":"right","rt":1163.299999997,"correct":false,"confidence":2},{"trial_n":102,"n_dots":3.65,"target":"right","response":"right","rt":505.60000000149,"correct":true,"confidence":2},{"trial_n":103,"n_dots":3.65,"target":"right","response":"right","rt":521.5,"correct":true,"confidence":4},{"trial_n":104,"n_dots":3.55,"target":"left","response":"right","rt":462.60000000149,"correct":false,"confidence":2},{"trial_n":105,"n_dots":3.65,"target":"left","response":"left","rt":541.70000000298,"correct":true,"confidence":2},{"trial_n":106,"n_dots":3.65,"target":"right","response":"right","rt":279.90000000596,"correct":true,"confidence":2},{"trial_n":107,"n_dots":3.55,"target":"left","response":"left","rt":594.60000000149,"correct":true,"confidence":4},{"trial_n":108,"n_dots":3.55,"target":"left","response":"left","rt":461.69999999553,"correct":true,"confidence":4},{"trial_n":109,"n_dots":3.45,"target":"right","response":"left","rt":635.20000000298,"correct":false,"confidence":3},{"trial_n":110,"n_dots":3.55,"target":"left","response":"left","rt":542.39999999851,"correct":true,"confidence":2},{"trial_n":111,"n_dots":3.55,"target":"left","response":"left","rt":439.89999999851,"correct":true,"confidence":2},{"trial_n":112,"n_dots":3.45,"target":"left","response":"left","rt":310.29999999702,"correct":true,"confidence":5},{"trial_n":113,"n_dots":3.45,"target":"right","response":"right","rt":732.10000000149,"correct":true,"confidence":5},{"trial_n":114,"n_dots":3.35,"target":"left","response":"left","rt":454.89999999851,"correct":true,"confidence":3},{"trial_n":115,"n_dots":3.35,"target":"left","response":"left","rt":613.39999999851,"correct":true,"confidence":5},{"trial_n":116,"n_dots":3.25,"target":"right","response":"left","rt":450.29999999702,"correct":false,"confidence":3},{"trial_n":117,"n_dots":3.35,"target":"right","response":"left","rt":330.30000000447,"correct":false,"confidence":3},{"trial_n":118,"n_dots":3.45,"target":"right","response":"left","rt":152.70000000298,"correct":false,"confidence":3},{"trial_n":119,"n_dots":3.55,"target":"right","response":"right","rt":91,"correct":true,"confidence":2},{"trial_n":120,"n_dots":3.55,"target":"left","response":"right","rt":161.60000000149,"correct":false,"confidence":2},{"trial_n":121,"n_dots":3.65,"target":"left","response":"left","rt":194,"correct":true,"confidence":4},{"trial_n":122,"n_dots":3.65,"target":"right","response":"right","rt":311.19999999553,"correct":true,"confidence":6},{"trial_n":123,"n_dots":3.55,"target":"right","response":"left","rt":819.89999999851,"correct":false,"confidence":4},{"trial_n":124,"n_dots":3.65,"target":"left","response":"right","rt":272.60000000149,"correct":false,"confidence":4},{"trial_n":125,"n_dots":3.75,"target":"left","response":"left","rt":339.20000000298,"correct":true,"confidence":6},{"trial_n":126,"n_dots":3.75,"target":"left","response":"left","rt":452.5,"correct":true,"confidence":6},{"trial_n":127,"n_dots":3.65,"target":"right","response":"left","rt":376.40000000596,"correct":false,"confidence":6},{"trial_n":128,"n_dots":3.75,"target":"left","response":"left","rt":404.89999999851,"correct":true,"confidence":6},{"trial_n":129,"n_dots":3.75,"target":"right","response":"left","rt":667.79999999702,"correct":false,"confidence":5},{"trial_n":130,"n_dots":3.85,"target":"left","response":"left","rt":388,"correct":true,"confidence":6},{"trial_n":131,"n_dots":3.85,"target":"left","response":"left","rt":374.39999999851,"correct":true,"confidence":6},{"trial_n":132,"n_dots":3.75,"target":"right","response":"right","rt":1597.6999999955,"correct":true,"confidence":6},{"trial_n":133,"n_dots":3.75,"target":"right","response":"left","rt":785.40000000596,"correct":false,"confidence":4},{"trial_n":134,"n_dots":3.85,"target":"right","response":"left","rt":539.79999999702,"correct":false,"confidence":4},{"trial_n":135,"n_dots":3.95,"target":"right","response":"right","rt":571.39999999851,"correct":true,"confidence":5},{"trial_n":136,"n_dots":3.95,"target":"left","response":"left","rt":404.5,"correct":true,"confidence":6},{"trial_n":137,"n_dots":3.85,"target":"left","response":"left","rt":254.80000000447,"correct":true,"confidence":6},{"trial_n":138,"n_dots":3.85,"target":"right","response":"left","rt":379.39999999851,"correct":false,"confidence":4},{"trial_n":139,"n_dots":3.95,"target":"left","response":"left","rt":132.09999999404,"correct":true,"confidence":5},{"trial_n":140,"n_dots":3.95,"target":"right","response":"right","rt":653.5,"correct":true,"confidence":6},{"trial_n":141,"n_dots":3.85,"target":"left","response":"left","rt":334.29999999702,"correct":true,"confidence":6},{"trial_n":142,"n_dots":3.85,"target":"right","response":"left","rt":662.89999999851,"correct":false,"confidence":6},{"trial_n":143,"n_dots":3.95,"target":"right","response":"right","rt":487.5,"correct":true,"confidence":3},{"trial_n":144,"n_dots":3.95,"target":"right","response":"left","rt":829.29999999702,"correct":false,"confidence":2},{"trial_n":145,"n_dots":4.05,"target":"left","response":"left","rt":711,"correct":true,"confidence":6},{"trial_n":146,"n_dots":4.05,"target":"left","response":"left","rt":525.60000000149,"correct":true,"confidence":6},{"trial_n":147,"n_dots":3.95,"target":"left","response":"left","rt":590.89999999851,"correct":true,"confidence":5},{"trial_n":148,"n_dots":3.95,"target":"right","response":"left","rt":510.59999999404,"correct":false,"confidence":4},{"trial_n":149,"n_dots":4.05,"target":"left","response":"left","rt":181.20000000298,"correct":true,"confidence":6},{"trial_n":150,"n_dots":4.05,"target":"right","response":"right","rt":1130.299999997,"correct":true,"confidence":6},{"trial_n":151,"n_dots":3.95,"target":"left","response":"left","rt":159.79999999702,"correct":true,"confidence":6},{"trial_n":152,"n_dots":3.95,"target":"right","response":"left","rt":609.70000000298,"correct":false,"confidence":5},{"trial_n":153,"n_dots":4.05,"target":"left","response":"left","rt":189.19999999553,"correct":true,"confidence":6},{"trial_n":154,"n_dots":4.05,"target":"right","response":"left","rt":569.19999999553,"correct":false,"confidence":4},{"trial_n":155,"n_dots":4.15,"target":"right","response":"right","rt":626.29999999702,"correct":true,"confidence":2},{"trial_n":156,"n_dots":4.15,"target":"right","response":"right","rt":516.29999999702,"correct":true,"confidence":6},{"trial_n":157,"n_dots":4.05,"target":"right","response":"right","rt":757.30000000447,"correct":true,"confidence":3},{"trial_n":158,"n_dots":4.05,"target":"left","response":"left","rt":160,"correct":true,"confidence":6},{"trial_n":159,"n_dots":3.95,"target":"left","response":"left","rt":189.19999999553,"correct":true,"confidence":5},{"trial_n":160,"n_dots":3.95,"target":"left","response":"left","rt":509.60000000149,"correct":true,"confidence":6},{"trial_n":161,"n_dots":3.85,"target":"left","response":"left","rt":534,"correct":true,"confidence":6},{"trial_n":162,"n_dots":3.85,"target":"left","response":"left","rt":421.10000000149,"correct":true,"confidence":6},{"trial_n":163,"n_dots":3.75,"target":"right","response":"left","rt":402.89999999851,"correct":false,"confidence":6},{"trial_n":164,"n_dots":3.85,"target":"right","response":"left","rt":297.20000000298,"correct":false,"confidence":3},{"trial_n":165,"n_dots":3.95,"target":"left","response":"left","rt":335,"correct":true,"confidence":6},{"trial_n":166,"n_dots":3.95,"target":"left","response":"left","rt":224.90000000596,"correct":true,"confidence":6},{"trial_n":167,"n_dots":3.85,"target":"right","response":"right","rt":675.89999999851,"correct":true,"confidence":3},{"trial_n":168,"n_dots":3.85,"target":"left","response":"left","rt":361.70000000298,"correct":true,"confidence":6},{"trial_n":169,"n_dots":3.75,"target":"left","response":"left","rt":364.79999999702,"correct":true,"confidence":6},{"trial_n":170,"n_dots":3.75,"target":"left","response":"left","rt":550.70000000298,"correct":true,"confidence":4},{"trial_n":171,"n_dots":3.65,"target":"left","response":"left","rt":212.5,"correct":true,"confidence":6},{"trial_n":172,"n_dots":3.65,"target":"right","response":"right","rt":779.70000000298,"correct":true,"confidence":5},{"trial_n":173,"n_dots":3.55,"target":"right","response":"right","rt":1017.200000003,"correct":true,"confidence":3},{"trial_n":174,"n_dots":3.55,"target":"right","response":"right","rt":714.39999999851,"correct":true,"confidence":2},{"trial_n":175,"n_dots":3.45,"target":"right","response":"left","rt":825.09999999404,"correct":false,"confidence":1},{"trial_n":176,"n_dots":3.55,"target":"right","response":"right","rt":777.60000000149,"correct":true,"confidence":1},{"trial_n":177,"n_dots":3.55,"target":"left","response":"left","rt":543.39999999851,"correct":true,"confidence":3},{"trial_n":178,"n_dots":3.45,"target":"left","response":"left","rt":415.90000000596,"correct":true,"confidence":2},{"trial_n":179,"n_dots":3.45,"target":"right","response":"right","rt":538.20000000298,"correct":true,"confidence":2},{"trial_n":180,"n_dots":3.35,"target":"left","response":"left","rt":231,"correct":true,"confidence":2},{"trial_n":181,"n_dots":3.35,"target":"left","response":"left","rt":224.39999999851,"correct":true,"confidence":2},{"trial_n":182,"n_dots":3.25,"target":"left","response":"left","rt":657.40000000596,"correct":true,"confidence":6},{"trial_n":183,"n_dots":3.25,"target":"right","response":"right","rt":353.89999999851,"correct":true,"confidence":5},{"trial_n":184,"n_dots":3.15,"target":"left","response":"left","rt":431.39999999851,"correct":true,"confidence":6},{"trial_n":185,"n_dots":3.15,"target":"left","response":"left","rt":427.39999999851,"correct":true,"confidence":4},{"trial_n":186,"n_dots":3.05,"target":"left","response":"left","rt":824.39999999851,"correct":true,"confidence":6},{"trial_n":187,"n_dots":3.05,"target":"right","response":"left","rt":324.80000000447,"correct":false,"confidence":3},{"trial_n":188,"n_dots":3.15,"target":"left","response":"left","rt":354.60000000149,"correct":true,"confidence":6},{"trial_n":189,"n_dots":3.15,"target":"left","response":"left","rt":473.5,"correct":true,"confidence":6},{"trial_n":190,"n_dots":3.05,"target":"right","response":"left","rt":510,"correct":false,"confidence":4},{"trial_n":191,"n_dots":3.15,"target":"right","response":"left","rt":697.80000000447,"correct":false,"confidence":4},{"trial_n":192,"n_dots":3.25,"target":"right","response":"right","rt":794.20000000298,"correct":true,"confidence":6},{"trial_n":193,"n_dots":3.25,"target":"right","response":"left","rt":975.09999999404,"correct":false,"confidence":6},{"trial_n":194,"n_dots":3.35,"target":"left","response":"left","rt":620.80000000447,"correct":true,"confidence":6}]