[{"trial_n":1,"n_dots":4.25,"target":"right","response":"left","rt":1866,"correct":false,"confidence":-1},{"trial_n":2,"n_dots":4.25,"target":"left","response":"left","rt":423.00000000001,"correct":true,"confidence":-1},{"trial_n":3,"n_dots":4.25,"target":"right","response":"right","rt":1930,"correct":true,"confidence":-1},{"trial_n":4,"n_dots":3.85,"target":"right","response":"right","rt":403.99999999999,"correct":true,"confidence":-1},{"trial_n":5,"n_dots":3.85,"target":"right","response":"left","rt":436.00000000001,"correct":false,"confidence":-1},{"trial_n":6,"n_dots":4.25,"target":"left","response":"right","rt":388,"correct":false,"confidence":-1},{"trial_n":7,"n_dots":4.65,"target":"left","response":"left","rt":453,"correct":true,"confidence":-1},{"trial_n":8,"n_dots":4.65,"target":"right","response":"right","rt":358,"correct":true,"confidence":-1},{"trial_n":9,"n_dots":4.45,"target":"right","response":"right","rt":366,"correct":true,"confidence":-1},{"trial_n":10,"n_dots":4.45,"target":"left","response":"left","rt":419,"correct":true,"confidence":-1},{"trial_n":11,"n_dots":4.25,"target":"left","response":"left","rt":433,"correct":true,"confidence":-1},{"trial_n":12,"n_dots":4.25,"target":"left","response":"right","rt":414,"correct":false,"confidence":-1},{"trial_n":13,"n_dots":4.35,"target":"left","response":"left","rt":348,"correct":true,"confidence":-1},{"trial_n":14,"n_dots":4.35,"target":"left","response":"left","rt":363.99999999999,"correct":true,"confidence":-1},{"trial_n":15,"n_dots":4.25,"target":"left","response":"left","rt":361.00000000001,"correct":true,"confidence":-1},{"trial_n":16,"n_dots":4.25,"target":"right","response":"right","rt":373,"correct":true,"confidence":-1},{"trial_n":17,"n_dots":4.15,"target":"right","response":"right","rt":387,"correct":true,"confidence":-1},{"trial_n":18,"n_dots":4.15,"target":"right","response":"right","rt":349.99999999999,"correct":true,"confidence":-1},{"trial_n":19,"n_dots":4.05,"target":"left","response":"left","rt":379,"correct":true,"confidence":-1},{"trial_n":20,"n_dots":4.05,"target":"right","response":"right","rt":408,"correct":true,"confidence":-1},{"trial_n":21,"n_dots":3.95,"target":"right","response":"right","rt":541.99999999999,"correct":true,"confidence":-1},{"trial_n":22,"n_dots":3.95,"target":"right","response":"right","rt":354,"correct":true,"confidence":-1},{"trial_n":23,"n_dots":3.85,"target":"right","response":"right","rt":410,"correct":true,"confidence":-1},{"trial_n":24,"n_dots":3.85,"target":"left","response":"left","rt":365.00000000001,"correct":true,"confidence":-1},{"trial_n":25,"n_dots":3.75,"target":"left","response":"left","rt":384.00000000001,"correct":true,"confidence":-1},{"trial_n":26,"n_dots":3.75,"target":"left","response":"left","rt":303,"correct":true,"confidence":-1},{"trial_n":27,"n_dots":3.65,"target":"left","response":"left","rt":390,"correct":true,"confidence":5},{"trial_n":28,"n_dots":3.65,"target":"left","response":"left","rt":635,"correct":true,"confidence":4},{"trial_n":29,"n_dots":3.55,"target":"left","response":"left","rt":1451,"correct":true,"confidence":4},{"trial_n":30,"n_dots":3.55,"target":"right","response":"left","rt":2285,"correct":false,"confidence":2},{"trial_n":31,"n_dots":3.65,"target":"right","response":"right","rt":371,"correct":true,"confidence":5},{"trial_n":32,"n_dots":3.65,"target":"left","response":"left","rt":671,"correct":true,"confidence":5},{"trial_n":33,"n_dots":3.55,"target":"right","response":"left","rt":1983,"correct":false,"confidence":3},{"trial_n":34,"n_dots":3.65,"target":"right","response":"right","rt":361,"correct":true,"confidence":5},{"trial_n":35,"n_dots":3.65,"target":"right","response":"right","rt":340,"correct":true,"confidence":5},{"trial_n":36,"n_dots":3.55,"target":"right","response":"right","rt":390.00000000003,"correct":true,"confidence":4},{"trial_n":37,"n_dots":3.55,"target":"left","response":"left","rt":541.00000000003,"correct":true,"confidence":4},{"trial_n":38,"n_dots":3.45,"target":"right","response":"right","rt":493.00000000003,"correct":true,"confidence":5},{"trial_n":39,"n_dots":3.45,"target":"right","response":"right","rt":399,"correct":true,"confidence":5},{"trial_n":40,"n_dots":3.35,"target":"left","response":"right","rt":1122,"correct":false,"confidence":2},{"trial_n":41,"n_dots":3.45,"target":"right","response":"left","rt":657,"correct":false,"confidence":4},{"trial_n":42,"n_dots":3.55,"target":"left","response":"left","rt":645,"correct":true,"confidence":5},{"trial_n":43,"n_dots":3.55,"target":"left","response":"left","rt":661,"correct":true,"confidence":6},{"trial_n":44,"n_dots":3.45,"target":"left","response":"left","rt":1296,"correct":true,"confidence":4},{"trial_n":45,"n_dots":3.45,"target":"left","response":"right","rt":885,"correct":false,"confidence":3},{"trial_n":46,"n_dots":3.55,"target":"left","response":"left","rt":643,"correct":true,"confidence":6},{"trial_n":47,"n_dots":3.55,"target":"left","response":"left","rt":747,"correct":true,"confidence":5},{"trial_n":48,"n_dots":3.45,"target":"right","response":"right","rt":445,"correct":true,"confidence":4},{"trial_n":49,"n_dots":3.45,"target":"left","response":"left","rt":639,"correct":true,"confidence":6},{"trial_n":50,"n_dots":3.35,"target":"left","response":"left","rt":788,"correct":true,"confidence":4},{"trial_n":51,"n_dots":3.35,"target":"left","response":"left","rt":1259,"correct":true,"confidence":3},{"trial_n":52,"n_dots":3.25,"target":"left","response":"left","rt":957,"correct":true,"confidence":4},{"trial_n":53,"n_dots":3.25,"target":"left","response":"left","rt":897,"correct":true,"confidence":5},{"trial_n":54,"n_dots":3.15,"target":"left","response":"left","rt":764,"correct":true,"confidence":5},{"trial_n":55,"n_dots":3.15,"target":"right","response":"right","rt":852.99999999994,"correct":true,"confidence":3},{"trial_n":56,"n_dots":3.05,"target":"left","response":"left","rt":664.99999999994,"correct":true,"confidence":6},{"trial_n":57,"n_dots":3.05,"target":"right","response":"left","rt":1835.0000000001,"correct":false,"confidence":2},{"trial_n":58,"n_dots":3.15,"target":"right","response":"right","rt":403,"correct":true,"confidence":5},{"trial_n":59,"n_dots":3.15,"target":"left","response":"left","rt":542,"correct":true,"confidence":5},{"trial_n":60,"n_dots":3.05,"target":"left","response":"right","rt":626,"correct":false,"confidence":4},{"trial_n":61,"n_dots":3.15,"target":"left","response":"left","rt":622,"correct":true,"confidence":4},{"trial_n":62,"n_dots":3.15,"target":"right","response":"right","rt":549.99999999994,"correct":true,"confidence":5},{"trial_n":63,"n_dots":3.05,"target":"left","response":"left","rt":618,"correct":true,"confidence":6},{"trial_n":64,"n_dots":3.05,"target":"right","response":"right","rt":1007.0000000001,"correct":true,"confidence":1},{"trial_n":65,"n_dots":2.95,"target":"right","response":"right","rt":827,"correct":true,"confidence":3},{"trial_n":66,"n_dots":2.95,"target":"right","response":"right","rt":800.99999999994,"correct":true,"confidence":3},{"trial_n":67,"n_dots":2.85,"target":"left","response":"left","rt":788,"correct":true,"confidence":3},{"trial_n":68,"n_dots":2.85,"target":"right","response":"right","rt":466,"correct":true,"confidence":3},{"trial_n":69,"n_dots":2.75,"target":"left","response":"left","rt":816,"correct":true,"confidence":2},{"trial_n":70,"n_dots":2.75,"target":"right","response":"right","rt":463,"correct":true,"confidence":4},{"trial_n":71,"n_dots":2.65,"target":"right","response":"left","rt":640,"correct":false,"confidence":4},{"trial_n":72,"n_dots":2.75,"target":"left","response":"left","rt":524,"correct":true,"confidence":4},{"trial_n":73,"n_dots":2.75,"target":"left","response":"left","rt":500,"correct":true,"confidence":5},{"trial_n":74,"n_dots":2.65,"target":"left","response":"left","rt":744.99999999994,"correct":true,"confidence":4},{"trial_n":75,"n_dots":2.65,"target":"left","response":"left","rt":581.00000000006,"correct":true,"confidence":4},{"trial_n":76,"n_dots":2.55,"target":"right","response":"left","rt":855,"correct":false,"confidence":2},{"trial_n":77,"n_dots":2.65,"target":"left","response":"right","rt":964,"correct":false,"confidence":3},{"trial_n":78,"n_dots":2.75,"target":"right","response":"left","rt":932,"correct":false,"confidence":3},{"trial_n":79,"n_dots":2.85,"target":"right","response":"right","rt":945.00000000006,"correct":true,"confidence":2},{"trial_n":80,"n_dots":2.85,"target":"right","response":"left","rt":1025.9999999999,"correct":false,"confidence":2},{"trial_n":81,"n_dots":2.95,"target":"right","response":"left","rt":485.00000000006,"correct":false,"confidence":6},{"trial_n":82,"n_dots":3.05,"target":"left","response":"left","rt":445,"correct":true,"confidence":5},{"trial_n":83,"n_dots":3.05,"target":"left","response":"left","rt":988,"correct":true,"confidence":2},{"trial_n":84,"n_dots":2.95,"target":"right","response":"right","rt":671,"correct":true,"confidence":2},{"trial_n":85,"n_dots":2.95,"target":"left","response":"left","rt":513,"correct":true,"confidence":5},{"trial_n":86,"n_dots":2.85,"target":"right","response":"right","rt":584,"correct":true,"confidence":5},{"trial_n":87,"n_dots":2.85,"target":"right","response":"right","rt":538.99999999994,"correct":true,"confidence":4},{"trial_n":88,"n_dots":2.75,"target":"left","response":"left","rt":560,"correct":true,"confidence":3},{"trial_n":89,"n_dots":2.75,"target":"left","response":"left","rt":654,"correct":true,"confidence":5},{"trial_n":90,"n_dots":2.65,"target":"right","response":"right","rt":1178.9999999999,"correct":true,"confidence":2},{"trial_n":91,"n_dots":2.65,"target":"right","response":"right","rt":483.99999999994,"correct":true,"confidence":5},{"trial_n":92,"n_dots":2.55,"target":"right","response":"left","rt":485.00000000006,"correct":false,"confidence":6},{"trial_n":93,"n_dots":2.65,"target":"right","response":"left","rt":605,"correct":false,"confidence":4},{"trial_n":94,"n_dots":2.75,"target":"left","response":"left","rt":1007,"correct":true,"confidence":2},{"trial_n":95,"n_dots":2.75,"target":"left","response":"left","rt":713,"correct":true,"confidence":5},{"trial_n":96,"n_dots":2.65,"target":"left","response":"left","rt":663,"correct":true,"confidence":4},{"trial_n":97,"n_dots":2.65,"target":"right","response":"right","rt":451,"correct":true,"confidence":6},{"trial_n":98,"n_dots":2.55,"target":"left","response":"right","rt":486,"correct":false,"confidence":4},{"trial_n":99,"n_dots":2.65,"target":"right","response":"left","rt":705.99999999994,"correct":false,"confidence":3},{"trial_n":100,"n_dots":2.75,"target":"left","response":"left","rt":945.99999999994,"correct":true,"confidence":3},{"trial_n":101,"n_dots":2.75,"target":"right","response":"right","rt":481,"correct":true,"confidence":4},{"trial_n":102,"n_dots":2.65,"target":"left","response":"left","rt":658,"correct":true,"confidence":4},{"trial_n":103,"n_dots":2.65,"target":"right","response":"right","rt":601,"correct":true,"confidence":4},{"trial_n":104,"n_dots":2.55,"target":"right","response":"right","rt":473,"correct":true,"confidence":5},{"trial_n":105,"n_dots":2.55,"target":"right","response":"right","rt":669,"correct":true,"confidence":2},{"trial_n":106,"n_dots":2.45,"target":"left","response":"right","rt":993,"correct":false,"confidence":3},{"trial_n":107,"n_dots":2.55,"target":"right","response":"right","rt":872,"correct":true,"confidence":5},{"trial_n":108,"n_dots":2.55,"target":"left","response":"left","rt":1205,"correct":true,"confidence":2},{"trial_n":109,"n_dots":2.45,"target":"right","response":"right","rt":446,"correct":true,"confidence":3},{"trial_n":110,"n_dots":2.45,"target":"right","response":"left","rt":1049,"correct":false,"confidence":1},{"trial_n":111,"n_dots":2.55,"target":"left","response":"right","rt":507,"correct":false,"confidence":3},{"trial_n":112,"n_dots":2.65,"target":"left","response":"left","rt":587,"correct":true,"confidence":3},{"trial_n":113,"n_dots":2.65,"target":"right","response":"right","rt":1226,"correct":true,"confidence":1},{"trial_n":114,"n_dots":2.55,"target":"right","response":"right","rt":1294,"correct":true,"confidence":4},{"trial_n":115,"n_dots":2.55,"target":"right","response":"right","rt":764,"correct":true,"confidence":2},{"trial_n":116,"n_dots":2.45,"target":"left","response":"left","rt":699,"correct":true,"confidence":2},{"trial_n":117,"n_dots":2.45,"target":"right","response":"left","rt":676,"correct":false,"confidence":1},{"trial_n":118,"n_dots":2.55,"target":"right","response":"left","rt":695,"correct":false,"confidence":3},{"trial_n":119,"n_dots":2.65,"target":"right","response":"right","rt":1177,"correct":true,"confidence":2},{"trial_n":120,"n_dots":2.65,"target":"right","response":"right","rt":697,"correct":true,"confidence":2},{"trial_n":121,"n_dots":2.55,"target":"right","response":"right","rt":1362,"correct":true,"confidence":1},{"trial_n":122,"n_dots":2.55,"target":"right","response":"right","rt":413.00000000006,"correct":true,"confidence":4},{"trial_n":123,"n_dots":2.45,"target":"left","response":"left","rt":539,"correct":true,"confidence":2},{"trial_n":124,"n_dots":2.45,"target":"left","response":"right","rt":497.00000000006,"correct":false,"confidence":4},{"trial_n":125,"n_dots":2.55,"target":"right","response":"right","rt":1388,"correct":true,"confidence":3},{"trial_n":126,"n_dots":2.55,"target":"left","response":"left","rt":499,"correct":true,"confidence":4},{"trial_n":127,"n_dots":2.45,"target":"left","response":"left","rt":828,"correct":true,"confidence":3},{"trial_n":128,"n_dots":2.45,"target":"right","response":"left","rt":806,"correct":false,"confidence":1},{"trial_n":129,"n_dots":2.55,"target":"right","response":"right","rt":938,"correct":true,"confidence":1},{"trial_n":130,"n_dots":2.55,"target":"left","response":"left","rt":922.00000000012,"correct":true,"confidence":4},{"trial_n":131,"n_dots":2.45,"target":"left","response":"left","rt":1216,"correct":true,"confidence":3},{"trial_n":132,"n_dots":2.45,"target":"right","response":"left","rt":628,"correct":false,"confidence":3},{"trial_n":133,"n_dots":2.55,"target":"left","response":"left","rt":828,"correct":true,"confidence":3},{"trial_n":134,"n_dots":2.55,"target":"right","response":"left","rt":1436,"correct":false,"confidence":4},{"trial_n":135,"n_dots":2.65,"target":"left","response":"left","rt":1140.9999999999,"correct":true,"confidence":1},{"trial_n":136,"n_dots":2.65,"target":"right","response":"right","rt":541,"correct":true,"confidence":3},{"trial_n":137,"n_dots":2.55,"target":"right","response":"left","rt":742,"correct":false,"confidence":2},{"trial_n":138,"n_dots":2.65,"target":"left","response":"left","rt":1711,"correct":true,"confidence":1},{"trial_n":139,"n_dots":2.65,"target":"right","response":"right","rt":1012,"correct":true,"confidence":2},{"trial_n":140,"n_dots":2.55,"target":"right","response":"left","rt":922,"correct":false,"confidence":2},{"trial_n":141,"n_dots":2.65,"target":"right","response":"right","rt":1269,"correct":true,"confidence":4},{"trial_n":142,"n_dots":2.65,"target":"right","response":"left","rt":1139,"correct":false,"confidence":4},{"trial_n":143,"n_dots":2.75,"target":"right","response":"left","rt":2677,"correct":false,"confidence":1},{"trial_n":144,"n_dots":2.85,"target":"right","response":"right","rt":826,"correct":true,"confidence":3},{"trial_n":145,"n_dots":2.85,"target":"left","response":"left","rt":488.00000000012,"correct":true,"confidence":3},{"trial_n":146,"n_dots":2.75,"target":"right","response":"left","rt":776,"correct":false,"confidence":4},{"trial_n":147,"n_dots":2.85,"target":"right","response":"right","rt":684,"correct":true,"confidence":3},{"trial_n":148,"n_dots":2.85,"target":"left","response":"left","rt":525,"correct":true,"confidence":3},{"trial_n":149,"n_dots":2.75,"target":"right","response":"right","rt":744,"correct":true,"confidence":4},{"trial_n":150,"n_dots":2.75,"target":"right","response":"left","rt":1477,"correct":false,"confidence":3},{"trial_n":151,"n_dots":2.85,"target":"right","response":"left","rt":864,"correct":false,"confidence":4},{"trial_n":152,"n_dots":2.95,"target":"left","response":"left","rt":512,"correct":true,"confidence":4},{"trial_n":153,"n_dots":2.95,"target":"right","response":"right","rt":563,"correct":true,"confidence":5},{"trial_n":154,"n_dots":2.85,"target":"right","response":"right","rt":1761,"correct":true,"confidence":2},{"trial_n":155,"n_dots":2.85,"target":"left","response":"left","rt":921.99999999988,"correct":true,"confidence":5},{"trial_n":156,"n_dots":2.75,"target":"right","response":"left","rt":2639.0000000001,"correct":false,"confidence":2},{"trial_n":157,"n_dots":2.85,"target":"right","response":"right","rt":515,"correct":true,"confidence":5},{"trial_n":158,"n_dots":2.85,"target":"left","response":"left","rt":782.99999999988,"correct":true,"confidence":5},{"trial_n":159,"n_dots":2.75,"target":"left","response":"left","rt":1281.0000000001,"correct":true,"confidence":3},{"trial_n":160,"n_dots":2.75,"target":"right","response":"right","rt":1215,"correct":true,"confidence":3},{"trial_n":161,"n_dots":2.65,"target":"left","response":"right","rt":1165,"correct":false,"confidence":3},{"trial_n":162,"n_dots":2.75,"target":"left","response":"right","rt":1010,"correct":false,"confidence":2},{"trial_n":163,"n_dots":2.85,"target":"left","response":"left","rt":684,"correct":true,"confidence":1},{"trial_n":164,"n_dots":2.85,"target":"right","response":"right","rt":611.00000000012,"correct":true,"confidence":3},{"trial_n":165,"n_dots":2.75,"target":"left","response":"left","rt":432,"correct":true,"confidence":5},{"trial_n":166,"n_dots":2.75,"target":"right","response":"right","rt":1006,"correct":true,"confidence":6},{"trial_n":167,"n_dots":2.65,"target":"left","response":"left","rt":642,"correct":true,"confidence":4},{"trial_n":168,"n_dots":2.65,"target":"left","response":"left","rt":659,"correct":true,"confidence":4},{"trial_n":169,"n_dots":2.55,"target":"right","response":"right","rt":787,"correct":true,"confidence":3},{"trial_n":170,"n_dots":2.55,"target":"left","response":"left","rt":659,"correct":true,"confidence":3},{"trial_n":171,"n_dots":2.45,"target":"left","response":"left","rt":607,"correct":true,"confidence":5},{"trial_n":172,"n_dots":2.45,"target":"right","response":"left","rt":1069,"correct":false,"confidence":4},{"trial_n":173,"n_dots":2.55,"target":"right","response":"left","rt":768,"correct":false,"confidence":4},{"trial_n":174,"n_dots":2.65,"target":"left","response":"right","rt":604,"correct":false,"confidence":4},{"trial_n":175,"n_dots":2.75,"target":"left","response":"left","rt":2088,"correct":true,"confidence":3},{"trial_n":176,"n_dots":2.75,"target":"left","response":"left","rt":540,"correct":true,"confidence":4},{"trial_n":177,"n_dots":2.65,"target":"left","response":"left","rt":498.99999999988,"correct":true,"confidence":5},{"trial_n":178,"n_dots":2.65,"target":"left","response":"right","rt":516.00000000012,"correct":false,"confidence":5},{"trial_n":179,"n_dots":2.75,"target":"left","response":"right","rt":776,"correct":false,"confidence":5},{"trial_n":180,"n_dots":2.85,"target":"left","response":"left","rt":522,"correct":true,"confidence":4},{"trial_n":181,"n_dots":2.85,"target":"right","response":"left","rt":737,"correct":false,"confidence":4},{"trial_n":182,"n_dots":2.95,"target":"right","response":"right","rt":484,"correct":true,"confidence":5},{"trial_n":183,"n_dots":2.95,"target":"left","response":"left","rt":1133,"correct":true,"confidence":6},{"trial_n":184,"n_dots":2.85,"target":"left","response":"left","rt":1114,"correct":true,"confidence":6},{"trial_n":185,"n_dots":2.85,"target":"right","response":"right","rt":401,"correct":true,"confidence":6},{"trial_n":186,"n_dots":2.75,"target":"left","response":"left","rt":464.99999999988,"correct":true,"confidence":6},{"trial_n":187,"n_dots":2.75,"target":"left","response":"left","rt":1048,"correct":true,"confidence":4},{"trial_n":188,"n_dots":2.65,"target":"right","response":"right","rt":487.99999999988,"correct":true,"confidence":4},{"trial_n":189,"n_dots":2.65,"target":"right","response":"right","rt":1916,"correct":true,"confidence":2},{"trial_n":190,"n_dots":2.55,"target":"left","response":"right","rt":699,"correct":false,"confidence":5},{"trial_n":191,"n_dots":2.65,"target":"right","response":"right","rt":833,"correct":true,"confidence":3},{"trial_n":192,"n_dots":2.65,"target":"left","response":"right","rt":2224,"correct":false,"confidence":2},{"trial_n":193,"n_dots":2.75,"target":"left","response":"right","rt":2785,"correct":false,"confidence":4},{"trial_n":194,"n_dots":2.85,"target":"left","response":"right","rt":864,"correct":false,"confidence":4}]