[{"trial_n":1,"n_dots":4.25,"target":"left","response":"left","rt":2260.1999999881,"correct":true,"confidence":-1},{"trial_n":2,"n_dots":4.25,"target":"left","response":"left","rt":344.89999997616,"correct":true,"confidence":-1},{"trial_n":3,"n_dots":3.85,"target":"right","response":"right","rt":776,"correct":true,"confidence":-1},{"trial_n":4,"n_dots":3.85,"target":"right","response":"right","rt":456.5,"correct":true,"confidence":-1},{"trial_n":5,"n_dots":3.45,"target":"left","response":"left","rt":318.30000001192,"correct":true,"confidence":-1},{"trial_n":6,"n_dots":3.45,"target":"left","response":"right","rt":589.40000000596,"correct":false,"confidence":-1},{"trial_n":7,"n_dots":3.85,"target":"left","response":"left","rt":1387.7999999821,"correct":true,"confidence":-1},{"trial_n":8,"n_dots":3.85,"target":"right","response":"left","rt":1261.900000006,"correct":false,"confidence":-1},{"trial_n":9,"n_dots":4.05,"target":"left","response":"left","rt":262.19999998808,"correct":true,"confidence":-1},{"trial_n":10,"n_dots":4.05,"target":"left","response":"left","rt":301.89999997616,"correct":true,"confidence":-1},{"trial_n":11,"n_dots":3.85,"target":"left","response":"left","rt":815.40000000596,"correct":true,"confidence":-1},{"trial_n":12,"n_dots":3.85,"target":"left","response":"left","rt":700.10000002384,"correct":true,"confidence":-1},{"trial_n":13,"n_dots":3.75,"target":"left","response":"left","rt":638.5,"correct":true,"confidence":-1},{"trial_n":14,"n_dots":3.75,"target":"left","response":"right","rt":284.30000001192,"correct":false,"confidence":-1},{"trial_n":15,"n_dots":3.85,"target":"left","response":"right","rt":686,"correct":false,"confidence":-1},{"trial_n":16,"n_dots":3.95,"target":"right","response":"right","rt":284.90000000596,"correct":true,"confidence":-1},{"trial_n":17,"n_dots":3.95,"target":"left","response":"right","rt":611.29999998212,"correct":false,"confidence":-1},{"trial_n":18,"n_dots":4.05,"target":"left","response":"left","rt":376.5,"correct":true,"confidence":-1},{"trial_n":19,"n_dots":4.05,"target":"left","response":"left","rt":342,"correct":true,"confidence":-1},{"trial_n":20,"n_dots":3.95,"target":"right","response":"left","rt":587.30000001192,"correct":false,"confidence":-1},{"trial_n":21,"n_dots":4.05,"target":"left","response":"left","rt":352.80000001192,"correct":true,"confidence":-1},{"trial_n":22,"n_dots":4.05,"target":"left","response":"right","rt":274.29999998212,"correct":false,"confidence":-1},{"trial_n":23,"n_dots":4.15,"target":"right","response":"right","rt":232,"correct":true,"confidence":-1},{"trial_n":24,"n_dots":4.15,"target":"left","response":"left","rt":484.39999997616,"correct":true,"confidence":-1},{"trial_n":25,"n_dots":4.05,"target":"right","response":"right","rt":298.80000001192,"correct":true,"confidence":-1},{"trial_n":26,"n_dots":4.05,"target":"left","response":"right","rt":599.09999999404,"correct":false,"confidence":-1},{"trial_n":27,"n_dots":4.15,"target":"left","response":"left","rt":265.09999999404,"correct":true,"confidence":5},{"trial_n":28,"n_dots":4.15,"target":"left","response":"left","rt":288.59999999404,"correct":true,"confidence":5},{"trial_n":29,"n_dots":4.05,"target":"right","response":"right","rt":296.80000001192,"correct":true,"confidence":4},{"trial_n":30,"n_dots":4.05,"target":"right","response":"right","rt":309.29999998212,"correct":true,"confidence":5},{"trial_n":31,"n_dots":3.95,"target":"right","response":"right","rt":341,"correct":true,"confidence":5},{"trial_n":32,"n_dots":3.95,"target":"right","response":"right","rt":283.90000000596,"correct":true,"confidence":5},{"trial_n":33,"n_dots":3.85,"target":"left","response":"left","rt":306.79999998212,"correct":true,"confidence":4},{"trial_n":34,"n_dots":3.85,"target":"right","response":"right","rt":280.30000001192,"correct":true,"confidence":5},{"trial_n":35,"n_dots":3.75,"target":"right","response":"right","rt":750.39999997616,"correct":true,"confidence":5},{"trial_n":36,"n_dots":3.75,"target":"right","response":"right","rt":330.09999999404,"correct":true,"confidence":5},{"trial_n":37,"n_dots":3.65,"target":"left","response":"left","rt":617.09999999404,"correct":true,"confidence":3},{"trial_n":38,"n_dots":3.65,"target":"right","response":"right","rt":269.09999999404,"correct":true,"confidence":5},{"trial_n":39,"n_dots":3.55,"target":"left","response":"left","rt":504.59999999404,"correct":true,"confidence":3},{"trial_n":40,"n_dots":3.55,"target":"right","response":"right","rt":306.69999998808,"correct":true,"confidence":4},{"trial_n":41,"n_dots":3.45,"target":"right","response":"right","rt":837.09999999404,"correct":true,"confidence":3},{"trial_n":42,"n_dots":3.45,"target":"left","response":"left","rt":272.79999998212,"correct":true,"confidence":5},{"trial_n":43,"n_dots":3.35,"target":"left","response":"left","rt":274.59999999404,"correct":true,"confidence":5},{"trial_n":44,"n_dots":3.35,"target":"right","response":"right","rt":275.69999998808,"correct":true,"confidence":4},{"trial_n":45,"n_dots":3.25,"target":"right","response":"right","rt":234.40000000596,"correct":true,"confidence":4},{"trial_n":46,"n_dots":3.25,"target":"left","response":"left","rt":423.70000001788,"correct":true,"confidence":4},{"trial_n":47,"n_dots":3.15,"target":"left","response":"left","rt":309.19999998808,"correct":true,"confidence":4},{"trial_n":48,"n_dots":3.15,"target":"right","response":"right","rt":315.69999998808,"correct":true,"confidence":5},{"trial_n":49,"n_dots":3.05,"target":"right","response":"right","rt":477.19999998808,"correct":true,"confidence":5},{"trial_n":50,"n_dots":3.05,"target":"left","response":"left","rt":1193.099999994,"correct":true,"confidence":2},{"trial_n":51,"n_dots":2.95,"target":"left","response":"left","rt":1049.7000000179,"correct":true,"confidence":2},{"trial_n":52,"n_dots":2.95,"target":"left","response":"left","rt":392.30000001192,"correct":true,"confidence":4},{"trial_n":53,"n_dots":2.85,"target":"left","response":"right","rt":597.70000001788,"correct":false,"confidence":2},{"trial_n":54,"n_dots":2.95,"target":"left","response":"left","rt":407,"correct":true,"confidence":2},{"trial_n":55,"n_dots":2.95,"target":"right","response":"right","rt":891.5,"correct":true,"confidence":3},{"trial_n":56,"n_dots":2.85,"target":"right","response":"right","rt":383.80000001192,"correct":true,"confidence":3},{"trial_n":57,"n_dots":2.85,"target":"right","response":"left","rt":566.20000001788,"correct":false,"confidence":2},{"trial_n":58,"n_dots":2.95,"target":"left","response":"left","rt":329.69999998808,"correct":true,"confidence":4},{"trial_n":59,"n_dots":2.95,"target":"right","response":"right","rt":351.09999999404,"correct":true,"confidence":3},{"trial_n":60,"n_dots":2.85,"target":"right","response":"right","rt":274.80000001192,"correct":true,"confidence":4},{"trial_n":61,"n_dots":2.85,"target":"left","response":"right","rt":2615.3000000119,"correct":false,"confidence":4},{"trial_n":62,"n_dots":2.95,"target":"left","response":"left","rt":533.09999999404,"correct":true,"confidence":3},{"trial_n":63,"n_dots":2.95,"target":"right","response":"right","rt":336,"correct":true,"confidence":4},{"trial_n":64,"n_dots":2.85,"target":"left","response":"right","rt":1163.900000006,"correct":false,"confidence":2},{"trial_n":65,"n_dots":2.95,"target":"right","response":"right","rt":311.09999999404,"correct":true,"confidence":3},{"trial_n":66,"n_dots":2.95,"target":"left","response":"left","rt":263.10000002384,"correct":true,"confidence":3},{"trial_n":67,"n_dots":2.85,"target":"right","response":"right","rt":334.5,"correct":true,"confidence":4},{"trial_n":68,"n_dots":2.85,"target":"right","response":"right","rt":271.19999998808,"correct":true,"confidence":4},{"trial_n":69,"n_dots":2.75,"target":"right","response":"right","rt":1468.6999999881,"correct":true,"confidence":2},{"trial_n":70,"n_dots":2.75,"target":"right","response":"left","rt":423.09999999404,"correct":false,"confidence":2},{"trial_n":71,"n_dots":2.85,"target":"right","response":"right","rt":243.30000001192,"correct":true,"confidence":4},{"trial_n":72,"n_dots":2.85,"target":"right","response":"right","rt":247.39999997616,"correct":true,"confidence":4},{"trial_n":73,"n_dots":2.75,"target":"right","response":"right","rt":323.10000002384,"correct":true,"confidence":4},{"trial_n":74,"n_dots":2.75,"target":"left","response":"left","rt":808.09999999404,"correct":true,"confidence":2},{"trial_n":75,"n_dots":2.65,"target":"right","response":"right","rt":249.80000001192,"correct":true,"confidence":3},{"trial_n":76,"n_dots":2.65,"target":"right","response":"left","rt":940,"correct":false,"confidence":3},{"trial_n":77,"n_dots":2.75,"target":"right","response":"right","rt":466.59999999404,"correct":true,"confidence":4},{"trial_n":78,"n_dots":2.75,"target":"right","response":"left","rt":932.59999999404,"correct":false,"confidence":2},{"trial_n":79,"n_dots":2.85,"target":"right","response":"right","rt":588.09999999404,"correct":true,"confidence":2},{"trial_n":80,"n_dots":2.85,"target":"right","response":"left","rt":566.89999997616,"correct":false,"confidence":2},{"trial_n":81,"n_dots":2.95,"target":"right","response":"right","rt":330,"correct":true,"confidence":3},{"trial_n":82,"n_dots":2.95,"target":"left","response":"left","rt":393.40000000596,"correct":true,"confidence":3},{"trial_n":83,"n_dots":2.85,"target":"left","response":"right","rt":1134.099999994,"correct":false,"confidence":3},{"trial_n":84,"n_dots":2.95,"target":"left","response":"left","rt":304.90000000596,"correct":true,"confidence":4},{"trial_n":85,"n_dots":2.95,"target":"right","response":"right","rt":715.70000001788,"correct":true,"confidence":3},{"trial_n":86,"n_dots":2.85,"target":"right","response":"left","rt":1603.400000006,"correct":false,"confidence":3},{"trial_n":87,"n_dots":2.95,"target":"left","response":"left","rt":910,"correct":true,"confidence":3},{"trial_n":88,"n_dots":2.95,"target":"left","response":"right","rt":607.20000001788,"correct":false,"confidence":4},{"trial_n":89,"n_dots":3.05,"target":"left","response":"left","rt":502.30000001192,"correct":true,"confidence":4},{"trial_n":90,"n_dots":3.05,"target":"right","response":"right","rt":574.59999999404,"correct":true,"confidence":2},{"trial_n":91,"n_dots":2.95,"target":"left","response":"left","rt":249.5,"correct":true,"confidence":4},{"trial_n":92,"n_dots":2.95,"target":"left","response":"left","rt":302.69999998808,"correct":true,"confidence":3},{"trial_n":93,"n_dots":2.85,"target":"left","response":"left","rt":866,"correct":true,"confidence":2},{"trial_n":94,"n_dots":2.85,"target":"right","response":"left","rt":958.80000001192,"correct":false,"confidence":2},{"trial_n":95,"n_dots":2.95,"target":"left","response":"left","rt":766.29999998212,"correct":true,"confidence":3},{"trial_n":96,"n_dots":2.95,"target":"left","response":"left","rt":2629,"correct":true,"confidence":3},{"trial_n":97,"n_dots":2.85,"target":"right","response":"right","rt":235.20000001788,"correct":true,"confidence":4},{"trial_n":98,"n_dots":2.85,"target":"right","response":"right","rt":314.20000001788,"correct":true,"confidence":4},{"trial_n":99,"n_dots":2.75,"target":"left","response":"left","rt":329.90000000596,"correct":true,"confidence":3},{"trial_n":100,"n_dots":2.75,"target":"left","response":"right","rt":259.29999998212,"correct":false,"confidence":5},{"trial_n":101,"n_dots":2.85,"target":"right","response":"right","rt":228.80000001192,"correct":true,"confidence":5},{"trial_n":102,"n_dots":2.85,"target":"left","response":"right","rt":696.19999998808,"correct":false,"confidence":3},{"trial_n":103,"n_dots":2.95,"target":"right","response":"right","rt":268.5,"correct":true,"confidence":4},{"trial_n":104,"n_dots":2.95,"target":"left","response":"right","rt":274.59999999404,"correct":false,"confidence":4},{"trial_n":105,"n_dots":3.05,"target":"right","response":"left","rt":287,"correct":false,"confidence":2},{"trial_n":106,"n_dots":3.15,"target":"left","response":"left","rt":1310,"correct":true,"confidence":3},{"trial_n":107,"n_dots":3.15,"target":"right","response":"right","rt":222.29999998212,"correct":true,"confidence":4},{"trial_n":108,"n_dots":3.05,"target":"left","response":"right","rt":581.10000002384,"correct":false,"confidence":4},{"trial_n":109,"n_dots":3.15,"target":"right","response":"right","rt":545.09999999404,"correct":true,"confidence":3},{"trial_n":110,"n_dots":3.15,"target":"left","response":"left","rt":458.80000001192,"correct":true,"confidence":3},{"trial_n":111,"n_dots":3.05,"target":"left","response":"right","rt":802.89999997616,"correct":false,"confidence":3},{"trial_n":112,"n_dots":3.15,"target":"right","response":"right","rt":255.59999999404,"correct":true,"confidence":4},{"trial_n":113,"n_dots":3.15,"target":"right","response":"right","rt":234.20000001788,"correct":true,"confidence":5},{"trial_n":114,"n_dots":3.05,"target":"left","response":"right","rt":274.5,"correct":false,"confidence":3},{"trial_n":115,"n_dots":3.15,"target":"right","response":"right","rt":314.40000000596,"correct":true,"confidence":5},{"trial_n":116,"n_dots":3.15,"target":"right","response":"right","rt":273.40000000596,"correct":true,"confidence":4},{"trial_n":117,"n_dots":3.05,"target":"left","response":"left","rt":433.69999998808,"correct":true,"confidence":2},{"trial_n":118,"n_dots":3.05,"target":"left","response":"right","rt":574.5,"correct":false,"confidence":2},{"trial_n":119,"n_dots":3.15,"target":"left","response":"right","rt":1082.8000000119,"correct":false,"confidence":3},{"trial_n":120,"n_dots":3.25,"target":"left","response":"right","rt":623.40000000596,"correct":false,"confidence":2},{"trial_n":121,"n_dots":3.35,"target":"right","response":"left","rt":534.5,"correct":false,"confidence":3},{"trial_n":122,"n_dots":3.45,"target":"left","response":"left","rt":230.59999999404,"correct":true,"confidence":5},{"trial_n":123,"n_dots":3.45,"target":"left","response":"left","rt":216.89999997616,"correct":true,"confidence":4},{"trial_n":124,"n_dots":3.35,"target":"right","response":"right","rt":259.70000001788,"correct":true,"confidence":4},{"trial_n":125,"n_dots":3.35,"target":"right","response":"right","rt":239.39999997616,"correct":true,"confidence":4},{"trial_n":126,"n_dots":3.25,"target":"right","response":"right","rt":439.90000000596,"correct":true,"confidence":3},{"trial_n":127,"n_dots":3.25,"target":"left","response":"left","rt":324.19999998808,"correct":true,"confidence":2},{"trial_n":128,"n_dots":3.15,"target":"right","response":"right","rt":235.5,"correct":true,"confidence":4},{"trial_n":129,"n_dots":3.15,"target":"left","response":"right","rt":578.90000000596,"correct":false,"confidence":4},{"trial_n":130,"n_dots":3.25,"target":"right","response":"right","rt":268.80000001192,"correct":true,"confidence":4},{"trial_n":131,"n_dots":3.25,"target":"left","response":"left","rt":326.30000001192,"correct":true,"confidence":4},{"trial_n":132,"n_dots":3.15,"target":"right","response":"right","rt":278.80000001192,"correct":true,"confidence":4},{"trial_n":133,"n_dots":3.15,"target":"right","response":"right","rt":230.90000000596,"correct":true,"confidence":4},{"trial_n":134,"n_dots":3.05,"target":"right","response":"right","rt":188.59999999404,"correct":true,"confidence":4},{"trial_n":135,"n_dots":3.05,"target":"right","response":"right","rt":231.60000002384,"correct":true,"confidence":5},{"trial_n":136,"n_dots":2.95,"target":"left","response":"left","rt":551.5,"correct":true,"confidence":4},{"trial_n":137,"n_dots":2.95,"target":"left","response":"left","rt":582,"correct":true,"confidence":2},{"trial_n":138,"n_dots":2.85,"target":"right","response":"right","rt":250.40000000596,"correct":true,"confidence":4},{"trial_n":139,"n_dots":2.85,"target":"right","response":"right","rt":300.5,"correct":true,"confidence":3},{"trial_n":140,"n_dots":2.75,"target":"left","response":"left","rt":248.5,"correct":true,"confidence":3},{"trial_n":141,"n_dots":2.75,"target":"left","response":"left","rt":360.09999999404,"correct":true,"confidence":2},{"trial_n":142,"n_dots":2.65,"target":"right","response":"right","rt":263.30000001192,"correct":true,"confidence":4},{"trial_n":143,"n_dots":2.65,"target":"left","response":"left","rt":637.19999998808,"correct":true,"confidence":1},{"trial_n":144,"n_dots":2.55,"target":"right","response":"right","rt":279.5,"correct":true,"confidence":5},{"trial_n":145,"n_dots":2.55,"target":"left","response":"left","rt":392.80000001192,"correct":true,"confidence":3},{"trial_n":146,"n_dots":2.45,"target":"right","response":"right","rt":289.40000000596,"correct":true,"confidence":4},{"trial_n":147,"n_dots":2.45,"target":"left","response":"left","rt":349,"correct":true,"confidence":5},{"trial_n":148,"n_dots":2.35,"target":"right","response":"right","rt":401.19999998808,"correct":true,"confidence":5},{"trial_n":149,"n_dots":2.35,"target":"left","response":"right","rt":540.5,"correct":false,"confidence":4},{"trial_n":150,"n_dots":2.45,"target":"left","response":"right","rt":731.10000002384,"correct":false,"confidence":3},{"trial_n":151,"n_dots":2.55,"target":"left","response":"right","rt":979.59999999404,"correct":false,"confidence":3},{"trial_n":152,"n_dots":2.65,"target":"right","response":"left","rt":1477.7999999821,"correct":false,"confidence":2},{"trial_n":153,"n_dots":2.75,"target":"right","response":"right","rt":798.89999997616,"correct":true,"confidence":3},{"trial_n":154,"n_dots":2.75,"target":"right","response":"right","rt":260.30000001192,"correct":true,"confidence":4},{"trial_n":155,"n_dots":2.65,"target":"left","response":"left","rt":221.20000001788,"correct":true,"confidence":4},{"trial_n":156,"n_dots":2.65,"target":"left","response":"left","rt":339.69999998808,"correct":true,"confidence":2},{"trial_n":157,"n_dots":2.55,"target":"right","response":"left","rt":312.5,"correct":false,"confidence":3},{"trial_n":158,"n_dots":2.65,"target":"left","response":"right","rt":754.69999998808,"correct":false,"confidence":2},{"trial_n":159,"n_dots":2.75,"target":"right","response":"left","rt":297.30000001192,"correct":false,"confidence":3},{"trial_n":160,"n_dots":2.85,"target":"right","response":"right","rt":471.59999999404,"correct":true,"confidence":2},{"trial_n":161,"n_dots":2.85,"target":"left","response":"left","rt":354.30000001192,"correct":true,"confidence":2},{"trial_n":162,"n_dots":2.75,"target":"left","response":"left","rt":697.80000001192,"correct":true,"confidence":3},{"trial_n":163,"n_dots":2.75,"target":"right","response":"right","rt":224.19999998808,"correct":true,"confidence":5},{"trial_n":164,"n_dots":2.65,"target":"left","response":"left","rt":230.5,"correct":true,"confidence":5},{"trial_n":165,"n_dots":2.65,"target":"left","response":"right","rt":947.90000000596,"correct":false,"confidence":2},{"trial_n":166,"n_dots":2.75,"target":"left","response":"left","rt":409.40000000596,"correct":true,"confidence":3},{"trial_n":167,"n_dots":2.75,"target":"left","response":"left","rt":261.39999997616,"correct":true,"confidence":5},{"trial_n":168,"n_dots":2.65,"target":"right","response":"right","rt":230.79999998212,"correct":true,"confidence":3},{"trial_n":169,"n_dots":2.65,"target":"right","response":"right","rt":273.09999999404,"correct":true,"confidence":4},{"trial_n":170,"n_dots":2.55,"target":"right","response":"right","rt":317.20000001788,"correct":true,"confidence":4},{"trial_n":171,"n_dots":2.55,"target":"right","response":"right","rt":687.19999998808,"correct":true,"confidence":3},{"trial_n":172,"n_dots":2.45,"target":"right","response":"left","rt":799.09999999404,"correct":false,"confidence":2},{"trial_n":173,"n_dots":2.55,"target":"right","response":"right","rt":143,"correct":true,"confidence":3},{"trial_n":174,"n_dots":2.55,"target":"left","response":"right","rt":253.40000000596,"correct":false,"confidence":4},{"trial_n":175,"n_dots":2.65,"target":"right","response":"right","rt":200.90000000596,"correct":true,"confidence":4},{"trial_n":176,"n_dots":2.65,"target":"right","response":"right","rt":270.70000001788,"correct":true,"confidence":4},{"trial_n":177,"n_dots":2.55,"target":"right","response":"right","rt":285.5,"correct":true,"confidence":3},{"trial_n":178,"n_dots":2.55,"target":"left","response":"right","rt":230.5,"correct":false,"confidence":5},{"trial_n":179,"n_dots":2.65,"target":"right","response":"right","rt":353.39999997616,"correct":true,"confidence":4},{"trial_n":180,"n_dots":2.65,"target":"right","response":"right","rt":732,"correct":true,"confidence":3},{"trial_n":181,"n_dots":2.55,"target":"left","response":"left","rt":233.90000000596,"correct":true,"confidence":2},{"trial_n":182,"n_dots":2.55,"target":"left","response":"left","rt":1033.8000000119,"correct":true,"confidence":3},{"trial_n":183,"n_dots":2.45,"target":"right","response":"right","rt":287.79999998212,"correct":true,"confidence":3},{"trial_n":184,"n_dots":2.45,"target":"right","response":"right","rt":788.30000001192,"correct":true,"confidence":2},{"trial_n":185,"n_dots":2.35,"target":"left","response":"left","rt":511.19999998808,"correct":true,"confidence":4},{"trial_n":186,"n_dots":2.35,"target":"right","response":"right","rt":822.70000001788,"correct":true,"confidence":3},{"trial_n":187,"n_dots":2.25,"target":"left","response":"left","rt":344.20000001788,"correct":true,"confidence":4},{"trial_n":188,"n_dots":2.25,"target":"left","response":"right","rt":308.29999998212,"correct":false,"confidence":3},{"trial_n":189,"n_dots":2.35,"target":"right","response":"left","rt":593.90000000596,"correct":false,"confidence":2},{"trial_n":190,"n_dots":2.45,"target":"right","response":"right","rt":477.09999999404,"correct":true,"confidence":3},{"trial_n":191,"n_dots":2.45,"target":"left","response":"left","rt":326.69999998808,"correct":true,"confidence":2},{"trial_n":192,"n_dots":2.35,"target":"left","response":"left","rt":338,"correct":true,"confidence":3},{"trial_n":193,"n_dots":2.35,"target":"left","response":"right","rt":516.30000001192,"correct":false,"confidence":2},{"trial_n":194,"n_dots":2.45,"target":"right","response":"right","rt":296.89999997616,"correct":true,"confidence":5}]