[{"trial_n":1,"n_dots":4.25,"target":"right","response":"left","rt":2357.900000006,"correct":false,"confidence":-1},{"trial_n":2,"n_dots":4.25,"target":"left","response":"left","rt":687.69999998808,"correct":true,"confidence":-1},{"trial_n":3,"n_dots":4.25,"target":"left","response":"left","rt":343.40000000596,"correct":true,"confidence":-1},{"trial_n":4,"n_dots":3.85,"target":"left","response":"left","rt":348.30000001192,"correct":true,"confidence":-1},{"trial_n":5,"n_dots":3.85,"target":"left","response":"left","rt":453.90000000596,"correct":true,"confidence":-1},{"trial_n":6,"n_dots":3.45,"target":"right","response":"right","rt":405.40000000596,"correct":true,"confidence":-1},{"trial_n":7,"n_dots":3.45,"target":"left","response":"left","rt":314.80000001192,"correct":true,"confidence":-1},{"trial_n":8,"n_dots":3.25,"target":"right","response":"right","rt":462.80000001192,"correct":true,"confidence":-1},{"trial_n":9,"n_dots":3.25,"target":"left","response":"left","rt":16.5,"correct":true,"confidence":-1},{"trial_n":10,"n_dots":3.05,"target":"right","response":"right","rt":49.5,"correct":true,"confidence":-1},{"trial_n":11,"n_dots":3.05,"target":"left","response":"left","rt":2613.6999999881,"correct":true,"confidence":-1},{"trial_n":12,"n_dots":2.85,"target":"right","response":"right","rt":307.69999998808,"correct":true,"confidence":-1},{"trial_n":13,"n_dots":2.85,"target":"left","response":"left","rt":364.19999998808,"correct":true,"confidence":-1},{"trial_n":14,"n_dots":2.75,"target":"left","response":"left","rt":203.5,"correct":true,"confidence":-1},{"trial_n":15,"n_dots":2.75,"target":"right","response":"right","rt":13,"correct":true,"confidence":-1},{"trial_n":16,"n_dots":2.65,"target":"left","response":"left","rt":136,"correct":true,"confidence":-1},{"trial_n":17,"n_dots":2.65,"target":"left","response":"right","rt":320.19999998808,"correct":false,"confidence":-1},{"trial_n":18,"n_dots":2.75,"target":"left","response":"left","rt":331,"correct":true,"confidence":-1},{"trial_n":19,"n_dots":2.75,"target":"left","response":"left","rt":230.30000001192,"correct":true,"confidence":-1},{"trial_n":20,"n_dots":2.65,"target":"right","response":"right","rt":408.80000001192,"correct":true,"confidence":-1},{"trial_n":21,"n_dots":2.65,"target":"left","response":"right","rt":667.09999999404,"correct":false,"confidence":-1},{"trial_n":22,"n_dots":2.75,"target":"left","response":"left","rt":308.40000000596,"correct":true,"confidence":-1},{"trial_n":23,"n_dots":2.75,"target":"left","response":"right","rt":377.90000000596,"correct":false,"confidence":-1},{"trial_n":24,"n_dots":2.85,"target":"right","response":"left","rt":379.09999999404,"correct":false,"confidence":-1},{"trial_n":25,"n_dots":2.95,"target":"left","response":"left","rt":307.5,"correct":true,"confidence":-1},{"trial_n":26,"n_dots":2.95,"target":"right","response":"right","rt":554.70000001788,"correct":true,"confidence":-1},{"trial_n":27,"n_dots":2.85,"target":"right","response":"right","rt":737.90000000596,"correct":true,"confidence":4},{"trial_n":28,"n_dots":2.85,"target":"right","response":"right","rt":441.30000001192,"correct":true,"confidence":4},{"trial_n":29,"n_dots":2.75,"target":"left","response":"left","rt":322,"correct":true,"confidence":4},{"trial_n":30,"n_dots":2.75,"target":"right","response":"right","rt":763.70000001788,"correct":true,"confidence":3},{"trial_n":31,"n_dots":2.65,"target":"left","response":"left","rt":1148.1999999881,"correct":true,"confidence":5},{"trial_n":32,"n_dots":2.65,"target":"left","response":"right","rt":743.10000002384,"correct":false,"confidence":4},{"trial_n":33,"n_dots":2.75,"target":"right","response":"right","rt":819.69999998808,"correct":true,"confidence":4},{"trial_n":34,"n_dots":2.75,"target":"left","response":"right","rt":795.09999999404,"correct":false,"confidence":3},{"trial_n":35,"n_dots":2.85,"target":"right","response":"right","rt":718.19999998808,"correct":true,"confidence":3},{"trial_n":36,"n_dots":2.85,"target":"left","response":"left","rt":1685.8000000119,"correct":true,"confidence":5},{"trial_n":37,"n_dots":2.75,"target":"right","response":"right","rt":750,"correct":true,"confidence":3},{"trial_n":38,"n_dots":2.75,"target":"right","response":"left","rt":1155.2000000179,"correct":false,"confidence":4},{"trial_n":39,"n_dots":2.85,"target":"left","response":"left","rt":350.19999998808,"correct":true,"confidence":4},{"trial_n":40,"n_dots":2.85,"target":"left","response":"left","rt":1132.099999994,"correct":true,"confidence":4},{"trial_n":41,"n_dots":2.75,"target":"right","response":"left","rt":1012,"correct":false,"confidence":5},{"trial_n":42,"n_dots":2.85,"target":"left","response":"left","rt":708.80000001192,"correct":true,"confidence":5},{"trial_n":43,"n_dots":2.85,"target":"right","response":"right","rt":608.09999999404,"correct":true,"confidence":5},{"trial_n":44,"n_dots":2.75,"target":"right","response":"left","rt":823.5,"correct":false,"confidence":4},{"trial_n":45,"n_dots":2.85,"target":"right","response":"right","rt":692.59999999404,"correct":true,"confidence":4},{"trial_n":46,"n_dots":2.85,"target":"right","response":"right","rt":719.70000001788,"correct":true,"confidence":4},{"trial_n":47,"n_dots":2.75,"target":"right","response":"left","rt":1143.400000006,"correct":false,"confidence":2},{"trial_n":48,"n_dots":2.85,"target":"left","response":"left","rt":625.20000001788,"correct":true,"confidence":3},{"trial_n":49,"n_dots":2.85,"target":"left","response":"left","rt":828.60000002384,"correct":true,"confidence":3},{"trial_n":50,"n_dots":2.75,"target":"right","response":"right","rt":1249,"correct":true,"confidence":2},{"trial_n":51,"n_dots":2.75,"target":"left","response":"left","rt":906.69999998808,"correct":true,"confidence":3},{"trial_n":52,"n_dots":2.65,"target":"left","response":"left","rt":661.5,"correct":true,"confidence":4},{"trial_n":53,"n_dots":2.65,"target":"right","response":"right","rt":940.29999998212,"correct":true,"confidence":4},{"trial_n":54,"n_dots":2.55,"target":"left","response":"left","rt":626.09999999404,"correct":true,"confidence":5},{"trial_n":55,"n_dots":2.55,"target":"left","response":"left","rt":706.5,"correct":true,"confidence":3},{"trial_n":56,"n_dots":2.45,"target":"left","response":"right","rt":3045.3000000119,"correct":false,"confidence":4},{"trial_n":57,"n_dots":2.55,"target":"right","response":"right","rt":915.59999999404,"correct":true,"confidence":4},{"trial_n":58,"n_dots":2.55,"target":"right","response":"left","rt":1012.1000000238,"correct":false,"confidence":2},{"trial_n":59,"n_dots":2.65,"target":"left","response":"left","rt":661.19999998808,"correct":true,"confidence":5},{"trial_n":60,"n_dots":2.65,"target":"right","response":"right","rt":916.89999997616,"correct":true,"confidence":5},{"trial_n":61,"n_dots":2.55,"target":"right","response":"right","rt":797.80000001192,"correct":true,"confidence":5},{"trial_n":62,"n_dots":2.55,"target":"right","response":"left","rt":771.29999998212,"correct":false,"confidence":3},{"trial_n":63,"n_dots":2.65,"target":"left","response":"left","rt":523.29999998212,"correct":true,"confidence":5},{"trial_n":64,"n_dots":2.65,"target":"right","response":"right","rt":624.19999998808,"correct":true,"confidence":4},{"trial_n":65,"n_dots":2.55,"target":"right","response":"right","rt":1011.2000000179,"correct":true,"confidence":3},{"trial_n":66,"n_dots":2.55,"target":"left","response":"left","rt":693.30000001192,"correct":true,"confidence":4},{"trial_n":67,"n_dots":2.45,"target":"left","response":"left","rt":687.80000001192,"correct":true,"confidence":4},{"trial_n":68,"n_dots":2.45,"target":"right","response":"right","rt":1063,"correct":true,"confidence":2},{"trial_n":69,"n_dots":2.35,"target":"left","response":"right","rt":661,"correct":false,"confidence":3},{"trial_n":70,"n_dots":2.45,"target":"right","response":"right","rt":874.5,"correct":true,"confidence":4},{"trial_n":71,"n_dots":2.45,"target":"left","response":"left","rt":785.80000001192,"correct":true,"confidence":4},{"trial_n":72,"n_dots":2.35,"target":"left","response":"left","rt":737.19999998808,"correct":true,"confidence":3},{"trial_n":73,"n_dots":2.35,"target":"left","response":"right","rt":790.59999999404,"correct":false,"confidence":3},{"trial_n":74,"n_dots":2.45,"target":"left","response":"left","rt":1050,"correct":true,"confidence":4},{"trial_n":75,"n_dots":2.45,"target":"left","response":"right","rt":911,"correct":false,"confidence":4},{"trial_n":76,"n_dots":2.55,"target":"left","response":"right","rt":761.60000002384,"correct":false,"confidence":4},{"trial_n":77,"n_dots":2.65,"target":"left","response":"left","rt":732.80000001192,"correct":true,"confidence":3},{"trial_n":78,"n_dots":2.65,"target":"right","response":"left","rt":617.59999999404,"correct":false,"confidence":4},{"trial_n":79,"n_dots":2.75,"target":"right","response":"left","rt":734.70000001788,"correct":false,"confidence":4},{"trial_n":80,"n_dots":2.85,"target":"right","response":"right","rt":637.90000000596,"correct":true,"confidence":4},{"trial_n":81,"n_dots":2.85,"target":"left","response":"left","rt":644.59999999404,"correct":true,"confidence":4},{"trial_n":82,"n_dots":2.75,"target":"right","response":"right","rt":689.79999998212,"correct":true,"confidence":5},{"trial_n":83,"n_dots":2.75,"target":"right","response":"left","rt":510,"correct":false,"confidence":4},{"trial_n":84,"n_dots":2.85,"target":"right","response":"left","rt":845.69999998808,"correct":false,"confidence":3},{"trial_n":85,"n_dots":2.95,"target":"right","response":"left","rt":1758.5,"correct":false,"confidence":4},{"trial_n":86,"n_dots":3.05,"target":"left","response":"right","rt":766.79999998212,"correct":false,"confidence":3},{"trial_n":87,"n_dots":3.15,"target":"left","response":"left","rt":689.59999999404,"correct":true,"confidence":4},{"trial_n":88,"n_dots":3.15,"target":"left","response":"left","rt":629.60000002384,"correct":true,"confidence":4},{"trial_n":89,"n_dots":3.05,"target":"left","response":"left","rt":690.40000000596,"correct":true,"confidence":4},{"trial_n":90,"n_dots":3.05,"target":"left","response":"left","rt":613.70000001788,"correct":true,"confidence":4},{"trial_n":91,"n_dots":2.95,"target":"left","response":"left","rt":688.59999999404,"correct":true,"confidence":4},{"trial_n":92,"n_dots":2.95,"target":"right","response":"right","rt":491.5,"correct":true,"confidence":4},{"trial_n":93,"n_dots":2.85,"target":"right","response":"right","rt":719.20000001788,"correct":true,"confidence":4},{"trial_n":94,"n_dots":2.85,"target":"left","response":"left","rt":3507.7999999821,"correct":true,"confidence":4},{"trial_n":95,"n_dots":2.75,"target":"right","response":"right","rt":550.90000000596,"correct":true,"confidence":4},{"trial_n":96,"n_dots":2.75,"target":"right","response":"left","rt":499.79999998212,"correct":false,"confidence":5},{"trial_n":97,"n_dots":2.85,"target":"left","response":"left","rt":578.69999998808,"correct":true,"confidence":4},{"trial_n":98,"n_dots":2.85,"target":"right","response":"right","rt":627.5,"correct":true,"confidence":5},{"trial_n":99,"n_dots":2.75,"target":"left","response":"left","rt":1245.1999999881,"correct":true,"confidence":2},{"trial_n":100,"n_dots":2.75,"target":"right","response":"right","rt":595,"correct":true,"confidence":4},{"trial_n":101,"n_dots":2.65,"target":"right","response":"left","rt":724.40000000596,"correct":false,"confidence":3},{"trial_n":102,"n_dots":2.75,"target":"right","response":"right","rt":560,"correct":true,"confidence":5},{"trial_n":103,"n_dots":2.75,"target":"right","response":"left","rt":685.90000000596,"correct":false,"confidence":4},{"trial_n":104,"n_dots":2.85,"target":"left","response":"left","rt":1075.7000000179,"correct":true,"confidence":4},{"trial_n":105,"n_dots":2.85,"target":"left","response":"right","rt":1283.599999994,"correct":false,"confidence":4},{"trial_n":106,"n_dots":2.95,"target":"left","response":"left","rt":790.79999998212,"correct":true,"confidence":3},{"trial_n":107,"n_dots":2.95,"target":"right","response":"right","rt":676.80000001192,"correct":true,"confidence":4},{"trial_n":108,"n_dots":2.85,"target":"left","response":"right","rt":774.70000001788,"correct":false,"confidence":4},{"trial_n":109,"n_dots":2.95,"target":"right","response":"right","rt":11917.099999994,"correct":true,"confidence":4},{"trial_n":110,"n_dots":2.95,"target":"right","response":"left","rt":1095,"correct":false,"confidence":4},{"trial_n":111,"n_dots":3.05,"target":"left","response":"right","rt":933.80000001192,"correct":false,"confidence":2},{"trial_n":112,"n_dots":3.15,"target":"right","response":"left","rt":683.80000001192,"correct":false,"confidence":4},{"trial_n":113,"n_dots":3.25,"target":"left","response":"left","rt":937.70000001788,"correct":true,"confidence":4},{"trial_n":114,"n_dots":3.25,"target":"right","response":"right","rt":794.19999998808,"correct":true,"confidence":4},{"trial_n":115,"n_dots":3.15,"target":"left","response":"left","rt":678.30000001192,"correct":true,"confidence":4},{"trial_n":116,"n_dots":3.15,"target":"right","response":"right","rt":1194.5,"correct":true,"confidence":2},{"trial_n":117,"n_dots":3.05,"target":"right","response":"right","rt":728.10000002384,"correct":true,"confidence":4},{"trial_n":118,"n_dots":3.05,"target":"right","response":"right","rt":741.60000002384,"correct":true,"confidence":3},{"trial_n":119,"n_dots":2.95,"target":"right","response":"right","rt":830.5,"correct":true,"confidence":4},{"trial_n":120,"n_dots":2.95,"target":"left","response":"left","rt":4108.099999994,"correct":true,"confidence":3},{"trial_n":121,"n_dots":2.85,"target":"right","response":"right","rt":350.59999999404,"correct":true,"confidence":4},{"trial_n":122,"n_dots":2.85,"target":"left","response":"left","rt":605,"correct":true,"confidence":4},{"trial_n":123,"n_dots":2.75,"target":"right","response":"right","rt":789.90000000596,"correct":true,"confidence":4},{"trial_n":124,"n_dots":2.75,"target":"left","response":"left","rt":611.39999997616,"correct":true,"confidence":4},{"trial_n":125,"n_dots":2.65,"target":"right","response":"right","rt":1051.400000006,"correct":true,"confidence":4},{"trial_n":126,"n_dots":2.65,"target":"left","response":"left","rt":540.90000000596,"correct":true,"confidence":4},{"trial_n":127,"n_dots":2.55,"target":"left","response":"left","rt":804.19999998808,"correct":true,"confidence":4},{"trial_n":128,"n_dots":2.55,"target":"right","response":"right","rt":597.20000001788,"correct":true,"confidence":5},{"trial_n":129,"n_dots":2.45,"target":"right","response":"left","rt":771.80000001192,"correct":false,"confidence":6},{"trial_n":130,"n_dots":2.55,"target":"left","response":"left","rt":981.09999999404,"correct":true,"confidence":5},{"trial_n":131,"n_dots":2.55,"target":"left","response":"right","rt":2042.400000006,"correct":false,"confidence":2},{"trial_n":132,"n_dots":2.65,"target":"left","response":"left","rt":944,"correct":true,"confidence":4},{"trial_n":133,"n_dots":2.65,"target":"left","response":"left","rt":1107.8000000119,"correct":true,"confidence":3},{"trial_n":134,"n_dots":2.55,"target":"right","response":"right","rt":833.79999998212,"correct":true,"confidence":4},{"trial_n":135,"n_dots":2.55,"target":"left","response":"left","rt":775.09999999404,"correct":true,"confidence":3},{"trial_n":136,"n_dots":2.45,"target":"left","response":"right","rt":1574.8000000119,"correct":false,"confidence":2},{"trial_n":137,"n_dots":2.55,"target":"left","response":"left","rt":545.39999997616,"correct":true,"confidence":5},{"trial_n":138,"n_dots":2.55,"target":"right","response":"left","rt":759.59999999404,"correct":false,"confidence":3},{"trial_n":139,"n_dots":2.65,"target":"right","response":"right","rt":776.90000000596,"correct":true,"confidence":4},{"trial_n":140,"n_dots":2.65,"target":"right","response":"right","rt":1009.8000000119,"correct":true,"confidence":2},{"trial_n":141,"n_dots":2.55,"target":"right","response":"right","rt":1465,"correct":true,"confidence":3},{"trial_n":142,"n_dots":2.55,"target":"right","response":"right","rt":1300.5,"correct":true,"confidence":4},{"trial_n":143,"n_dots":2.45,"target":"right","response":"right","rt":679.30000001192,"correct":true,"confidence":4},{"trial_n":144,"n_dots":2.45,"target":"left","response":"left","rt":966.59999999404,"correct":true,"confidence":3},{"trial_n":145,"n_dots":2.35,"target":"right","response":"right","rt":670,"correct":true,"confidence":3},{"trial_n":146,"n_dots":2.35,"target":"right","response":"right","rt":568,"correct":true,"confidence":5},{"trial_n":147,"n_dots":2.25,"target":"right","response":"left","rt":429.09999999404,"correct":false,"confidence":3},{"trial_n":148,"n_dots":2.35,"target":"right","response":"right","rt":663.69999998808,"correct":true,"confidence":5},{"trial_n":149,"n_dots":2.35,"target":"right","response":"left","rt":619.90000000596,"correct":false,"confidence":4},{"trial_n":150,"n_dots":2.45,"target":"right","response":"right","rt":661.5,"correct":true,"confidence":5},{"trial_n":151,"n_dots":2.45,"target":"left","response":"left","rt":672,"correct":true,"confidence":3},{"trial_n":152,"n_dots":2.35,"target":"left","response":"left","rt":550.09999999404,"correct":true,"confidence":1},{"trial_n":153,"n_dots":2.35,"target":"right","response":"left","rt":1076.400000006,"correct":false,"confidence":3},{"trial_n":154,"n_dots":2.45,"target":"left","response":"left","rt":836.5,"correct":true,"confidence":4},{"trial_n":155,"n_dots":2.45,"target":"right","response":"right","rt":671.40000000596,"correct":true,"confidence":3},{"trial_n":156,"n_dots":2.35,"target":"right","response":"right","rt":571.39999997616,"correct":true,"confidence":4},{"trial_n":157,"n_dots":2.35,"target":"right","response":"left","rt":644.20000001788,"correct":false,"confidence":3},{"trial_n":158,"n_dots":2.45,"target":"left","response":"left","rt":536.90000000596,"correct":true,"confidence":4},{"trial_n":159,"n_dots":2.45,"target":"left","response":"left","rt":595.90000000596,"correct":true,"confidence":4},{"trial_n":160,"n_dots":2.35,"target":"right","response":"left","rt":690.70000001788,"correct":false,"confidence":4},{"trial_n":161,"n_dots":2.45,"target":"left","response":"right","rt":507.30000001192,"correct":false,"confidence":5},{"trial_n":162,"n_dots":2.55,"target":"left","response":"left","rt":383.80000001192,"correct":true,"confidence":5},{"trial_n":163,"n_dots":2.55,"target":"right","response":"right","rt":538.39999997616,"correct":true,"confidence":4},{"trial_n":164,"n_dots":2.45,"target":"left","response":"right","rt":510.5,"correct":false,"confidence":5},{"trial_n":165,"n_dots":2.55,"target":"left","response":"left","rt":543,"correct":true,"confidence":5},{"trial_n":166,"n_dots":2.55,"target":"right","response":"right","rt":641.19999998808,"correct":true,"confidence":4},{"trial_n":167,"n_dots":2.45,"target":"left","response":"right","rt":569.90000000596,"correct":false,"confidence":5},{"trial_n":168,"n_dots":2.55,"target":"left","response":"left","rt":590.29999998212,"correct":true,"confidence":4},{"trial_n":169,"n_dots":2.55,"target":"left","response":"right","rt":1590.6999999881,"correct":false,"confidence":4},{"trial_n":170,"n_dots":2.65,"target":"right","response":"right","rt":1515.6999999881,"correct":true,"confidence":3},{"trial_n":171,"n_dots":2.65,"target":"left","response":"left","rt":1508.6999999881,"correct":true,"confidence":3},{"trial_n":172,"n_dots":2.55,"target":"left","response":"right","rt":514.5,"correct":false,"confidence":5},{"trial_n":173,"n_dots":2.65,"target":"right","response":"right","rt":830.89999997616,"correct":true,"confidence":4},{"trial_n":174,"n_dots":2.65,"target":"left","response":"right","rt":1498.1999999881,"correct":false,"confidence":3},{"trial_n":175,"n_dots":2.75,"target":"right","response":"right","rt":1562.900000006,"correct":true,"confidence":4},{"trial_n":176,"n_dots":2.75,"target":"right","response":"right","rt":1216.900000006,"correct":true,"confidence":4},{"trial_n":177,"n_dots":2.65,"target":"left","response":"right","rt":750.09999999404,"correct":false,"confidence":4},{"trial_n":178,"n_dots":2.75,"target":"left","response":"right","rt":772.90000000596,"correct":false,"confidence":4},{"trial_n":179,"n_dots":2.85,"target":"right","response":"left","rt":809.29999998212,"correct":false,"confidence":4},{"trial_n":180,"n_dots":2.95,"target":"left","response":"left","rt":434.60000002384,"correct":true,"confidence":4},{"trial_n":181,"n_dots":2.95,"target":"left","response":"right","rt":443,"correct":false,"confidence":5},{"trial_n":182,"n_dots":3.05,"target":"right","response":"right","rt":524.59999999404,"correct":true,"confidence":4},{"trial_n":183,"n_dots":3.05,"target":"right","response":"left","rt":676.69999998808,"correct":false,"confidence":4},{"trial_n":184,"n_dots":3.15,"target":"left","response":"left","rt":1099.2999999821,"correct":true,"confidence":4},{"trial_n":185,"n_dots":3.15,"target":"right","response":"right","rt":1505.6999999881,"correct":true,"confidence":4},{"trial_n":186,"n_dots":3.05,"target":"left","response":"left","rt":701.5,"correct":true,"confidence":3},{"trial_n":187,"n_dots":3.05,"target":"right","response":"left","rt":820.79999998212,"correct":false,"confidence":4},{"trial_n":188,"n_dots":3.15,"target":"right","response":"right","rt":871.59999999404,"correct":true,"confidence":4},{"trial_n":189,"n_dots":3.15,"target":"right","response":"right","rt":2616.6999999881,"correct":true,"confidence":3},{"trial_n":190,"n_dots":3.05,"target":"left","response":"left","rt":789.19999998808,"correct":true,"confidence":4},{"trial_n":191,"n_dots":3.05,"target":"right","response":"right","rt":1269.400000006,"correct":true,"confidence":4},{"trial_n":192,"n_dots":2.95,"target":"right","response":"right","rt":1012.3999999762,"correct":true,"confidence":4},{"trial_n":193,"n_dots":2.95,"target":"right","response":"left","rt":659.70000001788,"correct":false,"confidence":3},{"trial_n":194,"n_dots":3.05,"target":"left","response":"right","rt":694.10000002384,"correct":false,"confidence":4}]