[{"trial_n":1,"n_dots":4.25,"target":"left","response":"left","rt":2272,"correct":true,"confidence":-1},{"trial_n":2,"n_dots":4.25,"target":"right","response":"right","rt":788,"correct":true,"confidence":-1},{"trial_n":3,"n_dots":3.85,"target":"left","response":"left","rt":525,"correct":true,"confidence":-1},{"trial_n":4,"n_dots":3.85,"target":"right","response":"right","rt":461,"correct":true,"confidence":-1},{"trial_n":5,"n_dots":3.45,"target":"left","response":"left","rt":573,"correct":true,"confidence":-1},{"trial_n":6,"n_dots":3.45,"target":"left","response":"right","rt":671,"correct":false,"confidence":-1},{"trial_n":7,"n_dots":3.85,"target":"left","response":"left","rt":761,"correct":true,"confidence":-1},{"trial_n":8,"n_dots":3.85,"target":"right","response":"right","rt":505,"correct":true,"confidence":-1},{"trial_n":9,"n_dots":3.65,"target":"left","response":"left","rt":389,"correct":true,"confidence":-1},{"trial_n":10,"n_dots":3.65,"target":"left","response":"left","rt":399,"correct":true,"confidence":-1},{"trial_n":11,"n_dots":3.45,"target":"right","response":"right","rt":619,"correct":true,"confidence":-1},{"trial_n":12,"n_dots":3.45,"target":"right","response":"right","rt":570,"correct":true,"confidence":-1},{"trial_n":13,"n_dots":3.35,"target":"left","response":"left","rt":783,"correct":true,"confidence":-1},{"trial_n":14,"n_dots":3.35,"target":"right","response":"right","rt":592,"correct":true,"confidence":-1},{"trial_n":15,"n_dots":3.25,"target":"right","response":"left","rt":441,"correct":false,"confidence":-1},{"trial_n":16,"n_dots":3.35,"target":"right","response":"right","rt":396,"correct":true,"confidence":-1},{"trial_n":17,"n_dots":3.35,"target":"right","response":"right","rt":377,"correct":true,"confidence":-1},{"trial_n":18,"n_dots":3.25,"target":"left","response":"left","rt":286,"correct":true,"confidence":-1},{"trial_n":19,"n_dots":3.25,"target":"left","response":"left","rt":364,"correct":true,"confidence":-1},{"trial_n":20,"n_dots":3.15,"target":"right","response":"right","rt":598,"correct":true,"confidence":-1},{"trial_n":21,"n_dots":3.15,"target":"right","response":"right","rt":1002,"correct":true,"confidence":-1},{"trial_n":22,"n_dots":3.05,"target":"right","response":"right","rt":431,"correct":true,"confidence":-1},{"trial_n":23,"n_dots":3.05,"target":"left","response":"right","rt":535,"correct":false,"confidence":-1},{"trial_n":24,"n_dots":3.15,"target":"left","response":"left","rt":479,"correct":true,"confidence":-1},{"trial_n":25,"n_dots":3.15,"target":"right","response":"left","rt":610,"correct":false,"confidence":-1},{"trial_n":26,"n_dots":3.25,"target":"right","response":"right","rt":363,"correct":true,"confidence":-1},{"trial_n":27,"n_dots":3.25,"target":"left","response":"left","rt":424,"correct":true,"confidence":6},{"trial_n":28,"n_dots":3.15,"target":"right","response":"right","rt":1031,"correct":true,"confidence":3},{"trial_n":29,"n_dots":3.15,"target":"left","response":"left","rt":599,"correct":true,"confidence":5},{"trial_n":30,"n_dots":3.05,"target":"left","response":"left","rt":389,"correct":true,"confidence":6},{"trial_n":31,"n_dots":3.05,"target":"left","response":"left","rt":677,"correct":true,"confidence":6},{"trial_n":32,"n_dots":2.95,"target":"left","response":"left","rt":514,"correct":true,"confidence":6},{"trial_n":33,"n_dots":2.95,"target":"right","response":"left","rt":396,"correct":false,"confidence":5},{"trial_n":34,"n_dots":3.05,"target":"right","response":"right","rt":2677,"correct":true,"confidence":1},{"trial_n":35,"n_dots":3.05,"target":"left","response":"left","rt":533,"correct":true,"confidence":6},{"trial_n":36,"n_dots":2.95,"target":"right","response":"right","rt":1307,"correct":true,"confidence":3},{"trial_n":37,"n_dots":2.95,"target":"left","response":"left","rt":1254,"correct":true,"confidence":6},{"trial_n":38,"n_dots":2.85,"target":"left","response":"left","rt":1007,"correct":true,"confidence":6},{"trial_n":39,"n_dots":2.85,"target":"left","response":"left","rt":1217,"correct":true,"confidence":2},{"trial_n":40,"n_dots":2.75,"target":"left","response":"left","rt":919,"correct":true,"confidence":5},{"trial_n":41,"n_dots":2.75,"target":"right","response":"right","rt":1955,"correct":true,"confidence":2},{"trial_n":42,"n_dots":2.65,"target":"right","response":"right","rt":901,"correct":true,"confidence":1},{"trial_n":43,"n_dots":2.65,"target":"left","response":"left","rt":1950,"correct":true,"confidence":1},{"trial_n":44,"n_dots":2.55,"target":"left","response":"right","rt":1592,"correct":false,"confidence":2},{"trial_n":45,"n_dots":2.65,"target":"left","response":"right","rt":822,"correct":false,"confidence":4},{"trial_n":46,"n_dots":2.75,"target":"right","response":"right","rt":617,"correct":true,"confidence":5},{"trial_n":47,"n_dots":2.75,"target":"left","response":"right","rt":698,"correct":false,"confidence":5},{"trial_n":48,"n_dots":2.85,"target":"left","response":"left","rt":988,"correct":true,"confidence":4},{"trial_n":49,"n_dots":2.85,"target":"right","response":"right","rt":1085,"correct":true,"confidence":2},{"trial_n":50,"n_dots":2.75,"target":"left","response":"right","rt":713,"correct":false,"confidence":1},{"trial_n":51,"n_dots":2.85,"target":"right","response":"right","rt":777,"correct":true,"confidence":6},{"trial_n":52,"n_dots":2.85,"target":"right","response":"right","rt":744,"correct":true,"confidence":6},{"trial_n":53,"n_dots":2.75,"target":"right","response":"right","rt":582,"correct":true,"confidence":6},{"trial_n":54,"n_dots":2.75,"target":"right","response":"right","rt":997,"correct":true,"confidence":5},{"trial_n":55,"n_dots":2.65,"target":"right","response":"right","rt":2387,"correct":true,"confidence":2},{"trial_n":56,"n_dots":2.65,"target":"left","response":"right","rt":1362,"correct":false,"confidence":2},{"trial_n":57,"n_dots":2.75,"target":"right","response":"right","rt":1067,"correct":true,"confidence":6},{"trial_n":58,"n_dots":2.75,"target":"left","response":"right","rt":1163,"correct":false,"confidence":2},{"trial_n":59,"n_dots":2.85,"target":"right","response":"right","rt":1723,"correct":true,"confidence":1},{"trial_n":60,"n_dots":2.85,"target":"right","response":"right","rt":1712,"correct":true,"confidence":1},{"trial_n":61,"n_dots":2.75,"target":"right","response":"left","rt":2379,"correct":false,"confidence":2},{"trial_n":62,"n_dots":2.85,"target":"right","response":"right","rt":1235,"correct":true,"confidence":2},{"trial_n":63,"n_dots":2.85,"target":"right","response":"right","rt":887,"correct":true,"confidence":4},{"trial_n":64,"n_dots":2.75,"target":"left","response":"left","rt":4218,"correct":true,"confidence":1},{"trial_n":65,"n_dots":2.75,"target":"right","response":"right","rt":1947,"correct":true,"confidence":1},{"trial_n":66,"n_dots":2.65,"target":"left","response":"left","rt":653,"correct":true,"confidence":6},{"trial_n":67,"n_dots":2.65,"target":"right","response":"right","rt":2095,"correct":true,"confidence":3},{"trial_n":68,"n_dots":2.55,"target":"left","response":"right","rt":733,"correct":false,"confidence":6},{"trial_n":69,"n_dots":2.65,"target":"left","response":"left","rt":415,"correct":true,"confidence":6},{"trial_n":70,"n_dots":2.65,"target":"left","response":"left","rt":430,"correct":true,"confidence":5},{"trial_n":71,"n_dots":2.55,"target":"right","response":"right","rt":2895,"correct":true,"confidence":3},{"trial_n":72,"n_dots":2.55,"target":"left","response":"left","rt":695,"correct":true,"confidence":2},{"trial_n":73,"n_dots":2.45,"target":"right","response":"left","rt":649,"correct":false,"confidence":2},{"trial_n":74,"n_dots":2.55,"target":"left","response":"left","rt":608,"correct":true,"confidence":2},{"trial_n":75,"n_dots":2.55,"target":"right","response":"right","rt":1182,"correct":true,"confidence":2},{"trial_n":76,"n_dots":2.45,"target":"right","response":"right","rt":871,"correct":true,"confidence":5},{"trial_n":77,"n_dots":2.45,"target":"right","response":"right","rt":504,"correct":true,"confidence":6},{"trial_n":78,"n_dots":2.35,"target":"left","response":"right","rt":1354,"correct":false,"confidence":4},{"trial_n":79,"n_dots":2.45,"target":"right","response":"left","rt":2180,"correct":false,"confidence":4},{"trial_n":80,"n_dots":2.55,"target":"right","response":"left","rt":4003,"correct":false,"confidence":3},{"trial_n":81,"n_dots":2.65,"target":"right","response":"right","rt":430,"correct":true,"confidence":4},{"trial_n":82,"n_dots":2.65,"target":"left","response":"left","rt":489,"correct":true,"confidence":6},{"trial_n":83,"n_dots":2.55,"target":"left","response":"left","rt":581,"correct":true,"confidence":6},{"trial_n":84,"n_dots":2.55,"target":"right","response":"right","rt":1621,"correct":true,"confidence":4},{"trial_n":85,"n_dots":2.45,"target":"left","response":"left","rt":384,"correct":true,"confidence":6},{"trial_n":86,"n_dots":2.45,"target":"left","response":"left","rt":681,"correct":true,"confidence":5},{"trial_n":87,"n_dots":2.35,"target":"left","response":"left","rt":465,"correct":true,"confidence":5},{"trial_n":88,"n_dots":2.35,"target":"left","response":"left","rt":565,"correct":true,"confidence":6},{"trial_n":89,"n_dots":2.25,"target":"right","response":"right","rt":1171,"correct":true,"confidence":1},{"trial_n":90,"n_dots":2.25,"target":"right","response":"left","rt":2312,"correct":false,"confidence":2},{"trial_n":91,"n_dots":2.35,"target":"left","response":"left","rt":508,"correct":true,"confidence":6},{"trial_n":92,"n_dots":2.35,"target":"left","response":"left","rt":1119,"correct":true,"confidence":5},{"trial_n":93,"n_dots":2.25,"target":"left","response":"left","rt":1002,"correct":true,"confidence":5},{"trial_n":94,"n_dots":2.25,"target":"right","response":"left","rt":1801,"correct":false,"confidence":5},{"trial_n":95,"n_dots":2.35,"target":"right","response":"left","rt":1405,"correct":false,"confidence":4},{"trial_n":96,"n_dots":2.45,"target":"right","response":"left","rt":719,"correct":false,"confidence":4},{"trial_n":97,"n_dots":2.55,"target":"right","response":"right","rt":778,"correct":true,"confidence":5},{"trial_n":98,"n_dots":2.55,"target":"right","response":"right","rt":1697,"correct":true,"confidence":3},{"trial_n":99,"n_dots":2.45,"target":"right","response":"left","rt":1461,"correct":false,"confidence":4},{"trial_n":100,"n_dots":2.55,"target":"right","response":"right","rt":413,"correct":true,"confidence":5},{"trial_n":101,"n_dots":2.55,"target":"left","response":"left","rt":1429,"correct":true,"confidence":2},{"trial_n":102,"n_dots":2.45,"target":"left","response":"right","rt":2089,"correct":false,"confidence":1},{"trial_n":103,"n_dots":2.55,"target":"left","response":"left","rt":893,"correct":true,"confidence":4},{"trial_n":104,"n_dots":2.55,"target":"right","response":"left","rt":2805,"correct":false,"confidence":1},{"trial_n":105,"n_dots":2.65,"target":"right","response":"right","rt":1905,"correct":true,"confidence":3},{"trial_n":106,"n_dots":2.65,"target":"right","response":"right","rt":588,"correct":true,"confidence":5},{"trial_n":107,"n_dots":2.55,"target":"left","response":"left","rt":1488,"correct":true,"confidence":3},{"trial_n":108,"n_dots":2.55,"target":"left","response":"right","rt":470,"correct":false,"confidence":3},{"trial_n":109,"n_dots":2.65,"target":"left","response":"left","rt":365,"correct":true,"confidence":6},{"trial_n":110,"n_dots":2.65,"target":"right","response":"left","rt":766,"correct":false,"confidence":4},{"trial_n":111,"n_dots":2.75,"target":"right","response":"right","rt":1002,"correct":true,"confidence":4},{"trial_n":112,"n_dots":2.75,"target":"right","response":"right","rt":881,"correct":true,"confidence":4},{"trial_n":113,"n_dots":2.65,"target":"left","response":"right","rt":1489,"correct":false,"confidence":1},{"trial_n":114,"n_dots":2.75,"target":"left","response":"left","rt":492,"correct":true,"confidence":6},{"trial_n":115,"n_dots":2.75,"target":"left","response":"left","rt":463,"correct":true,"confidence":6},{"trial_n":116,"n_dots":2.65,"target":"right","response":"left","rt":847,"correct":false,"confidence":6},{"trial_n":117,"n_dots":2.75,"target":"left","response":"left","rt":711,"correct":true,"confidence":6},{"trial_n":118,"n_dots":2.75,"target":"right","response":"left","rt":1976,"correct":false,"confidence":5},{"trial_n":119,"n_dots":2.85,"target":"right","response":"right","rt":1000,"correct":true,"confidence":4},{"trial_n":120,"n_dots":2.85,"target":"right","response":"right","rt":1041,"correct":true,"confidence":4},{"trial_n":121,"n_dots":2.75,"target":"left","response":"left","rt":684,"correct":true,"confidence":5},{"trial_n":122,"n_dots":2.75,"target":"left","response":"left","rt":959,"correct":true,"confidence":4},{"trial_n":123,"n_dots":2.65,"target":"left","response":"left","rt":973,"correct":true,"confidence":4},{"trial_n":124,"n_dots":2.65,"target":"left","response":"left","rt":724,"correct":true,"confidence":5},{"trial_n":125,"n_dots":2.55,"target":"left","response":"left","rt":389,"correct":true,"confidence":6},{"trial_n":126,"n_dots":2.55,"target":"left","response":"left","rt":1241,"correct":true,"confidence":6},{"trial_n":127,"n_dots":2.45,"target":"right","response":"right","rt":605,"correct":true,"confidence":5},{"trial_n":128,"n_dots":2.45,"target":"right","response":"right","rt":909,"correct":true,"confidence":4},{"trial_n":129,"n_dots":2.35,"target":"right","response":"left","rt":1542,"correct":false,"confidence":4},{"trial_n":130,"n_dots":2.45,"target":"left","response":"left","rt":545,"correct":true,"confidence":5},{"trial_n":131,"n_dots":2.45,"target":"right","response":"right","rt":565,"correct":true,"confidence":4},{"trial_n":132,"n_dots":2.35,"target":"right","response":"right","rt":880,"correct":true,"confidence":2},{"trial_n":133,"n_dots":2.35,"target":"right","response":"left","rt":449,"correct":false,"confidence":4},{"trial_n":134,"n_dots":2.45,"target":"left","response":"left","rt":454,"correct":true,"confidence":6},{"trial_n":135,"n_dots":2.45,"target":"left","response":"left","rt":351,"correct":true,"confidence":6},{"trial_n":136,"n_dots":2.35,"target":"left","response":"left","rt":388,"correct":true,"confidence":6},{"trial_n":137,"n_dots":2.35,"target":"right","response":"left","rt":394,"correct":false,"confidence":4},{"trial_n":138,"n_dots":2.45,"target":"left","response":"left","rt":401,"correct":true,"confidence":6},{"trial_n":139,"n_dots":2.45,"target":"right","response":"right","rt":1243,"correct":true,"confidence":2},{"trial_n":140,"n_dots":2.35,"target":"left","response":"left","rt":728,"correct":true,"confidence":5},{"trial_n":141,"n_dots":2.35,"target":"left","response":"left","rt":713,"correct":true,"confidence":5},{"trial_n":142,"n_dots":2.25,"target":"right","response":"left","rt":843,"correct":false,"confidence":5},{"trial_n":143,"n_dots":2.35,"target":"right","response":"right","rt":918,"correct":true,"confidence":4},{"trial_n":144,"n_dots":2.35,"target":"right","response":"left","rt":587,"correct":false,"confidence":6},{"trial_n":145,"n_dots":2.45,"target":"right","response":"right","rt":582,"correct":true,"confidence":3},{"trial_n":146,"n_dots":2.45,"target":"left","response":"right","rt":877,"correct":false,"confidence":4},{"trial_n":147,"n_dots":2.55,"target":"left","response":"left","rt":430,"correct":true,"confidence":5},{"trial_n":148,"n_dots":2.55,"target":"right","response":"right","rt":1741,"correct":true,"confidence":5},{"trial_n":149,"n_dots":2.45,"target":"left","response":"left","rt":410,"correct":true,"confidence":6},{"trial_n":150,"n_dots":2.45,"target":"left","response":"left","rt":403,"correct":true,"confidence":1},{"trial_n":151,"n_dots":2.35,"target":"left","response":"left","rt":1207,"correct":true,"confidence":6},{"trial_n":152,"n_dots":2.35,"target":"left","response":"left","rt":754,"correct":true,"confidence":4},{"trial_n":153,"n_dots":2.25,"target":"left","response":"left","rt":1320,"correct":true,"confidence":5},{"trial_n":154,"n_dots":2.25,"target":"right","response":"right","rt":2134,"correct":true,"confidence":5},{"trial_n":155,"n_dots":2.15,"target":"left","response":"left","rt":534,"correct":true,"confidence":6},{"trial_n":156,"n_dots":2.15,"target":"right","response":"left","rt":366,"correct":false,"confidence":6},{"trial_n":157,"n_dots":2.25,"target":"left","response":"left","rt":366,"correct":true,"confidence":6},{"trial_n":158,"n_dots":2.25,"target":"left","response":"left","rt":495,"correct":true,"confidence":5},{"trial_n":159,"n_dots":2.15,"target":"left","response":"left","rt":516,"correct":true,"confidence":6},{"trial_n":160,"n_dots":2.15,"target":"right","response":"right","rt":2571,"correct":true,"confidence":1},{"trial_n":161,"n_dots":2.05,"target":"left","response":"left","rt":401,"correct":true,"confidence":6},{"trial_n":162,"n_dots":2.05,"target":"right","response":"left","rt":1000,"correct":false,"confidence":4},{"trial_n":163,"n_dots":2.15,"target":"left","response":"left","rt":415,"correct":true,"confidence":6},{"trial_n":164,"n_dots":2.15,"target":"right","response":"right","rt":633,"correct":true,"confidence":4},{"trial_n":165,"n_dots":2.05,"target":"right","response":"left","rt":634,"correct":false,"confidence":4},{"trial_n":166,"n_dots":2.15,"target":"right","response":"left","rt":2494,"correct":false,"confidence":2},{"trial_n":167,"n_dots":2.25,"target":"left","response":"right","rt":827,"correct":false,"confidence":5},{"trial_n":168,"n_dots":2.35,"target":"left","response":"left","rt":652,"correct":true,"confidence":3},{"trial_n":169,"n_dots":2.35,"target":"right","response":"right","rt":466,"correct":true,"confidence":2},{"trial_n":170,"n_dots":2.25,"target":"right","response":"left","rt":743,"correct":false,"confidence":5},{"trial_n":171,"n_dots":2.35,"target":"left","response":"left","rt":773,"correct":true,"confidence":4},{"trial_n":172,"n_dots":2.35,"target":"left","response":"left","rt":466,"correct":true,"confidence":5},{"trial_n":173,"n_dots":2.25,"target":"right","response":"left","rt":474,"correct":false,"confidence":5},{"trial_n":174,"n_dots":2.35,"target":"right","response":"left","rt":653,"correct":false,"confidence":4},{"trial_n":175,"n_dots":2.45,"target":"left","response":"left","rt":425,"correct":true,"confidence":5},{"trial_n":176,"n_dots":2.45,"target":"right","response":"left","rt":461,"correct":false,"confidence":5},{"trial_n":177,"n_dots":2.55,"target":"right","response":"left","rt":852,"correct":false,"confidence":3},{"trial_n":178,"n_dots":2.65,"target":"left","response":"left","rt":395,"correct":true,"confidence":6},{"trial_n":179,"n_dots":2.65,"target":"left","response":"left","rt":622,"correct":true,"confidence":6},{"trial_n":180,"n_dots":2.55,"target":"right","response":"left","rt":397,"correct":false,"confidence":6},{"trial_n":181,"n_dots":2.65,"target":"left","response":"left","rt":659,"correct":true,"confidence":4},{"trial_n":182,"n_dots":2.65,"target":"right","response":"left","rt":401,"correct":false,"confidence":6},{"trial_n":183,"n_dots":2.75,"target":"right","response":"right","rt":1129,"correct":true,"confidence":3},{"trial_n":184,"n_dots":2.75,"target":"right","response":"right","rt":534,"correct":true,"confidence":5},{"trial_n":185,"n_dots":2.65,"target":"right","response":"right","rt":780,"correct":true,"confidence":5},{"trial_n":186,"n_dots":2.65,"target":"right","response":"left","rt":365,"correct":false,"confidence":5},{"trial_n":187,"n_dots":2.75,"target":"left","response":"left","rt":366,"correct":true,"confidence":5},{"trial_n":188,"n_dots":2.75,"target":"left","response":"left","rt":352,"correct":true,"confidence":6},{"trial_n":189,"n_dots":2.65,"target":"right","response":"right","rt":1410,"correct":true,"confidence":4},{"trial_n":190,"n_dots":2.65,"target":"left","response":"left","rt":442,"correct":true,"confidence":6},{"trial_n":191,"n_dots":2.55,"target":"right","response":"right","rt":1897,"correct":true,"confidence":2},{"trial_n":192,"n_dots":2.55,"target":"left","response":"left","rt":2342,"correct":true,"confidence":1},{"trial_n":193,"n_dots":2.45,"target":"left","response":"left","rt":479,"correct":true,"confidence":5},{"trial_n":194,"n_dots":2.45,"target":"left","response":"left","rt":1141,"correct":true,"confidence":4}]