[{"trial_n":1,"n_dots":4.25,"target":"left","response":"right","rt":1283,"correct":false,"confidence":-1},{"trial_n":2,"n_dots":4.25,"target":"right","response":"right","rt":633.00000000006,"correct":true,"confidence":-1},{"trial_n":3,"n_dots":4.25,"target":"left","response":"left","rt":280,"correct":true,"confidence":-1},{"trial_n":4,"n_dots":3.85,"target":"right","response":"right","rt":419,"correct":true,"confidence":-1},{"trial_n":5,"n_dots":3.85,"target":"right","response":"right","rt":165,"correct":true,"confidence":-1},{"trial_n":6,"n_dots":3.45,"target":"right","response":"left","rt":204,"correct":false,"confidence":-1},{"trial_n":7,"n_dots":3.85,"target":"right","response":"right","rt":336,"correct":true,"confidence":-1},{"trial_n":8,"n_dots":3.85,"target":"left","response":"left","rt":632,"correct":true,"confidence":-1},{"trial_n":9,"n_dots":3.65,"target":"right","response":"right","rt":549,"correct":true,"confidence":-1},{"trial_n":10,"n_dots":3.65,"target":"left","response":"left","rt":264,"correct":true,"confidence":-1},{"trial_n":11,"n_dots":3.45,"target":"left","response":"right","rt":185,"correct":false,"confidence":-1},{"trial_n":12,"n_dots":3.65,"target":"right","response":"left","rt":150,"correct":false,"confidence":-1},{"trial_n":13,"n_dots":3.75,"target":"left","response":"left","rt":416,"correct":true,"confidence":-1},{"trial_n":14,"n_dots":3.75,"target":"right","response":"right","rt":648,"correct":true,"confidence":-1},{"trial_n":15,"n_dots":3.65,"target":"right","response":"right","rt":616,"correct":true,"confidence":-1},{"trial_n":16,"n_dots":3.65,"target":"left","response":"right","rt":800,"correct":false,"confidence":-1},{"trial_n":17,"n_dots":3.75,"target":"left","response":"left","rt":352,"correct":true,"confidence":-1},{"trial_n":18,"n_dots":3.75,"target":"right","response":"right","rt":965.99999999994,"correct":true,"confidence":-1},{"trial_n":19,"n_dots":3.65,"target":"left","response":"right","rt":882,"correct":false,"confidence":-1},{"trial_n":20,"n_dots":3.75,"target":"right","response":"left","rt":235,"correct":false,"confidence":-1},{"trial_n":21,"n_dots":3.85,"target":"left","response":"left","rt":818,"correct":true,"confidence":-1},{"trial_n":22,"n_dots":3.85,"target":"right","response":"right","rt":501.99999999994,"correct":true,"confidence":-1},{"trial_n":23,"n_dots":3.75,"target":"right","response":"right","rt":552,"correct":true,"confidence":-1},{"trial_n":24,"n_dots":3.75,"target":"right","response":"left","rt":668.99999999994,"correct":false,"confidence":-1},{"trial_n":25,"n_dots":3.85,"target":"left","response":"right","rt":1017,"correct":false,"confidence":-1},{"trial_n":26,"n_dots":3.95,"target":"right","response":"right","rt":466,"correct":true,"confidence":-1},{"trial_n":27,"n_dots":3.95,"target":"right","response":"right","rt":337.99999999994,"correct":true,"confidence":3},{"trial_n":28,"n_dots":3.85,"target":"left","response":"left","rt":581,"correct":true,"confidence":3},{"trial_n":29,"n_dots":3.85,"target":"left","response":"left","rt":968,"correct":true,"confidence":5},{"trial_n":30,"n_dots":3.75,"target":"right","response":"right","rt":521.00000000006,"correct":true,"confidence":5},{"trial_n":31,"n_dots":3.75,"target":"left","response":"left","rt":322,"correct":true,"confidence":4},{"trial_n":32,"n_dots":3.65,"target":"left","response":"right","rt":671,"correct":false,"confidence":2},{"trial_n":33,"n_dots":3.75,"target":"left","response":"left","rt":321,"correct":true,"confidence":4},{"trial_n":34,"n_dots":3.75,"target":"right","response":"right","rt":286,"correct":true,"confidence":3},{"trial_n":35,"n_dots":3.65,"target":"left","response":"right","rt":1907,"correct":false,"confidence":4},{"trial_n":36,"n_dots":3.75,"target":"right","response":"left","rt":243,"correct":false,"confidence":3},{"trial_n":37,"n_dots":3.85,"target":"left","response":"right","rt":2075,"correct":false,"confidence":4},{"trial_n":38,"n_dots":3.95,"target":"left","response":"left","rt":309.99999999994,"correct":true,"confidence":6},{"trial_n":39,"n_dots":3.95,"target":"left","response":"right","rt":507,"correct":false,"confidence":5},{"trial_n":40,"n_dots":4.05,"target":"left","response":"left","rt":1444.0000000001,"correct":true,"confidence":2},{"trial_n":41,"n_dots":4.05,"target":"right","response":"right","rt":1825,"correct":true,"confidence":3},{"trial_n":42,"n_dots":3.95,"target":"left","response":"right","rt":1478,"correct":false,"confidence":4},{"trial_n":43,"n_dots":4.05,"target":"left","response":"left","rt":277,"correct":true,"confidence":6},{"trial_n":44,"n_dots":4.05,"target":"right","response":"right","rt":278,"correct":true,"confidence":4},{"trial_n":45,"n_dots":3.95,"target":"right","response":"right","rt":857,"correct":true,"confidence":4},{"trial_n":46,"n_dots":3.95,"target":"right","response":"right","rt":294.00000000012,"correct":true,"confidence":4},{"trial_n":47,"n_dots":3.85,"target":"left","response":"right","rt":53.000000000116,"correct":false,"confidence":3},{"trial_n":48,"n_dots":3.95,"target":"right","response":"left","rt":1101,"correct":false,"confidence":3},{"trial_n":49,"n_dots":4.05,"target":"left","response":"left","rt":199,"correct":true,"confidence":5},{"trial_n":50,"n_dots":4.05,"target":"right","response":"right","rt":64,"correct":true,"confidence":5},{"trial_n":51,"n_dots":3.95,"target":"right","response":"right","rt":68.000000000116,"correct":true,"confidence":5},{"trial_n":52,"n_dots":3.95,"target":"left","response":"left","rt":169,"correct":true,"confidence":5},{"trial_n":53,"n_dots":3.85,"target":"right","response":"right","rt":1638.0000000001,"correct":true,"confidence":3},{"trial_n":54,"n_dots":3.85,"target":"right","response":"right","rt":357,"correct":true,"confidence":4},{"trial_n":55,"n_dots":3.75,"target":"left","response":"left","rt":221,"correct":true,"confidence":4},{"trial_n":56,"n_dots":3.75,"target":"right","response":"right","rt":119,"correct":true,"confidence":4},{"trial_n":57,"n_dots":3.65,"target":"right","response":"right","rt":368.99999999988,"correct":true,"confidence":5},{"trial_n":58,"n_dots":3.65,"target":"left","response":"left","rt":466,"correct":true,"confidence":5},{"trial_n":59,"n_dots":3.55,"target":"left","response":"right","rt":1041.0000000001,"correct":false,"confidence":1},{"trial_n":60,"n_dots":3.65,"target":"right","response":"left","rt":1539,"correct":false,"confidence":5},{"trial_n":61,"n_dots":3.75,"target":"left","response":"right","rt":14738,"correct":false,"confidence":4},{"trial_n":62,"n_dots":3.85,"target":"right","response":"left","rt":1105,"correct":false,"confidence":3},{"trial_n":63,"n_dots":3.95,"target":"right","response":"right","rt":911,"correct":true,"confidence":4},{"trial_n":64,"n_dots":3.95,"target":"right","response":"right","rt":997,"correct":true,"confidence":3},{"trial_n":65,"n_dots":3.85,"target":"left","response":"left","rt":722,"correct":true,"confidence":5},{"trial_n":66,"n_dots":3.85,"target":"left","response":"left","rt":273,"correct":true,"confidence":6},{"trial_n":67,"n_dots":3.75,"target":"left","response":"left","rt":126,"correct":true,"confidence":4},{"trial_n":68,"n_dots":3.75,"target":"right","response":"right","rt":641,"correct":true,"confidence":4},{"trial_n":69,"n_dots":3.65,"target":"left","response":"right","rt":7259,"correct":false,"confidence":2},{"trial_n":70,"n_dots":3.75,"target":"right","response":"left","rt":222,"correct":false,"confidence":4},{"trial_n":71,"n_dots":3.85,"target":"right","response":"right","rt":127,"correct":true,"confidence":4},{"trial_n":72,"n_dots":3.85,"target":"left","response":"left","rt":93,"correct":true,"confidence":5},{"trial_n":73,"n_dots":3.75,"target":"left","response":"left","rt":109,"correct":true,"confidence":6},{"trial_n":74,"n_dots":3.75,"target":"left","response":"left","rt":75,"correct":true,"confidence":5},{"trial_n":75,"n_dots":3.65,"target":"right","response":"right","rt":97.000000000233,"correct":true,"confidence":5},{"trial_n":76,"n_dots":3.65,"target":"left","response":"left","rt":127,"correct":true,"confidence":3},{"trial_n":77,"n_dots":3.55,"target":"left","response":"left","rt":110,"correct":true,"confidence":5},{"trial_n":78,"n_dots":3.55,"target":"left","response":"left","rt":1165,"correct":true,"confidence":5},{"trial_n":79,"n_dots":3.45,"target":"left","response":"right","rt":129,"correct":false,"confidence":1},{"trial_n":80,"n_dots":3.55,"target":"right","response":"right","rt":129,"correct":true,"confidence":6},{"trial_n":81,"n_dots":3.55,"target":"left","response":"left","rt":110.99999999977,"correct":true,"confidence":4},{"trial_n":82,"n_dots":3.45,"target":"left","response":"right","rt":94,"correct":false,"confidence":5},{"trial_n":83,"n_dots":3.55,"target":"left","response":"left","rt":1210,"correct":true,"confidence":3},{"trial_n":84,"n_dots":3.55,"target":"right","response":"right","rt":145,"correct":true,"confidence":4},{"trial_n":85,"n_dots":3.45,"target":"left","response":"left","rt":342,"correct":true,"confidence":3},{"trial_n":86,"n_dots":3.45,"target":"right","response":"right","rt":312,"correct":true,"confidence":4},{"trial_n":87,"n_dots":3.35,"target":"left","response":"right","rt":992,"correct":false,"confidence":4},{"trial_n":88,"n_dots":3.45,"target":"right","response":"right","rt":244,"correct":true,"confidence":3},{"trial_n":89,"n_dots":3.45,"target":"left","response":"right","rt":121.00000000023,"correct":false,"confidence":5},{"trial_n":90,"n_dots":3.55,"target":"left","response":"left","rt":141,"correct":true,"confidence":3},{"trial_n":91,"n_dots":3.55,"target":"right","response":"right","rt":3158.0000000002,"correct":true,"confidence":5},{"trial_n":92,"n_dots":3.45,"target":"left","response":"left","rt":542,"correct":true,"confidence":3},{"trial_n":93,"n_dots":3.45,"target":"right","response":"right","rt":4189,"correct":true,"confidence":1},{"trial_n":94,"n_dots":3.35,"target":"left","response":"left","rt":192,"correct":true,"confidence":4},{"trial_n":95,"n_dots":3.35,"target":"right","response":"right","rt":987.99999999977,"correct":true,"confidence":5},{"trial_n":96,"n_dots":3.25,"target":"right","response":"right","rt":96,"correct":true,"confidence":6},{"trial_n":97,"n_dots":3.25,"target":"right","response":"right","rt":166.00000000023,"correct":true,"confidence":6},{"trial_n":98,"n_dots":3.15,"target":"right","response":"left","rt":612.00000000023,"correct":false,"confidence":4},{"trial_n":99,"n_dots":3.25,"target":"right","response":"right","rt":160.99999999977,"correct":true,"confidence":5},{"trial_n":100,"n_dots":3.25,"target":"right","response":"right","rt":528,"correct":true,"confidence":4},{"trial_n":101,"n_dots":3.15,"target":"right","response":"left","rt":778,"correct":false,"confidence":3},{"trial_n":102,"n_dots":3.25,"target":"right","response":"left","rt":95,"correct":false,"confidence":3},{"trial_n":103,"n_dots":3.35,"target":"right","response":"right","rt":978,"correct":true,"confidence":4},{"trial_n":104,"n_dots":3.35,"target":"left","response":"left","rt":844,"correct":true,"confidence":1},{"trial_n":105,"n_dots":3.25,"target":"right","response":"left","rt":963,"correct":false,"confidence":4},{"trial_n":106,"n_dots":3.35,"target":"left","response":"right","rt":80,"correct":false,"confidence":3},{"trial_n":107,"n_dots":3.45,"target":"left","response":"right","rt":933,"correct":false,"confidence":2},{"trial_n":108,"n_dots":3.55,"target":"right","response":"left","rt":929,"correct":false,"confidence":3},{"trial_n":109,"n_dots":3.65,"target":"left","response":"right","rt":1163,"correct":false,"confidence":5},{"trial_n":110,"n_dots":3.75,"target":"left","response":"left","rt":63.000000000233,"correct":true,"confidence":5},{"trial_n":111,"n_dots":3.75,"target":"right","response":"left","rt":1000,"correct":false,"confidence":3},{"trial_n":112,"n_dots":3.85,"target":"right","response":"right","rt":967.99999999977,"correct":true,"confidence":6},{"trial_n":113,"n_dots":3.85,"target":"right","response":"right","rt":96,"correct":true,"confidence":6},{"trial_n":114,"n_dots":3.75,"target":"right","response":"right","rt":164,"correct":true,"confidence":4},{"trial_n":115,"n_dots":3.75,"target":"right","response":"left","rt":833.99999999977,"correct":false,"confidence":3},{"trial_n":116,"n_dots":3.85,"target":"left","response":"left","rt":299,"correct":true,"confidence":5},{"trial_n":117,"n_dots":3.85,"target":"left","response":"left","rt":412,"correct":true,"confidence":5},{"trial_n":118,"n_dots":3.75,"target":"right","response":"right","rt":348.00000000023,"correct":true,"confidence":4},{"trial_n":119,"n_dots":3.75,"target":"right","response":"right","rt":102,"correct":true,"confidence":4},{"trial_n":120,"n_dots":3.65,"target":"left","response":"right","rt":122,"correct":false,"confidence":2},{"trial_n":121,"n_dots":3.75,"target":"right","response":"right","rt":371,"correct":true,"confidence":5},{"trial_n":122,"n_dots":3.75,"target":"left","response":"left","rt":168.99999999977,"correct":true,"confidence":4},{"trial_n":123,"n_dots":3.65,"target":"left","response":"right","rt":369.99999999953,"correct":false,"confidence":5},{"trial_n":124,"n_dots":3.75,"target":"right","response":"right","rt":671,"correct":true,"confidence":5},{"trial_n":125,"n_dots":3.75,"target":"left","response":"left","rt":1159,"correct":true,"confidence":4},{"trial_n":126,"n_dots":3.65,"target":"right","response":"right","rt":122,"correct":true,"confidence":3},{"trial_n":127,"n_dots":3.65,"target":"left","response":"right","rt":975,"correct":false,"confidence":3},{"trial_n":128,"n_dots":3.75,"target":"left","response":"left","rt":90,"correct":true,"confidence":5},{"trial_n":129,"n_dots":3.75,"target":"right","response":"right","rt":126,"correct":true,"confidence":5},{"trial_n":130,"n_dots":3.65,"target":"right","response":"right","rt":306,"correct":true,"confidence":5},{"trial_n":131,"n_dots":3.65,"target":"left","response":"left","rt":957,"correct":true,"confidence":3},{"trial_n":132,"n_dots":3.55,"target":"right","response":"right","rt":371,"correct":true,"confidence":4},{"trial_n":133,"n_dots":3.55,"target":"left","response":"left","rt":140,"correct":true,"confidence":1},{"trial_n":134,"n_dots":3.45,"target":"left","response":"right","rt":290,"correct":false,"confidence":1},{"trial_n":135,"n_dots":3.55,"target":"right","response":"right","rt":826,"correct":true,"confidence":4},{"trial_n":136,"n_dots":3.55,"target":"left","response":"left","rt":141,"correct":true,"confidence":4},{"trial_n":137,"n_dots":3.45,"target":"left","response":"right","rt":875,"correct":false,"confidence":5},{"trial_n":138,"n_dots":3.55,"target":"right","response":"right","rt":1124,"correct":true,"confidence":6},{"trial_n":139,"n_dots":3.55,"target":"right","response":"left","rt":112,"correct":false,"confidence":1},{"trial_n":140,"n_dots":3.65,"target":"right","response":"right","rt":928,"correct":true,"confidence":4},{"trial_n":141,"n_dots":3.65,"target":"right","response":"right","rt":3190,"correct":true,"confidence":5},{"trial_n":142,"n_dots":3.55,"target":"right","response":"right","rt":158,"correct":true,"confidence":4},{"trial_n":143,"n_dots":3.55,"target":"left","response":"right","rt":123,"correct":false,"confidence":3},{"trial_n":144,"n_dots":3.65,"target":"left","response":"right","rt":155,"correct":false,"confidence":5},{"trial_n":145,"n_dots":3.75,"target":"left","response":"left","rt":873.99999999953,"correct":true,"confidence":4},{"trial_n":146,"n_dots":3.75,"target":"left","response":"right","rt":362.00000000047,"correct":false,"confidence":5},{"trial_n":147,"n_dots":3.85,"target":"left","response":"left","rt":128,"correct":true,"confidence":4},{"trial_n":148,"n_dots":3.85,"target":"left","response":"left","rt":226,"correct":true,"confidence":5},{"trial_n":149,"n_dots":3.75,"target":"left","response":"right","rt":75,"correct":false,"confidence":2},{"trial_n":150,"n_dots":3.85,"target":"right","response":"right","rt":33724,"correct":true,"confidence":1},{"trial_n":151,"n_dots":3.85,"target":"left","response":"left","rt":93,"correct":true,"confidence":5},{"trial_n":152,"n_dots":3.75,"target":"left","response":"right","rt":760,"correct":false,"confidence":1},{"trial_n":153,"n_dots":3.85,"target":"right","response":"right","rt":194,"correct":true,"confidence":5},{"trial_n":154,"n_dots":3.85,"target":"left","response":"left","rt":110,"correct":true,"confidence":5},{"trial_n":155,"n_dots":3.75,"target":"right","response":"right","rt":129,"correct":true,"confidence":4},{"trial_n":156,"n_dots":3.75,"target":"left","response":"left","rt":243,"correct":true,"confidence":3},{"trial_n":157,"n_dots":3.65,"target":"right","response":"right","rt":109,"correct":true,"confidence":5},{"trial_n":158,"n_dots":3.65,"target":"right","response":"right","rt":143.00000000047,"correct":true,"confidence":6},{"trial_n":159,"n_dots":3.55,"target":"right","response":"right","rt":163,"correct":true,"confidence":5},{"trial_n":160,"n_dots":3.55,"target":"left","response":"left","rt":1083,"correct":true,"confidence":4},{"trial_n":161,"n_dots":3.45,"target":"right","response":"right","rt":179,"correct":true,"confidence":3},{"trial_n":162,"n_dots":3.45,"target":"left","response":"left","rt":162,"correct":true,"confidence":5},{"trial_n":163,"n_dots":3.35,"target":"right","response":"right","rt":68,"correct":true,"confidence":4},{"trial_n":164,"n_dots":3.35,"target":"left","response":"left","rt":562,"correct":true,"confidence":2},{"trial_n":165,"n_dots":3.25,"target":"left","response":"left","rt":581,"correct":true,"confidence":1},{"trial_n":166,"n_dots":3.25,"target":"left","response":"right","rt":280.99999999953,"correct":false,"confidence":4},{"trial_n":167,"n_dots":3.35,"target":"right","response":"left","rt":148.99999999953,"correct":false,"confidence":3},{"trial_n":168,"n_dots":3.45,"target":"left","response":"left","rt":294,"correct":true,"confidence":3},{"trial_n":169,"n_dots":3.45,"target":"right","response":"right","rt":180,"correct":true,"confidence":4},{"trial_n":170,"n_dots":3.35,"target":"left","response":"left","rt":164,"correct":true,"confidence":3},{"trial_n":171,"n_dots":3.35,"target":"right","response":"right","rt":285,"correct":true,"confidence":4},{"trial_n":172,"n_dots":3.25,"target":"right","response":"right","rt":132.00000000047,"correct":true,"confidence":3},{"trial_n":173,"n_dots":3.25,"target":"right","response":"left","rt":98.000000000466,"correct":false,"confidence":4},{"trial_n":174,"n_dots":3.35,"target":"left","response":"right","rt":882.00000000047,"correct":false,"confidence":5},{"trial_n":175,"n_dots":3.45,"target":"right","response":"right","rt":236,"correct":true,"confidence":5},{"trial_n":176,"n_dots":3.45,"target":"right","response":"right","rt":83,"correct":true,"confidence":3},{"trial_n":177,"n_dots":3.35,"target":"left","response":"left","rt":1133.0000000005,"correct":true,"confidence":5},{"trial_n":178,"n_dots":3.35,"target":"left","response":"left","rt":132,"correct":true,"confidence":4},{"trial_n":179,"n_dots":3.25,"target":"right","response":"left","rt":903,"correct":false,"confidence":6},{"trial_n":180,"n_dots":3.35,"target":"left","response":"right","rt":152.99999999953,"correct":false,"confidence":3},{"trial_n":181,"n_dots":3.45,"target":"left","response":"left","rt":965,"correct":true,"confidence":6},{"trial_n":182,"n_dots":3.45,"target":"right","response":"right","rt":1167.9999999995,"correct":true,"confidence":1},{"trial_n":183,"n_dots":3.35,"target":"left","response":"left","rt":103,"correct":true,"confidence":5},{"trial_n":184,"n_dots":3.35,"target":"right","response":"right","rt":834,"correct":true,"confidence":6},{"trial_n":185,"n_dots":3.25,"target":"left","response":"left","rt":382.99999999953,"correct":true,"confidence":4},{"trial_n":186,"n_dots":3.25,"target":"left","response":"left","rt":151,"correct":true,"confidence":2},{"trial_n":187,"n_dots":3.15,"target":"right","response":"right","rt":223,"correct":true,"confidence":4},{"trial_n":188,"n_dots":3.15,"target":"right","response":"left","rt":1006.0000000005,"correct":false,"confidence":2},{"trial_n":189,"n_dots":3.25,"target":"right","response":"right","rt":1019,"correct":true,"confidence":5},{"trial_n":190,"n_dots":3.25,"target":"left","response":"right","rt":207,"correct":false,"confidence":5},{"trial_n":191,"n_dots":3.35,"target":"left","response":"left","rt":87,"correct":true,"confidence":6},{"trial_n":192,"n_dots":3.35,"target":"left","response":"right","rt":206,"correct":false,"confidence":3},{"trial_n":193,"n_dots":3.45,"target":"right","response":"left","rt":1052,"correct":false,"confidence":2},{"trial_n":194,"n_dots":3.55,"target":"right","response":"right","rt":919,"correct":true,"confidence":6}]