[{"trial_n":1,"n_dots":4.25,"target":"left","response":"left","rt":12687.700000048,"correct":true,"confidence":-1},{"trial_n":2,"n_dots":4.25,"target":"left","response":"left","rt":601.39999997616,"correct":true,"confidence":-1},{"trial_n":3,"n_dots":3.85,"target":"right","response":"right","rt":615.39999997616,"correct":true,"confidence":-1},{"trial_n":4,"n_dots":3.85,"target":"left","response":"right","rt":639.69999998808,"correct":false,"confidence":-1},{"trial_n":5,"n_dots":4.25,"target":"right","response":"right","rt":490.89999997616,"correct":true,"confidence":-1},{"trial_n":6,"n_dots":4.25,"target":"left","response":"left","rt":1003.6000000238,"correct":true,"confidence":-1},{"trial_n":7,"n_dots":3.85,"target":"left","response":"left","rt":339.5,"correct":true,"confidence":-1},{"trial_n":8,"n_dots":3.85,"target":"right","response":"right","rt":279.20000004768,"correct":true,"confidence":-1},{"trial_n":9,"n_dots":3.65,"target":"left","response":"left","rt":1026.5999999642,"correct":true,"confidence":-1},{"trial_n":10,"n_dots":3.65,"target":"left","response":"left","rt":938.80000001192,"correct":true,"confidence":-1},{"trial_n":11,"n_dots":3.45,"target":"left","response":"left","rt":383.90000003576,"correct":true,"confidence":-1},{"trial_n":12,"n_dots":3.45,"target":"right","response":"right","rt":339,"correct":true,"confidence":-1},{"trial_n":13,"n_dots":3.35,"target":"right","response":"right","rt":514.89999997616,"correct":true,"confidence":-1},{"trial_n":14,"n_dots":3.35,"target":"right","response":"left","rt":784,"correct":false,"confidence":-1},{"trial_n":15,"n_dots":3.45,"target":"right","response":"right","rt":413.39999997616,"correct":true,"confidence":-1},{"trial_n":16,"n_dots":3.45,"target":"left","response":"left","rt":585.39999997616,"correct":true,"confidence":-1},{"trial_n":17,"n_dots":3.35,"target":"right","response":"left","rt":325,"correct":false,"confidence":-1},{"trial_n":18,"n_dots":3.45,"target":"left","response":"left","rt":593.10000002384,"correct":true,"confidence":-1},{"trial_n":19,"n_dots":3.45,"target":"right","response":"right","rt":907,"correct":true,"confidence":-1},{"trial_n":20,"n_dots":3.35,"target":"left","response":"left","rt":477,"correct":true,"confidence":-1},{"trial_n":21,"n_dots":3.35,"target":"left","response":"left","rt":352.69999998808,"correct":true,"confidence":-1},{"trial_n":22,"n_dots":3.25,"target":"left","response":"left","rt":681,"correct":true,"confidence":-1},{"trial_n":23,"n_dots":3.25,"target":"right","response":"right","rt":414.69999998808,"correct":true,"confidence":-1},{"trial_n":24,"n_dots":3.15,"target":"left","response":"left","rt":245,"correct":true,"confidence":-1},{"trial_n":25,"n_dots":3.15,"target":"right","response":"right","rt":571.19999998808,"correct":true,"confidence":-1},{"trial_n":26,"n_dots":3.05,"target":"right","response":"left","rt":386.29999995232,"correct":false,"confidence":-1},{"trial_n":27,"n_dots":3.15,"target":"left","response":"left","rt":1140.6999999881,"correct":true,"confidence":3},{"trial_n":28,"n_dots":3.15,"target":"right","response":"right","rt":1649.7000000477,"correct":true,"confidence":3},{"trial_n":29,"n_dots":3.05,"target":"left","response":"left","rt":1076.2000000477,"correct":true,"confidence":5},{"trial_n":30,"n_dots":3.05,"target":"right","response":"right","rt":1166.1999999881,"correct":true,"confidence":5},{"trial_n":31,"n_dots":2.95,"target":"right","response":"left","rt":1104.8000000119,"correct":false,"confidence":4},{"trial_n":32,"n_dots":3.05,"target":"right","response":"right","rt":1484.8999999762,"correct":true,"confidence":3},{"trial_n":33,"n_dots":3.05,"target":"left","response":"left","rt":975.90000003576,"correct":true,"confidence":4},{"trial_n":34,"n_dots":2.95,"target":"right","response":"left","rt":750.30000001192,"correct":false,"confidence":4},{"trial_n":35,"n_dots":3.05,"target":"left","response":"left","rt":805.40000003576,"correct":true,"confidence":5},{"trial_n":36,"n_dots":3.05,"target":"left","response":"left","rt":1349.3999999762,"correct":true,"confidence":4},{"trial_n":37,"n_dots":2.95,"target":"right","response":"left","rt":981.90000003576,"correct":false,"confidence":4},{"trial_n":38,"n_dots":3.05,"target":"right","response":"right","rt":742.59999996424,"correct":true,"confidence":4},{"trial_n":39,"n_dots":3.05,"target":"left","response":"left","rt":577.09999996424,"correct":true,"confidence":4},{"trial_n":40,"n_dots":2.95,"target":"left","response":"left","rt":917.70000004768,"correct":true,"confidence":4},{"trial_n":41,"n_dots":2.95,"target":"left","response":"left","rt":1697.9000000358,"correct":true,"confidence":4},{"trial_n":42,"n_dots":2.85,"target":"right","response":"right","rt":1068.1999999881,"correct":true,"confidence":4},{"trial_n":43,"n_dots":2.85,"target":"right","response":"left","rt":736.19999998808,"correct":false,"confidence":3},{"trial_n":44,"n_dots":2.95,"target":"left","response":"left","rt":1105.3000000119,"correct":true,"confidence":3},{"trial_n":45,"n_dots":2.95,"target":"right","response":"left","rt":1879,"correct":false,"confidence":3},{"trial_n":46,"n_dots":3.05,"target":"right","response":"right","rt":816.39999997616,"correct":true,"confidence":4},{"trial_n":47,"n_dots":3.05,"target":"right","response":"right","rt":885.20000004768,"correct":true,"confidence":4},{"trial_n":48,"n_dots":2.95,"target":"right","response":"left","rt":637.79999995232,"correct":false,"confidence":4},{"trial_n":49,"n_dots":3.05,"target":"left","response":"left","rt":832.20000004768,"correct":true,"confidence":5},{"trial_n":50,"n_dots":3.05,"target":"right","response":"right","rt":828.69999998808,"correct":true,"confidence":4},{"trial_n":51,"n_dots":2.95,"target":"left","response":"right","rt":1559.3000000119,"correct":false,"confidence":4},{"trial_n":52,"n_dots":3.05,"target":"left","response":"left","rt":738.80000001192,"correct":true,"confidence":5},{"trial_n":53,"n_dots":3.05,"target":"right","response":"left","rt":858.09999996424,"correct":false,"confidence":5},{"trial_n":54,"n_dots":3.15,"target":"left","response":"right","rt":373.29999995232,"correct":false,"confidence":5},{"trial_n":55,"n_dots":3.25,"target":"left","response":"left","rt":916.79999995232,"correct":true,"confidence":4},{"trial_n":56,"n_dots":3.25,"target":"right","response":"right","rt":749.60000002384,"correct":true,"confidence":4},{"trial_n":57,"n_dots":3.15,"target":"left","response":"right","rt":1718.0999999642,"correct":false,"confidence":3},{"trial_n":58,"n_dots":3.25,"target":"left","response":"left","rt":531.30000001192,"correct":true,"confidence":4},{"trial_n":59,"n_dots":3.25,"target":"left","response":"right","rt":520.69999998808,"correct":false,"confidence":3},{"trial_n":60,"n_dots":3.35,"target":"left","response":"left","rt":617.80000001192,"correct":true,"confidence":4},{"trial_n":61,"n_dots":3.35,"target":"right","response":"left","rt":726,"correct":false,"confidence":4},{"trial_n":62,"n_dots":3.45,"target":"right","response":"right","rt":726.60000002384,"correct":true,"confidence":4},{"trial_n":63,"n_dots":3.45,"target":"left","response":"right","rt":752.39999997616,"correct":false,"confidence":4},{"trial_n":64,"n_dots":3.55,"target":"right","response":"right","rt":757.19999998808,"correct":true,"confidence":4},{"trial_n":65,"n_dots":3.55,"target":"right","response":"left","rt":876.60000002384,"correct":false,"confidence":4},{"trial_n":66,"n_dots":3.65,"target":"right","response":"left","rt":924.10000002384,"correct":false,"confidence":4},{"trial_n":67,"n_dots":3.75,"target":"right","response":"right","rt":434.30000001192,"correct":true,"confidence":4},{"trial_n":68,"n_dots":3.75,"target":"left","response":"left","rt":965.60000002384,"correct":true,"confidence":4},{"trial_n":69,"n_dots":3.65,"target":"left","response":"left","rt":46.600000023842,"correct":true,"confidence":4},{"trial_n":70,"n_dots":3.65,"target":"right","response":"right","rt":334.40000003576,"correct":true,"confidence":4},{"trial_n":71,"n_dots":3.55,"target":"left","response":"left","rt":2535.8000000119,"correct":true,"confidence":5},{"trial_n":72,"n_dots":3.55,"target":"right","response":"right","rt":19.399999976158,"correct":true,"confidence":4},{"trial_n":73,"n_dots":3.45,"target":"right","response":"right","rt":1173.1000000238,"correct":true,"confidence":4},{"trial_n":74,"n_dots":3.45,"target":"right","response":"right","rt":470.10000002384,"correct":true,"confidence":4},{"trial_n":75,"n_dots":3.35,"target":"left","response":"right","rt":1184.8000000119,"correct":false,"confidence":3},{"trial_n":76,"n_dots":3.45,"target":"left","response":"left","rt":297.69999998808,"correct":true,"confidence":4},{"trial_n":77,"n_dots":3.45,"target":"right","response":"right","rt":490,"correct":true,"confidence":4},{"trial_n":78,"n_dots":3.35,"target":"left","response":"left","rt":149.09999996424,"correct":true,"confidence":4},{"trial_n":79,"n_dots":3.35,"target":"left","response":"left","rt":193.39999997616,"correct":true,"confidence":3},{"trial_n":80,"n_dots":3.25,"target":"left","response":"right","rt":1242.1999999881,"correct":false,"confidence":3},{"trial_n":81,"n_dots":3.35,"target":"right","response":"left","rt":251.40000003576,"correct":false,"confidence":3},{"trial_n":82,"n_dots":3.45,"target":"right","response":"right","rt":387.5,"correct":true,"confidence":3},{"trial_n":83,"n_dots":3.45,"target":"right","response":"right","rt":222,"correct":true,"confidence":3},{"trial_n":84,"n_dots":3.35,"target":"left","response":"right","rt":390.70000004768,"correct":false,"confidence":3},{"trial_n":85,"n_dots":3.45,"target":"left","response":"left","rt":12.799999952316,"correct":true,"confidence":3},{"trial_n":86,"n_dots":3.45,"target":"left","response":"right","rt":185.30000001192,"correct":false,"confidence":3},{"trial_n":87,"n_dots":3.55,"target":"left","response":"left","rt":443.60000002384,"correct":true,"confidence":4},{"trial_n":88,"n_dots":3.55,"target":"right","response":"right","rt":16.899999976158,"correct":true,"confidence":5},{"trial_n":89,"n_dots":3.45,"target":"left","response":"left","rt":459.19999998808,"correct":true,"confidence":4},{"trial_n":90,"n_dots":3.45,"target":"right","response":"right","rt":426.5,"correct":true,"confidence":3},{"trial_n":91,"n_dots":3.35,"target":"right","response":"left","rt":591.09999996424,"correct":false,"confidence":5},{"trial_n":92,"n_dots":3.45,"target":"left","response":"right","rt":295.30000001192,"correct":false,"confidence":3},{"trial_n":93,"n_dots":3.55,"target":"left","response":"left","rt":310.59999996424,"correct":true,"confidence":5},{"trial_n":94,"n_dots":3.55,"target":"left","response":"right","rt":612.09999996424,"correct":false,"confidence":4},{"trial_n":95,"n_dots":3.65,"target":"right","response":"right","rt":557.19999998808,"correct":true,"confidence":5},{"trial_n":96,"n_dots":3.65,"target":"left","response":"left","rt":438.80000001192,"correct":true,"confidence":5},{"trial_n":97,"n_dots":3.55,"target":"left","response":"right","rt":300.90000003576,"correct":false,"confidence":4},{"trial_n":98,"n_dots":3.65,"target":"right","response":"right","rt":446.10000002384,"correct":true,"confidence":4},{"trial_n":99,"n_dots":3.65,"target":"right","response":"right","rt":381.90000003576,"correct":true,"confidence":5},{"trial_n":100,"n_dots":3.55,"target":"right","response":"right","rt":658.80000001192,"correct":true,"confidence":3},{"trial_n":101,"n_dots":3.55,"target":"right","response":"right","rt":559.5,"correct":true,"confidence":5},{"trial_n":102,"n_dots":3.45,"target":"left","response":"right","rt":827.19999998808,"correct":false,"confidence":3},{"trial_n":103,"n_dots":3.55,"target":"right","response":"right","rt":294.09999996424,"correct":true,"confidence":3},{"trial_n":104,"n_dots":3.55,"target":"right","response":"right","rt":349.59999996424,"correct":true,"confidence":4},{"trial_n":105,"n_dots":3.45,"target":"left","response":"left","rt":29,"correct":true,"confidence":3},{"trial_n":106,"n_dots":3.45,"target":"right","response":"right","rt":672.80000001192,"correct":true,"confidence":3},{"trial_n":107,"n_dots":3.35,"target":"left","response":"left","rt":277.10000002384,"correct":true,"confidence":3},{"trial_n":108,"n_dots":3.35,"target":"left","response":"left","rt":382.5,"correct":true,"confidence":3},{"trial_n":109,"n_dots":3.25,"target":"right","response":"right","rt":343.39999997616,"correct":true,"confidence":3},{"trial_n":110,"n_dots":3.25,"target":"right","response":"right","rt":3410.1999999881,"correct":true,"confidence":3},{"trial_n":111,"n_dots":3.15,"target":"left","response":"left","rt":830.80000001192,"correct":true,"confidence":4},{"trial_n":112,"n_dots":3.15,"target":"right","response":"right","rt":554.80000001192,"correct":true,"confidence":3},{"trial_n":113,"n_dots":3.05,"target":"right","response":"right","rt":622.30000001192,"correct":true,"confidence":3},{"trial_n":114,"n_dots":3.05,"target":"left","response":"left","rt":440.60000002384,"correct":true,"confidence":3},{"trial_n":115,"n_dots":2.95,"target":"right","response":"right","rt":282.60000002384,"correct":true,"confidence":4},{"trial_n":116,"n_dots":2.95,"target":"right","response":"right","rt":668,"correct":true,"confidence":4},{"trial_n":117,"n_dots":2.85,"target":"right","response":"right","rt":498.80000001192,"correct":true,"confidence":4},{"trial_n":118,"n_dots":2.85,"target":"right","response":"left","rt":771.69999998808,"correct":false,"confidence":4},{"trial_n":119,"n_dots":2.95,"target":"left","response":"right","rt":658.89999997616,"correct":false,"confidence":3},{"trial_n":120,"n_dots":3.05,"target":"right","response":"right","rt":169.69999998808,"correct":true,"confidence":4},{"trial_n":121,"n_dots":3.05,"target":"left","response":"left","rt":606.69999998808,"correct":true,"confidence":4},{"trial_n":122,"n_dots":2.95,"target":"right","response":"right","rt":542.80000001192,"correct":true,"confidence":4},{"trial_n":123,"n_dots":2.95,"target":"right","response":"left","rt":1087.2000000477,"correct":false,"confidence":3},{"trial_n":124,"n_dots":3.05,"target":"left","response":"left","rt":201.59999996424,"correct":true,"confidence":5},{"trial_n":125,"n_dots":3.05,"target":"right","response":"right","rt":360,"correct":true,"confidence":4},{"trial_n":126,"n_dots":2.95,"target":"left","response":"left","rt":260.60000002384,"correct":true,"confidence":4},{"trial_n":127,"n_dots":2.95,"target":"left","response":"left","rt":471.89999997616,"correct":true,"confidence":4},{"trial_n":128,"n_dots":2.85,"target":"right","response":"left","rt":459.89999997616,"correct":false,"confidence":4},{"trial_n":129,"n_dots":2.95,"target":"right","response":"right","rt":231.89999997616,"correct":true,"confidence":3},{"trial_n":130,"n_dots":2.95,"target":"left","response":"left","rt":818.40000003576,"correct":true,"confidence":3},{"trial_n":131,"n_dots":2.85,"target":"right","response":"right","rt":397,"correct":true,"confidence":4},{"trial_n":132,"n_dots":2.85,"target":"left","response":"right","rt":1495.1999999881,"correct":false,"confidence":1},{"trial_n":133,"n_dots":2.95,"target":"right","response":"left","rt":694.30000001192,"correct":false,"confidence":3},{"trial_n":134,"n_dots":3.05,"target":"left","response":"left","rt":262.5,"correct":true,"confidence":3},{"trial_n":135,"n_dots":3.05,"target":"right","response":"left","rt":624.89999997616,"correct":false,"confidence":3},{"trial_n":136,"n_dots":3.15,"target":"right","response":"right","rt":546.89999997616,"correct":true,"confidence":3},{"trial_n":137,"n_dots":3.15,"target":"right","response":"left","rt":345.09999996424,"correct":false,"confidence":4},{"trial_n":138,"n_dots":3.25,"target":"left","response":"left","rt":702.60000002384,"correct":true,"confidence":3},{"trial_n":139,"n_dots":3.25,"target":"left","response":"left","rt":57605.399999976,"correct":true,"confidence":1},{"trial_n":140,"n_dots":3.15,"target":"right","response":"left","rt":319.70000004768,"correct":false,"confidence":1},{"trial_n":141,"n_dots":3.25,"target":"left","response":"left","rt":269.5,"correct":true,"confidence":3},{"trial_n":142,"n_dots":3.25,"target":"left","response":"left","rt":481.80000001192,"correct":true,"confidence":3},{"trial_n":143,"n_dots":3.15,"target":"right","response":"right","rt":532.40000003576,"correct":true,"confidence":3},{"trial_n":144,"n_dots":3.15,"target":"left","response":"left","rt":273.80000001192,"correct":true,"confidence":4},{"trial_n":145,"n_dots":3.05,"target":"right","response":"left","rt":523.39999997616,"correct":false,"confidence":4},{"trial_n":146,"n_dots":3.15,"target":"left","response":"left","rt":498,"correct":true,"confidence":4},{"trial_n":147,"n_dots":3.15,"target":"right","response":"right","rt":465.30000001192,"correct":true,"confidence":3},{"trial_n":148,"n_dots":3.05,"target":"left","response":"left","rt":497.30000001192,"correct":true,"confidence":4},{"trial_n":149,"n_dots":3.05,"target":"right","response":"left","rt":733.10000002384,"correct":false,"confidence":4},{"trial_n":150,"n_dots":3.15,"target":"right","response":"right","rt":557,"correct":true,"confidence":4},{"trial_n":151,"n_dots":3.15,"target":"right","response":"right","rt":400.59999996424,"correct":true,"confidence":4},{"trial_n":152,"n_dots":3.05,"target":"right","response":"left","rt":435.30000001192,"correct":false,"confidence":4},{"trial_n":153,"n_dots":3.15,"target":"left","response":"left","rt":578,"correct":true,"confidence":3},{"trial_n":154,"n_dots":3.15,"target":"left","response":"left","rt":278.30000001192,"correct":true,"confidence":3},{"trial_n":155,"n_dots":3.05,"target":"right","response":"left","rt":523.59999996424,"correct":false,"confidence":4},{"trial_n":156,"n_dots":3.15,"target":"left","response":"left","rt":490.70000004768,"correct":true,"confidence":4},{"trial_n":157,"n_dots":3.15,"target":"left","response":"right","rt":311.19999998808,"correct":false,"confidence":4},{"trial_n":158,"n_dots":3.25,"target":"left","response":"right","rt":557.89999997616,"correct":false,"confidence":4},{"trial_n":159,"n_dots":3.35,"target":"right","response":"left","rt":530.70000004768,"correct":false,"confidence":3},{"trial_n":160,"n_dots":3.45,"target":"right","response":"left","rt":574.09999996424,"correct":false,"confidence":3},{"trial_n":161,"n_dots":3.55,"target":"right","response":"left","rt":529.79999995232,"correct":false,"confidence":3},{"trial_n":162,"n_dots":3.65,"target":"right","response":"right","rt":409.80000001192,"correct":true,"confidence":4},{"trial_n":163,"n_dots":3.65,"target":"left","response":"left","rt":352.60000002384,"correct":true,"confidence":5},{"trial_n":164,"n_dots":3.55,"target":"left","response":"left","rt":378.69999998808,"correct":true,"confidence":4},{"trial_n":165,"n_dots":3.55,"target":"right","response":"right","rt":399.10000002384,"correct":true,"confidence":4},{"trial_n":166,"n_dots":3.45,"target":"right","response":"left","rt":525.60000002384,"correct":false,"confidence":2},{"trial_n":167,"n_dots":3.55,"target":"left","response":"right","rt":409,"correct":false,"confidence":5},{"trial_n":168,"n_dots":3.65,"target":"left","response":"right","rt":582.80000001192,"correct":false,"confidence":5},{"trial_n":169,"n_dots":3.75,"target":"left","response":"left","rt":448.80000001192,"correct":true,"confidence":5},{"trial_n":170,"n_dots":3.75,"target":"left","response":"left","rt":283.80000001192,"correct":true,"confidence":5},{"trial_n":171,"n_dots":3.65,"target":"left","response":"right","rt":367.60000002384,"correct":false,"confidence":3},{"trial_n":172,"n_dots":3.75,"target":"right","response":"right","rt":474.60000002384,"correct":true,"confidence":4},{"trial_n":173,"n_dots":3.75,"target":"left","response":"left","rt":1406.1999999881,"correct":true,"confidence":4},{"trial_n":174,"n_dots":3.65,"target":"right","response":"left","rt":413.70000004768,"correct":false,"confidence":3},{"trial_n":175,"n_dots":3.75,"target":"left","response":"left","rt":327.89999997616,"correct":true,"confidence":5},{"trial_n":176,"n_dots":3.75,"target":"left","response":"left","rt":449,"correct":true,"confidence":5},{"trial_n":177,"n_dots":3.65,"target":"left","response":"right","rt":718.79999995232,"correct":false,"confidence":4},{"trial_n":178,"n_dots":3.75,"target":"right","response":"right","rt":477.90000003576,"correct":true,"confidence":4},{"trial_n":179,"n_dots":3.75,"target":"left","response":"right","rt":624.10000002384,"correct":false,"confidence":4},{"trial_n":180,"n_dots":3.85,"target":"left","response":"left","rt":269.40000003576,"correct":true,"confidence":4},{"trial_n":181,"n_dots":3.85,"target":"left","response":"left","rt":825.19999998808,"correct":true,"confidence":4},{"trial_n":182,"n_dots":3.75,"target":"left","response":"right","rt":726.5,"correct":false,"confidence":4},{"trial_n":183,"n_dots":3.85,"target":"right","response":"right","rt":418.30000001192,"correct":true,"confidence":4},{"trial_n":184,"n_dots":3.85,"target":"left","response":"left","rt":285.5,"correct":true,"confidence":4},{"trial_n":185,"n_dots":3.75,"target":"right","response":"right","rt":519.69999998808,"correct":true,"confidence":3},{"trial_n":186,"n_dots":3.75,"target":"right","response":"left","rt":504.30000001192,"correct":false,"confidence":3},{"trial_n":187,"n_dots":3.85,"target":"left","response":"left","rt":396.69999998808,"correct":true,"confidence":5},{"trial_n":188,"n_dots":3.85,"target":"left","response":"left","rt":318.80000001192,"correct":true,"confidence":5},{"trial_n":189,"n_dots":3.75,"target":"right","response":"left","rt":478.60000002384,"correct":false,"confidence":3},{"trial_n":190,"n_dots":3.85,"target":"right","response":"left","rt":496.59999996424,"correct":false,"confidence":3},{"trial_n":191,"n_dots":3.95,"target":"left","response":"left","rt":546.09999996424,"correct":true,"confidence":3},{"trial_n":192,"n_dots":3.95,"target":"right","response":"right","rt":524.89999997616,"correct":true,"confidence":3},{"trial_n":193,"n_dots":3.85,"target":"left","response":"left","rt":275.80000001192,"correct":true,"confidence":3},{"trial_n":194,"n_dots":3.85,"target":"right","response":"right","rt":878.19999998808,"correct":true,"confidence":4}]