[{"trial_n":1,"n_dots":4.25,"target":"right","response":"right","rt":2949.799999997,"correct":true,"confidence":-1},{"trial_n":2,"n_dots":4.25,"target":"right","response":"right","rt":594.69999998808,"correct":true,"confidence":-1},{"trial_n":3,"n_dots":3.85,"target":"left","response":"left","rt":450,"correct":true,"confidence":-1},{"trial_n":4,"n_dots":3.85,"target":"right","response":"right","rt":533.20000000298,"correct":true,"confidence":-1},{"trial_n":5,"n_dots":3.45,"target":"left","response":"right","rt":337.20000000298,"correct":false,"confidence":-1},{"trial_n":6,"n_dots":3.85,"target":"left","response":"right","rt":553.40000000596,"correct":false,"confidence":-1},{"trial_n":7,"n_dots":4.25,"target":"left","response":"left","rt":316.70000000298,"correct":true,"confidence":-1},{"trial_n":8,"n_dots":4.25,"target":"left","response":"left","rt":294.89999999106,"correct":true,"confidence":-1},{"trial_n":9,"n_dots":4.05,"target":"left","response":"right","rt":883.79999999702,"correct":false,"confidence":-1},{"trial_n":10,"n_dots":4.25,"target":"right","response":"right","rt":525.60000000894,"correct":true,"confidence":-1},{"trial_n":11,"n_dots":4.25,"target":"right","response":"right","rt":267.79999999702,"correct":true,"confidence":-1},{"trial_n":12,"n_dots":4.05,"target":"right","response":"right","rt":585.29999999702,"correct":true,"confidence":-1},{"trial_n":13,"n_dots":4.05,"target":"left","response":"left","rt":738.30000001192,"correct":true,"confidence":-1},{"trial_n":14,"n_dots":3.95,"target":"right","response":"right","rt":366.80000001192,"correct":true,"confidence":-1},{"trial_n":15,"n_dots":3.95,"target":"right","response":"right","rt":567.20000000298,"correct":true,"confidence":-1},{"trial_n":16,"n_dots":3.85,"target":"left","response":"left","rt":376.70000000298,"correct":true,"confidence":-1},{"trial_n":17,"n_dots":3.85,"target":"left","response":"left","rt":342.79999999702,"correct":true,"confidence":-1},{"trial_n":18,"n_dots":3.75,"target":"left","response":"left","rt":503.39999999106,"correct":true,"confidence":-1},{"trial_n":19,"n_dots":3.75,"target":"left","response":"right","rt":480.29999999702,"correct":false,"confidence":-1},{"trial_n":20,"n_dots":3.85,"target":"left","response":"left","rt":1372,"correct":true,"confidence":-1},{"trial_n":21,"n_dots":3.85,"target":"right","response":"right","rt":770,"correct":true,"confidence":-1},{"trial_n":22,"n_dots":3.75,"target":"left","response":"left","rt":609.20000000298,"correct":true,"confidence":-1},{"trial_n":23,"n_dots":3.75,"target":"right","response":"right","rt":384,"correct":true,"confidence":-1},{"trial_n":24,"n_dots":3.65,"target":"left","response":"right","rt":196.29999999702,"correct":false,"confidence":-1},{"trial_n":25,"n_dots":3.75,"target":"left","response":"left","rt":727.70000000298,"correct":true,"confidence":-1},{"trial_n":26,"n_dots":3.75,"target":"left","response":"right","rt":662.40000000596,"correct":false,"confidence":-1},{"trial_n":27,"n_dots":3.85,"target":"right","response":"right","rt":496.09999999404,"correct":true,"confidence":6},{"trial_n":28,"n_dots":3.85,"target":"right","response":"right","rt":734.20000000298,"correct":true,"confidence":4},{"trial_n":29,"n_dots":3.75,"target":"left","response":"right","rt":687.70000000298,"correct":false,"confidence":2},{"trial_n":30,"n_dots":3.85,"target":"right","response":"right","rt":412.79999999702,"correct":true,"confidence":6},{"trial_n":31,"n_dots":3.85,"target":"right","response":"left","rt":1297,"correct":false,"confidence":3},{"trial_n":32,"n_dots":3.95,"target":"right","response":"right","rt":444,"correct":true,"confidence":6},{"trial_n":33,"n_dots":3.95,"target":"right","response":"right","rt":242,"correct":true,"confidence":4},{"trial_n":34,"n_dots":3.85,"target":"right","response":"right","rt":243.5,"correct":true,"confidence":6},{"trial_n":35,"n_dots":3.85,"target":"left","response":"left","rt":1405.200000003,"correct":true,"confidence":1},{"trial_n":36,"n_dots":3.75,"target":"right","response":"right","rt":407.10000000894,"correct":true,"confidence":5},{"trial_n":37,"n_dots":3.75,"target":"right","response":"left","rt":4324.099999994,"correct":false,"confidence":1},{"trial_n":38,"n_dots":3.85,"target":"right","response":"right","rt":509.19999998808,"correct":true,"confidence":5},{"trial_n":39,"n_dots":3.85,"target":"right","response":"right","rt":242.5,"correct":true,"confidence":1},{"trial_n":40,"n_dots":3.75,"target":"right","response":"right","rt":252.79999999702,"correct":true,"confidence":6},{"trial_n":41,"n_dots":3.75,"target":"right","response":"right","rt":660.30000001192,"correct":true,"confidence":4},{"trial_n":42,"n_dots":3.65,"target":"left","response":"left","rt":884.30000001192,"correct":true,"confidence":4},{"trial_n":43,"n_dots":3.65,"target":"right","response":"right","rt":556.20000000298,"correct":true,"confidence":6},{"trial_n":44,"n_dots":3.55,"target":"right","response":"right","rt":460.29999999702,"correct":true,"confidence":6},{"trial_n":45,"n_dots":3.55,"target":"right","response":"right","rt":582.5,"correct":true,"confidence":5},{"trial_n":46,"n_dots":3.45,"target":"right","response":"right","rt":665.19999998808,"correct":true,"confidence":6},{"trial_n":47,"n_dots":3.45,"target":"right","response":"right","rt":425.60000000894,"correct":true,"confidence":6},{"trial_n":48,"n_dots":3.35,"target":"right","response":"right","rt":684.89999999106,"correct":true,"confidence":4},{"trial_n":49,"n_dots":3.35,"target":"left","response":"left","rt":1011.6000000089,"correct":true,"confidence":6},{"trial_n":50,"n_dots":3.25,"target":"left","response":"left","rt":779.40000000596,"correct":true,"confidence":4},{"trial_n":51,"n_dots":3.25,"target":"right","response":"right","rt":581,"correct":true,"confidence":5},{"trial_n":52,"n_dots":3.15,"target":"right","response":"right","rt":1025.6000000089,"correct":true,"confidence":5},{"trial_n":53,"n_dots":3.15,"target":"left","response":"right","rt":885.40000000596,"correct":false,"confidence":4},{"trial_n":54,"n_dots":3.25,"target":"right","response":"right","rt":872.70000000298,"correct":true,"confidence":3},{"trial_n":55,"n_dots":3.25,"target":"right","response":"right","rt":530.60000000894,"correct":true,"confidence":4},{"trial_n":56,"n_dots":3.15,"target":"left","response":"left","rt":663.20000000298,"correct":true,"confidence":4},{"trial_n":57,"n_dots":3.15,"target":"left","response":"left","rt":431.60000000894,"correct":true,"confidence":4},{"trial_n":58,"n_dots":3.05,"target":"left","response":"left","rt":563.79999999702,"correct":true,"confidence":3},{"trial_n":59,"n_dots":3.05,"target":"right","response":"left","rt":676.90000000596,"correct":false,"confidence":3},{"trial_n":60,"n_dots":3.15,"target":"right","response":"left","rt":903.40000000596,"correct":false,"confidence":5},{"trial_n":61,"n_dots":3.25,"target":"right","response":"right","rt":621.09999999404,"correct":true,"confidence":4},{"trial_n":62,"n_dots":3.25,"target":"right","response":"right","rt":717.90000000596,"correct":true,"confidence":4},{"trial_n":63,"n_dots":3.15,"target":"left","response":"left","rt":930.5,"correct":true,"confidence":4},{"trial_n":64,"n_dots":3.15,"target":"left","response":"left","rt":1014.799999997,"correct":true,"confidence":2},{"trial_n":65,"n_dots":3.05,"target":"left","response":"left","rt":760.20000000298,"correct":true,"confidence":4},{"trial_n":66,"n_dots":3.05,"target":"left","response":"left","rt":803,"correct":true,"confidence":3},{"trial_n":67,"n_dots":2.95,"target":"left","response":"right","rt":813.60000000894,"correct":false,"confidence":3},{"trial_n":68,"n_dots":3.05,"target":"right","response":"right","rt":6938.099999994,"correct":true,"confidence":3},{"trial_n":69,"n_dots":3.05,"target":"right","response":"right","rt":664.59999999404,"correct":true,"confidence":3},{"trial_n":70,"n_dots":2.95,"target":"left","response":"left","rt":552.59999999404,"correct":true,"confidence":3},{"trial_n":71,"n_dots":2.95,"target":"left","response":"left","rt":598.20000000298,"correct":true,"confidence":3},{"trial_n":72,"n_dots":2.85,"target":"right","response":"right","rt":550.90000000596,"correct":true,"confidence":4},{"trial_n":73,"n_dots":2.85,"target":"right","response":"left","rt":664.79999999702,"correct":false,"confidence":3},{"trial_n":74,"n_dots":2.95,"target":"right","response":"right","rt":554.09999999404,"correct":true,"confidence":4},{"trial_n":75,"n_dots":2.95,"target":"left","response":"left","rt":264.79999999702,"correct":true,"confidence":3},{"trial_n":76,"n_dots":2.85,"target":"right","response":"right","rt":399.70000000298,"correct":true,"confidence":4},{"trial_n":77,"n_dots":2.85,"target":"left","response":"right","rt":2055.200000003,"correct":false,"confidence":4},{"trial_n":78,"n_dots":2.95,"target":"left","response":"left","rt":288.20000000298,"correct":true,"confidence":4},{"trial_n":79,"n_dots":2.95,"target":"left","response":"right","rt":775,"correct":false,"confidence":4},{"trial_n":80,"n_dots":3.05,"target":"left","response":"left","rt":492.09999999404,"correct":true,"confidence":4},{"trial_n":81,"n_dots":3.05,"target":"left","response":"left","rt":771.59999999404,"correct":true,"confidence":3},{"trial_n":82,"n_dots":2.95,"target":"right","response":"right","rt":771.40000000596,"correct":true,"confidence":3},{"trial_n":83,"n_dots":2.95,"target":"left","response":"left","rt":447.29999999702,"correct":true,"confidence":3},{"trial_n":84,"n_dots":2.85,"target":"left","response":"left","rt":3907.400000006,"correct":true,"confidence":3},{"trial_n":85,"n_dots":2.85,"target":"right","response":"right","rt":3077.5,"correct":true,"confidence":4},{"trial_n":86,"n_dots":2.75,"target":"right","response":"right","rt":351.59999999404,"correct":true,"confidence":4},{"trial_n":87,"n_dots":2.75,"target":"right","response":"right","rt":826.90000000596,"correct":true,"confidence":4},{"trial_n":88,"n_dots":2.65,"target":"right","response":"right","rt":617.29999999702,"correct":true,"confidence":5},{"trial_n":89,"n_dots":2.65,"target":"right","response":"right","rt":616.90000000596,"correct":true,"confidence":4},{"trial_n":90,"n_dots":2.55,"target":"left","response":"right","rt":533.5,"correct":false,"confidence":4},{"trial_n":91,"n_dots":2.65,"target":"right","response":"right","rt":712.29999999702,"correct":true,"confidence":5},{"trial_n":92,"n_dots":2.65,"target":"left","response":"right","rt":476.09999999404,"correct":false,"confidence":5},{"trial_n":93,"n_dots":2.75,"target":"left","response":"right","rt":550.39999999106,"correct":false,"confidence":5},{"trial_n":94,"n_dots":2.85,"target":"left","response":"left","rt":549.20000000298,"correct":true,"confidence":5},{"trial_n":95,"n_dots":2.85,"target":"left","response":"right","rt":5448.5,"correct":false,"confidence":4},{"trial_n":96,"n_dots":2.95,"target":"left","response":"left","rt":558.40000000596,"correct":true,"confidence":4},{"trial_n":97,"n_dots":2.95,"target":"right","response":"left","rt":10925.399999991,"correct":false,"confidence":1},{"trial_n":98,"n_dots":3.05,"target":"left","response":"left","rt":439.89999999106,"correct":true,"confidence":2},{"trial_n":99,"n_dots":3.05,"target":"right","response":"right","rt":609.69999998808,"correct":true,"confidence":2},{"trial_n":100,"n_dots":2.95,"target":"right","response":"right","rt":934.70000000298,"correct":true,"confidence":2},{"trial_n":101,"n_dots":2.95,"target":"left","response":"left","rt":1457.799999997,"correct":true,"confidence":2},{"trial_n":102,"n_dots":2.85,"target":"right","response":"right","rt":1261.200000003,"correct":true,"confidence":4},{"trial_n":103,"n_dots":2.85,"target":"left","response":"left","rt":587.5,"correct":true,"confidence":4},{"trial_n":104,"n_dots":2.75,"target":"right","response":"right","rt":1022.5,"correct":true,"confidence":4},{"trial_n":105,"n_dots":2.75,"target":"right","response":"left","rt":606.79999999702,"correct":false,"confidence":4},{"trial_n":106,"n_dots":2.85,"target":"left","response":"left","rt":338.79999999702,"correct":true,"confidence":4},{"trial_n":107,"n_dots":2.85,"target":"left","response":"left","rt":229.19999998808,"correct":true,"confidence":5},{"trial_n":108,"n_dots":2.75,"target":"left","response":"left","rt":746.29999999702,"correct":true,"confidence":5},{"trial_n":109,"n_dots":2.75,"target":"right","response":"left","rt":263.10000000894,"correct":false,"confidence":4},{"trial_n":110,"n_dots":2.85,"target":"left","response":"left","rt":720.10000000894,"correct":true,"confidence":6},{"trial_n":111,"n_dots":2.85,"target":"right","response":"right","rt":202.10000000894,"correct":true,"confidence":6},{"trial_n":112,"n_dots":2.75,"target":"right","response":"left","rt":671,"correct":false,"confidence":5},{"trial_n":113,"n_dots":2.85,"target":"right","response":"right","rt":238.79999999702,"correct":true,"confidence":6},{"trial_n":114,"n_dots":2.85,"target":"right","response":"right","rt":129.20000000298,"correct":true,"confidence":6},{"trial_n":115,"n_dots":2.75,"target":"right","response":"right","rt":1120.400000006,"correct":true,"confidence":6},{"trial_n":116,"n_dots":2.75,"target":"left","response":"left","rt":845.79999999702,"correct":true,"confidence":6},{"trial_n":117,"n_dots":2.65,"target":"right","response":"left","rt":793.79999999702,"correct":false,"confidence":6},{"trial_n":118,"n_dots":2.75,"target":"left","response":"left","rt":428.59999999404,"correct":true,"confidence":6},{"trial_n":119,"n_dots":2.75,"target":"left","response":"left","rt":638.5,"correct":true,"confidence":6},{"trial_n":120,"n_dots":2.65,"target":"left","response":"left","rt":278.29999999702,"correct":true,"confidence":3},{"trial_n":121,"n_dots":2.65,"target":"left","response":"left","rt":298.79999999702,"correct":true,"confidence":6},{"trial_n":122,"n_dots":2.55,"target":"left","response":"left","rt":592.19999998808,"correct":true,"confidence":6},{"trial_n":123,"n_dots":2.55,"target":"left","response":"left","rt":731.10000000894,"correct":true,"confidence":6},{"trial_n":124,"n_dots":2.45,"target":"left","response":"right","rt":1275.3000000119,"correct":false,"confidence":6},{"trial_n":125,"n_dots":2.55,"target":"right","response":"left","rt":730.39999999106,"correct":false,"confidence":6},{"trial_n":126,"n_dots":2.65,"target":"right","response":"right","rt":1147.5,"correct":true,"confidence":1},{"trial_n":127,"n_dots":2.65,"target":"right","response":"left","rt":1634.3999999911,"correct":false,"confidence":1},{"trial_n":128,"n_dots":2.75,"target":"left","response":"left","rt":607.09999999404,"correct":true,"confidence":4},{"trial_n":129,"n_dots":2.75,"target":"left","response":"right","rt":284.90000000596,"correct":false,"confidence":2},{"trial_n":130,"n_dots":2.85,"target":"right","response":"right","rt":1442.599999994,"correct":true,"confidence":3},{"trial_n":131,"n_dots":2.85,"target":"left","response":"left","rt":305.40000000596,"correct":true,"confidence":4},{"trial_n":132,"n_dots":2.75,"target":"right","response":"right","rt":1156,"correct":true,"confidence":4},{"trial_n":133,"n_dots":2.75,"target":"right","response":"right","rt":689.29999999702,"correct":true,"confidence":4},{"trial_n":134,"n_dots":2.65,"target":"left","response":"right","rt":764.40000000596,"correct":false,"confidence":4},{"trial_n":135,"n_dots":2.75,"target":"left","response":"left","rt":439.90000000596,"correct":true,"confidence":5},{"trial_n":136,"n_dots":2.75,"target":"right","response":"right","rt":474.5,"correct":true,"confidence":3},{"trial_n":137,"n_dots":2.65,"target":"right","response":"right","rt":505.5,"correct":true,"confidence":2},{"trial_n":138,"n_dots":2.65,"target":"left","response":"left","rt":1340.3999999911,"correct":true,"confidence":2},{"trial_n":139,"n_dots":2.55,"target":"right","response":"right","rt":532.10000000894,"correct":true,"confidence":3},{"trial_n":140,"n_dots":2.55,"target":"left","response":"right","rt":487.29999999702,"correct":false,"confidence":3},{"trial_n":141,"n_dots":2.65,"target":"left","response":"right","rt":455.20000000298,"correct":false,"confidence":4},{"trial_n":142,"n_dots":2.75,"target":"right","response":"right","rt":515.20000000298,"correct":true,"confidence":4},{"trial_n":143,"n_dots":2.75,"target":"right","response":"right","rt":272.29999999702,"correct":true,"confidence":3},{"trial_n":144,"n_dots":2.65,"target":"right","response":"right","rt":493.69999998808,"correct":true,"confidence":3},{"trial_n":145,"n_dots":2.65,"target":"left","response":"left","rt":283.60000000894,"correct":true,"confidence":3},{"trial_n":146,"n_dots":2.55,"target":"right","response":"left","rt":318.10000000894,"correct":false,"confidence":3},{"trial_n":147,"n_dots":2.65,"target":"left","response":"left","rt":597.39999999106,"correct":true,"confidence":3},{"trial_n":148,"n_dots":2.65,"target":"right","response":"right","rt":497.70000000298,"correct":true,"confidence":3},{"trial_n":149,"n_dots":2.55,"target":"left","response":"left","rt":477.30000001192,"correct":true,"confidence":2},{"trial_n":150,"n_dots":2.55,"target":"right","response":"right","rt":1228,"correct":true,"confidence":3},{"trial_n":151,"n_dots":2.45,"target":"left","response":"right","rt":507.70000000298,"correct":false,"confidence":3},{"trial_n":152,"n_dots":2.55,"target":"right","response":"right","rt":318.5,"correct":true,"confidence":3},{"trial_n":153,"n_dots":2.55,"target":"left","response":"right","rt":159.5,"correct":false,"confidence":3},{"trial_n":154,"n_dots":2.65,"target":"left","response":"left","rt":3516.1000000089,"correct":true,"confidence":1},{"trial_n":155,"n_dots":2.65,"target":"left","response":"right","rt":275.09999999404,"correct":false,"confidence":2},{"trial_n":156,"n_dots":2.75,"target":"right","response":"left","rt":515.29999999702,"correct":false,"confidence":1},{"trial_n":157,"n_dots":2.85,"target":"left","response":"left","rt":290.90000000596,"correct":true,"confidence":3},{"trial_n":158,"n_dots":2.85,"target":"left","response":"left","rt":827.89999999106,"correct":true,"confidence":3},{"trial_n":159,"n_dots":2.75,"target":"right","response":"right","rt":103.5,"correct":true,"confidence":2},{"trial_n":160,"n_dots":2.75,"target":"right","response":"left","rt":8433,"correct":false,"confidence":1},{"trial_n":161,"n_dots":2.85,"target":"right","response":"right","rt":164.89999999106,"correct":true,"confidence":6},{"trial_n":162,"n_dots":2.85,"target":"left","response":"right","rt":488.80000001192,"correct":false,"confidence":6},{"trial_n":163,"n_dots":2.95,"target":"left","response":"left","rt":367.70000000298,"correct":true,"confidence":5},{"trial_n":164,"n_dots":2.95,"target":"left","response":"left","rt":856.70000000298,"correct":true,"confidence":5},{"trial_n":165,"n_dots":2.85,"target":"left","response":"right","rt":663.5,"correct":false,"confidence":3},{"trial_n":166,"n_dots":2.95,"target":"right","response":"right","rt":250.19999998808,"correct":true,"confidence":3},{"trial_n":167,"n_dots":2.95,"target":"right","response":"right","rt":257.70000000298,"correct":true,"confidence":3},{"trial_n":168,"n_dots":2.85,"target":"left","response":"left","rt":834.70000000298,"correct":true,"confidence":3},{"trial_n":169,"n_dots":2.85,"target":"left","response":"left","rt":270.59999999404,"correct":true,"confidence":3},{"trial_n":170,"n_dots":2.75,"target":"right","response":"right","rt":290.60000000894,"correct":true,"confidence":4},{"trial_n":171,"n_dots":2.75,"target":"left","response":"left","rt":113.40000000596,"correct":true,"confidence":2},{"trial_n":172,"n_dots":2.65,"target":"right","response":"right","rt":253.39999999106,"correct":true,"confidence":4},{"trial_n":173,"n_dots":2.65,"target":"left","response":"right","rt":572.69999998808,"correct":false,"confidence":1},{"trial_n":174,"n_dots":2.75,"target":"right","response":"left","rt":747.59999999404,"correct":false,"confidence":1},{"trial_n":175,"n_dots":2.85,"target":"left","response":"left","rt":545,"correct":true,"confidence":3},{"trial_n":176,"n_dots":2.85,"target":"right","response":"left","rt":332.20000000298,"correct":false,"confidence":3},{"trial_n":177,"n_dots":2.95,"target":"right","response":"left","rt":324,"correct":false,"confidence":2},{"trial_n":178,"n_dots":3.05,"target":"left","response":"left","rt":413.59999999404,"correct":true,"confidence":2},{"trial_n":179,"n_dots":3.05,"target":"left","response":"left","rt":450.59999999404,"correct":true,"confidence":2},{"trial_n":180,"n_dots":2.95,"target":"left","response":"right","rt":252.69999998808,"correct":false,"confidence":2},{"trial_n":181,"n_dots":3.05,"target":"right","response":"right","rt":212.40000000596,"correct":true,"confidence":2},{"trial_n":182,"n_dots":3.05,"target":"right","response":"left","rt":419.30000001192,"correct":false,"confidence":1},{"trial_n":183,"n_dots":3.15,"target":"right","response":"right","rt":485.69999998808,"correct":true,"confidence":1},{"trial_n":184,"n_dots":3.15,"target":"right","response":"right","rt":416.29999999702,"correct":true,"confidence":2},{"trial_n":185,"n_dots":3.05,"target":"left","response":"left","rt":773.60000000894,"correct":true,"confidence":1},{"trial_n":186,"n_dots":3.05,"target":"left","response":"left","rt":668.39999999106,"correct":true,"confidence":2},{"trial_n":187,"n_dots":2.95,"target":"left","response":"left","rt":804.69999998808,"correct":true,"confidence":3},{"trial_n":188,"n_dots":2.95,"target":"left","response":"left","rt":562,"correct":true,"confidence":5},{"trial_n":189,"n_dots":2.85,"target":"left","response":"left","rt":244.19999998808,"correct":true,"confidence":4},{"trial_n":190,"n_dots":2.85,"target":"right","response":"right","rt":917.89999999106,"correct":true,"confidence":2},{"trial_n":191,"n_dots":2.75,"target":"right","response":"left","rt":390.60000000894,"correct":false,"confidence":1},{"trial_n":192,"n_dots":2.85,"target":"left","response":"right","rt":576.79999999702,"correct":false,"confidence":1},{"trial_n":193,"n_dots":2.95,"target":"left","response":"left","rt":335.40000000596,"correct":true,"confidence":4},{"trial_n":194,"n_dots":2.95,"target":"right","response":"left","rt":371.60000000894,"correct":false,"confidence":6}]