[{"trial_n":1,"n_dots":4.25,"target":"right","response":"right","rt":4425.1000000238,"correct":true,"confidence":-1},{"trial_n":2,"n_dots":4.25,"target":"right","response":"right","rt":948.30000001192,"correct":true,"confidence":-1},{"trial_n":3,"n_dots":3.85,"target":"right","response":"right","rt":676.60000002384,"correct":true,"confidence":-1},{"trial_n":4,"n_dots":3.85,"target":"left","response":"right","rt":789.09999996424,"correct":false,"confidence":-1},{"trial_n":5,"n_dots":4.25,"target":"left","response":"left","rt":735.69999998808,"correct":true,"confidence":-1},{"trial_n":6,"n_dots":4.25,"target":"left","response":"right","rt":1083.9000000358,"correct":false,"confidence":-1},{"trial_n":7,"n_dots":4.65,"target":"left","response":"left","rt":586.40000003576,"correct":true,"confidence":-1},{"trial_n":8,"n_dots":4.65,"target":"right","response":"right","rt":425.19999998808,"correct":true,"confidence":-1},{"trial_n":9,"n_dots":4.45,"target":"right","response":"right","rt":781.10000002384,"correct":true,"confidence":-1},{"trial_n":10,"n_dots":4.45,"target":"right","response":"right","rt":623.29999995232,"correct":true,"confidence":-1},{"trial_n":11,"n_dots":4.25,"target":"right","response":"right","rt":1130.3000000119,"correct":true,"confidence":-1},{"trial_n":12,"n_dots":4.25,"target":"right","response":"right","rt":798.5,"correct":true,"confidence":-1},{"trial_n":13,"n_dots":4.15,"target":"left","response":"left","rt":913.39999997616,"correct":true,"confidence":-1},{"trial_n":14,"n_dots":4.15,"target":"right","response":"right","rt":584.79999995232,"correct":true,"confidence":-1},{"trial_n":15,"n_dots":4.05,"target":"right","response":"right","rt":744.39999997616,"correct":true,"confidence":-1},{"trial_n":16,"n_dots":4.05,"target":"left","response":"left","rt":1860.5999999642,"correct":true,"confidence":-1},{"trial_n":17,"n_dots":3.95,"target":"right","response":"right","rt":630.10000002384,"correct":true,"confidence":-1},{"trial_n":18,"n_dots":3.95,"target":"right","response":"right","rt":692.10000002384,"correct":true,"confidence":-1},{"trial_n":19,"n_dots":3.85,"target":"left","response":"left","rt":1029.8000000119,"correct":true,"confidence":-1},{"trial_n":20,"n_dots":3.85,"target":"right","response":"right","rt":552.19999998808,"correct":true,"confidence":-1},{"trial_n":21,"n_dots":3.75,"target":"right","response":"right","rt":585,"correct":true,"confidence":-1},{"trial_n":22,"n_dots":3.75,"target":"right","response":"right","rt":601.69999998808,"correct":true,"confidence":-1},{"trial_n":23,"n_dots":3.65,"target":"left","response":"left","rt":528.10000002384,"correct":true,"confidence":-1},{"trial_n":24,"n_dots":3.65,"target":"right","response":"right","rt":476.60000002384,"correct":true,"confidence":-1},{"trial_n":25,"n_dots":3.55,"target":"right","response":"right","rt":2771.8000000119,"correct":true,"confidence":-1},{"trial_n":26,"n_dots":3.55,"target":"right","response":"right","rt":612.70000004768,"correct":true,"confidence":-1},{"trial_n":27,"n_dots":3.45,"target":"right","response":"right","rt":665.19999998808,"correct":true,"confidence":5},{"trial_n":28,"n_dots":3.45,"target":"left","response":"left","rt":2466.8999999762,"correct":true,"confidence":3},{"trial_n":29,"n_dots":3.35,"target":"left","response":"left","rt":704.60000002384,"correct":true,"confidence":6},{"trial_n":30,"n_dots":3.35,"target":"left","response":"left","rt":1644.5,"correct":true,"confidence":4},{"trial_n":31,"n_dots":3.25,"target":"left","response":"left","rt":1992.8000000119,"correct":true,"confidence":4},{"trial_n":32,"n_dots":3.25,"target":"right","response":"right","rt":692,"correct":true,"confidence":6},{"trial_n":33,"n_dots":3.15,"target":"right","response":"right","rt":665.69999998808,"correct":true,"confidence":6},{"trial_n":34,"n_dots":3.15,"target":"left","response":"left","rt":4725.6999999881,"correct":true,"confidence":2},{"trial_n":35,"n_dots":3.05,"target":"right","response":"right","rt":576.40000003576,"correct":true,"confidence":6},{"trial_n":36,"n_dots":3.05,"target":"left","response":"right","rt":728.90000003576,"correct":false,"confidence":5},{"trial_n":37,"n_dots":3.15,"target":"left","response":"left","rt":510.60000002384,"correct":true,"confidence":6},{"trial_n":38,"n_dots":3.15,"target":"left","response":"right","rt":1832.8999999762,"correct":false,"confidence":3},{"trial_n":39,"n_dots":3.25,"target":"right","response":"right","rt":487.69999998808,"correct":true,"confidence":6},{"trial_n":40,"n_dots":3.25,"target":"right","response":"right","rt":554.70000004768,"correct":true,"confidence":6},{"trial_n":41,"n_dots":3.15,"target":"left","response":"right","rt":593.30000001192,"correct":false,"confidence":6},{"trial_n":42,"n_dots":3.25,"target":"left","response":"right","rt":998.30000001192,"correct":false,"confidence":6},{"trial_n":43,"n_dots":3.35,"target":"right","response":"right","rt":662.90000003576,"correct":true,"confidence":6},{"trial_n":44,"n_dots":3.35,"target":"left","response":"left","rt":2501.6999999881,"correct":true,"confidence":3},{"trial_n":45,"n_dots":3.25,"target":"left","response":"right","rt":3284.2999999523,"correct":false,"confidence":4},{"trial_n":46,"n_dots":3.35,"target":"left","response":"right","rt":966.89999997616,"correct":false,"confidence":3},{"trial_n":47,"n_dots":3.45,"target":"left","response":"left","rt":2132.3999999762,"correct":true,"confidence":4},{"trial_n":48,"n_dots":3.45,"target":"right","response":"right","rt":553.89999997616,"correct":true,"confidence":5},{"trial_n":49,"n_dots":3.35,"target":"left","response":"left","rt":684.20000004768,"correct":true,"confidence":5},{"trial_n":50,"n_dots":3.35,"target":"left","response":"left","rt":510.5,"correct":true,"confidence":5},{"trial_n":51,"n_dots":3.25,"target":"right","response":"right","rt":434.60000002384,"correct":true,"confidence":5},{"trial_n":52,"n_dots":3.25,"target":"left","response":"left","rt":615.89999997616,"correct":true,"confidence":6},{"trial_n":53,"n_dots":3.15,"target":"right","response":"right","rt":549.79999995232,"correct":true,"confidence":5},{"trial_n":54,"n_dots":3.15,"target":"right","response":"right","rt":432.39999997616,"correct":true,"confidence":6},{"trial_n":55,"n_dots":3.05,"target":"left","response":"left","rt":665.10000002384,"correct":true,"confidence":5},{"trial_n":56,"n_dots":3.05,"target":"left","response":"left","rt":2958.3000000119,"correct":true,"confidence":5},{"trial_n":57,"n_dots":2.95,"target":"left","response":"left","rt":564.80000001192,"correct":true,"confidence":4},{"trial_n":58,"n_dots":2.95,"target":"left","response":"left","rt":783.79999995232,"correct":true,"confidence":5},{"trial_n":59,"n_dots":2.85,"target":"right","response":"right","rt":333.09999996424,"correct":true,"confidence":6},{"trial_n":60,"n_dots":2.85,"target":"left","response":"left","rt":711.69999998808,"correct":true,"confidence":5},{"trial_n":61,"n_dots":2.75,"target":"left","response":"right","rt":639.89999997616,"correct":false,"confidence":6},{"trial_n":62,"n_dots":2.85,"target":"left","response":"left","rt":1382.8999999762,"correct":true,"confidence":5},{"trial_n":63,"n_dots":2.85,"target":"right","response":"left","rt":552.69999998808,"correct":false,"confidence":5},{"trial_n":64,"n_dots":2.95,"target":"left","response":"right","rt":501.5,"correct":false,"confidence":6},{"trial_n":65,"n_dots":3.05,"target":"left","response":"right","rt":534.70000004768,"correct":false,"confidence":5},{"trial_n":66,"n_dots":3.15,"target":"right","response":"right","rt":427.59999996424,"correct":true,"confidence":5},{"trial_n":67,"n_dots":3.15,"target":"right","response":"right","rt":679.10000002384,"correct":true,"confidence":5},{"trial_n":68,"n_dots":3.05,"target":"left","response":"left","rt":869.39999997616,"correct":true,"confidence":5},{"trial_n":69,"n_dots":3.05,"target":"left","response":"right","rt":694.59999996424,"correct":false,"confidence":5},{"trial_n":70,"n_dots":3.15,"target":"right","response":"left","rt":1366.3999999762,"correct":false,"confidence":4},{"trial_n":71,"n_dots":3.25,"target":"left","response":"left","rt":17532.200000048,"correct":true,"confidence":1},{"trial_n":72,"n_dots":3.25,"target":"right","response":"right","rt":509.09999996424,"correct":true,"confidence":3},{"trial_n":73,"n_dots":3.15,"target":"left","response":"left","rt":505.80000001192,"correct":true,"confidence":6},{"trial_n":74,"n_dots":3.15,"target":"right","response":"right","rt":450.09999996424,"correct":true,"confidence":5},{"trial_n":75,"n_dots":3.05,"target":"left","response":"left","rt":509.60000002384,"correct":true,"confidence":5},{"trial_n":76,"n_dots":3.05,"target":"left","response":"left","rt":602.19999998808,"correct":true,"confidence":5},{"trial_n":77,"n_dots":2.95,"target":"right","response":"right","rt":1562.1999999881,"correct":true,"confidence":5},{"trial_n":78,"n_dots":2.95,"target":"right","response":"right","rt":504.60000002384,"correct":true,"confidence":4},{"trial_n":79,"n_dots":2.85,"target":"left","response":"left","rt":2353.7000000477,"correct":true,"confidence":4},{"trial_n":80,"n_dots":2.85,"target":"left","response":"left","rt":2080.1000000238,"correct":true,"confidence":1},{"trial_n":81,"n_dots":2.75,"target":"right","response":"right","rt":485.70000004768,"correct":true,"confidence":6},{"trial_n":82,"n_dots":2.75,"target":"left","response":"left","rt":2177.3999999762,"correct":true,"confidence":1},{"trial_n":83,"n_dots":2.65,"target":"left","response":"right","rt":769.30000001192,"correct":false,"confidence":5},{"trial_n":84,"n_dots":2.75,"target":"left","response":"left","rt":711.09999996424,"correct":true,"confidence":1},{"trial_n":85,"n_dots":2.75,"target":"left","response":"left","rt":865.89999997616,"correct":true,"confidence":1},{"trial_n":86,"n_dots":2.65,"target":"left","response":"right","rt":789.70000004768,"correct":false,"confidence":3},{"trial_n":87,"n_dots":2.75,"target":"right","response":"right","rt":317.5,"correct":true,"confidence":4},{"trial_n":88,"n_dots":2.75,"target":"left","response":"right","rt":577,"correct":false,"confidence":6},{"trial_n":89,"n_dots":2.85,"target":"right","response":"right","rt":422.89999997616,"correct":true,"confidence":6},{"trial_n":90,"n_dots":2.85,"target":"left","response":"left","rt":498.59999996424,"correct":true,"confidence":5},{"trial_n":91,"n_dots":2.75,"target":"left","response":"left","rt":483,"correct":true,"confidence":6},{"trial_n":92,"n_dots":2.75,"target":"left","response":"left","rt":1207.5,"correct":true,"confidence":1},{"trial_n":93,"n_dots":2.65,"target":"right","response":"right","rt":535.39999997616,"correct":true,"confidence":6},{"trial_n":94,"n_dots":2.65,"target":"right","response":"right","rt":513.89999997616,"correct":true,"confidence":6},{"trial_n":95,"n_dots":2.55,"target":"left","response":"right","rt":855.70000004768,"correct":false,"confidence":5},{"trial_n":96,"n_dots":2.65,"target":"right","response":"left","rt":1098.5,"correct":false,"confidence":5},{"trial_n":97,"n_dots":2.75,"target":"right","response":"left","rt":44580.899999976,"correct":false,"confidence":6},{"trial_n":98,"n_dots":2.85,"target":"left","response":"left","rt":14351,"correct":true,"confidence":6},{"trial_n":99,"n_dots":2.85,"target":"left","response":"left","rt":52291.399999976,"correct":true,"confidence":6},{"trial_n":100,"n_dots":2.75,"target":"right","response":"left","rt":1435.5,"correct":false,"confidence":1},{"trial_n":101,"n_dots":2.85,"target":"right","response":"right","rt":732.80000001192,"correct":true,"confidence":1},{"trial_n":102,"n_dots":2.85,"target":"left","response":"right","rt":825.5,"correct":false,"confidence":1},{"trial_n":103,"n_dots":2.95,"target":"right","response":"right","rt":542.5,"correct":true,"confidence":6},{"trial_n":104,"n_dots":2.95,"target":"left","response":"right","rt":643.79999995232,"correct":false,"confidence":6},{"trial_n":105,"n_dots":3.05,"target":"left","response":"right","rt":754.29999995232,"correct":false,"confidence":1},{"trial_n":106,"n_dots":3.15,"target":"right","response":"right","rt":569.69999998808,"correct":true,"confidence":6},{"trial_n":107,"n_dots":3.15,"target":"left","response":"left","rt":504.60000002384,"correct":true,"confidence":6},{"trial_n":108,"n_dots":3.05,"target":"left","response":"left","rt":532.59999996424,"correct":true,"confidence":5},{"trial_n":109,"n_dots":3.05,"target":"left","response":"left","rt":561.80000001192,"correct":true,"confidence":5},{"trial_n":110,"n_dots":2.95,"target":"right","response":"right","rt":681.39999997616,"correct":true,"confidence":4},{"trial_n":111,"n_dots":2.95,"target":"left","response":"left","rt":800.10000002384,"correct":true,"confidence":3},{"trial_n":112,"n_dots":2.85,"target":"right","response":"right","rt":632,"correct":true,"confidence":1},{"trial_n":113,"n_dots":2.85,"target":"right","response":"left","rt":1381.6000000238,"correct":false,"confidence":1},{"trial_n":114,"n_dots":2.95,"target":"left","response":"left","rt":384.60000002384,"correct":true,"confidence":4},{"trial_n":115,"n_dots":2.95,"target":"right","response":"right","rt":474.39999997616,"correct":true,"confidence":4},{"trial_n":116,"n_dots":2.85,"target":"left","response":"left","rt":443.60000002384,"correct":true,"confidence":4},{"trial_n":117,"n_dots":2.85,"target":"right","response":"right","rt":470.5,"correct":true,"confidence":4},{"trial_n":118,"n_dots":2.75,"target":"right","response":"left","rt":407.40000003576,"correct":false,"confidence":4},{"trial_n":119,"n_dots":2.85,"target":"right","response":"right","rt":719.30000001192,"correct":true,"confidence":4},{"trial_n":120,"n_dots":2.85,"target":"left","response":"left","rt":233.19999998808,"correct":true,"confidence":4},{"trial_n":121,"n_dots":2.75,"target":"right","response":"left","rt":553.70000004768,"correct":false,"confidence":4},{"trial_n":122,"n_dots":2.85,"target":"right","response":"left","rt":886.10000002384,"correct":false,"confidence":1},{"trial_n":123,"n_dots":2.95,"target":"left","response":"left","rt":2016.1999999881,"correct":true,"confidence":5},{"trial_n":124,"n_dots":2.95,"target":"left","response":"left","rt":600.30000001192,"correct":true,"confidence":5},{"trial_n":125,"n_dots":2.85,"target":"left","response":"left","rt":580.80000001192,"correct":true,"confidence":5},{"trial_n":126,"n_dots":2.85,"target":"right","response":"left","rt":541.70000004768,"correct":false,"confidence":5},{"trial_n":127,"n_dots":2.95,"target":"right","response":"right","rt":468.5,"correct":true,"confidence":5},{"trial_n":128,"n_dots":2.95,"target":"right","response":"right","rt":424.19999998808,"correct":true,"confidence":5},{"trial_n":129,"n_dots":2.85,"target":"left","response":"left","rt":1018.8999999762,"correct":true,"confidence":3},{"trial_n":130,"n_dots":2.85,"target":"right","response":"right","rt":419.09999996424,"correct":true,"confidence":5},{"trial_n":131,"n_dots":2.75,"target":"right","response":"left","rt":1741.9000000358,"correct":false,"confidence":5},{"trial_n":132,"n_dots":2.85,"target":"right","response":"left","rt":1519,"correct":false,"confidence":1},{"trial_n":133,"n_dots":2.95,"target":"left","response":"left","rt":533.19999998808,"correct":true,"confidence":5},{"trial_n":134,"n_dots":2.95,"target":"right","response":"right","rt":623.5,"correct":true,"confidence":5},{"trial_n":135,"n_dots":2.85,"target":"right","response":"right","rt":625.30000001192,"correct":true,"confidence":5},{"trial_n":136,"n_dots":2.85,"target":"right","response":"right","rt":824.30000001192,"correct":true,"confidence":5},{"trial_n":137,"n_dots":2.75,"target":"right","response":"right","rt":780.09999996424,"correct":true,"confidence":5},{"trial_n":138,"n_dots":2.75,"target":"left","response":"right","rt":556.80000001192,"correct":false,"confidence":5},{"trial_n":139,"n_dots":2.85,"target":"right","response":"right","rt":386.80000001192,"correct":true,"confidence":5},{"trial_n":140,"n_dots":2.85,"target":"left","response":"left","rt":463.30000001192,"correct":true,"confidence":5},{"trial_n":141,"n_dots":2.75,"target":"left","response":"right","rt":411.09999996424,"correct":false,"confidence":4},{"trial_n":142,"n_dots":2.85,"target":"right","response":"right","rt":430.60000002384,"correct":true,"confidence":5},{"trial_n":143,"n_dots":2.85,"target":"left","response":"left","rt":362.59999996424,"correct":true,"confidence":4},{"trial_n":144,"n_dots":2.75,"target":"left","response":"right","rt":651.89999997616,"correct":false,"confidence":4},{"trial_n":145,"n_dots":2.85,"target":"left","response":"right","rt":791.90000003576,"correct":false,"confidence":2},{"trial_n":146,"n_dots":2.95,"target":"right","response":"right","rt":408.5,"correct":true,"confidence":4},{"trial_n":147,"n_dots":2.95,"target":"right","response":"right","rt":343.19999998808,"correct":true,"confidence":6},{"trial_n":148,"n_dots":2.85,"target":"left","response":"right","rt":2262,"correct":false,"confidence":6},{"trial_n":149,"n_dots":2.95,"target":"left","response":"left","rt":579.19999998808,"correct":true,"confidence":4},{"trial_n":150,"n_dots":2.95,"target":"left","response":"right","rt":646.5,"correct":false,"confidence":4},{"trial_n":151,"n_dots":3.05,"target":"left","response":"left","rt":853.70000004768,"correct":true,"confidence":4},{"trial_n":152,"n_dots":3.05,"target":"right","response":"right","rt":412.60000002384,"correct":true,"confidence":4},{"trial_n":153,"n_dots":2.95,"target":"left","response":"right","rt":592.5,"correct":false,"confidence":4},{"trial_n":154,"n_dots":3.05,"target":"right","response":"right","rt":497.10000002384,"correct":true,"confidence":6},{"trial_n":155,"n_dots":3.05,"target":"right","response":"right","rt":418,"correct":true,"confidence":5},{"trial_n":156,"n_dots":2.95,"target":"right","response":"right","rt":383.70000004768,"correct":true,"confidence":6},{"trial_n":157,"n_dots":2.95,"target":"right","response":"right","rt":272.60000002384,"correct":true,"confidence":6},{"trial_n":158,"n_dots":2.85,"target":"right","response":"right","rt":324.40000003576,"correct":true,"confidence":6},{"trial_n":159,"n_dots":2.85,"target":"left","response":"right","rt":603.40000003576,"correct":false,"confidence":4},{"trial_n":160,"n_dots":2.95,"target":"left","response":"right","rt":360.29999995232,"correct":false,"confidence":4},{"trial_n":161,"n_dots":3.05,"target":"right","response":"right","rt":381.39999997616,"correct":true,"confidence":5},{"trial_n":162,"n_dots":3.05,"target":"right","response":"right","rt":316.79999995232,"correct":true,"confidence":5},{"trial_n":163,"n_dots":2.95,"target":"right","response":"right","rt":339.79999995232,"correct":true,"confidence":6},{"trial_n":164,"n_dots":2.95,"target":"right","response":"right","rt":427.80000001192,"correct":true,"confidence":5},{"trial_n":165,"n_dots":2.85,"target":"right","response":"right","rt":626.80000001192,"correct":true,"confidence":5},{"trial_n":166,"n_dots":2.85,"target":"right","response":"right","rt":231.60000002384,"correct":true,"confidence":5},{"trial_n":167,"n_dots":2.75,"target":"left","response":"right","rt":437,"correct":false,"confidence":5},{"trial_n":168,"n_dots":2.85,"target":"right","response":"right","rt":819.19999998808,"correct":true,"confidence":1},{"trial_n":169,"n_dots":2.85,"target":"left","response":"left","rt":496.30000001192,"correct":true,"confidence":4},{"trial_n":170,"n_dots":2.75,"target":"left","response":"left","rt":820.20000004768,"correct":true,"confidence":3},{"trial_n":171,"n_dots":2.75,"target":"left","response":"right","rt":478.5,"correct":false,"confidence":4},{"trial_n":172,"n_dots":2.85,"target":"right","response":"right","rt":327.30000001192,"correct":true,"confidence":4},{"trial_n":173,"n_dots":2.85,"target":"right","response":"right","rt":382.80000001192,"correct":true,"confidence":4},{"trial_n":174,"n_dots":2.75,"target":"left","response":"left","rt":1110.8999999762,"correct":true,"confidence":4},{"trial_n":175,"n_dots":2.75,"target":"right","response":"right","rt":469.5,"correct":true,"confidence":4},{"trial_n":176,"n_dots":2.65,"target":"right","response":"right","rt":358.19999998808,"correct":true,"confidence":5},{"trial_n":177,"n_dots":2.65,"target":"left","response":"left","rt":913.10000002384,"correct":true,"confidence":5},{"trial_n":178,"n_dots":2.55,"target":"left","response":"left","rt":538.80000001192,"correct":true,"confidence":4},{"trial_n":179,"n_dots":2.55,"target":"left","response":"left","rt":758.5,"correct":true,"confidence":4},{"trial_n":180,"n_dots":2.45,"target":"left","response":"right","rt":494.80000001192,"correct":false,"confidence":4},{"trial_n":181,"n_dots":2.55,"target":"right","response":"right","rt":382.59999996424,"correct":true,"confidence":4},{"trial_n":182,"n_dots":2.55,"target":"left","response":"right","rt":572.5,"correct":false,"confidence":4},{"trial_n":183,"n_dots":2.65,"target":"left","response":"right","rt":349.69999998808,"correct":false,"confidence":4},{"trial_n":184,"n_dots":2.75,"target":"left","response":"left","rt":483.5,"correct":true,"confidence":4},{"trial_n":185,"n_dots":2.75,"target":"right","response":"right","rt":345.5,"correct":true,"confidence":4},{"trial_n":186,"n_dots":2.65,"target":"right","response":"right","rt":466.70000004768,"correct":true,"confidence":6},{"trial_n":187,"n_dots":2.65,"target":"left","response":"right","rt":613.5,"correct":false,"confidence":5},{"trial_n":188,"n_dots":2.75,"target":"right","response":"right","rt":424.19999998808,"correct":true,"confidence":3},{"trial_n":189,"n_dots":2.75,"target":"right","response":"left","rt":2754.9000000358,"correct":false,"confidence":1},{"trial_n":190,"n_dots":2.85,"target":"right","response":"right","rt":326.19999998808,"correct":true,"confidence":6},{"trial_n":191,"n_dots":2.85,"target":"right","response":"right","rt":496.39999997616,"correct":true,"confidence":5},{"trial_n":192,"n_dots":2.75,"target":"left","response":"right","rt":532,"correct":false,"confidence":5},{"trial_n":193,"n_dots":2.85,"target":"right","response":"right","rt":427,"correct":true,"confidence":5},{"trial_n":194,"n_dots":2.85,"target":"left","response":"right","rt":402.5,"correct":false,"confidence":5}]