[{"trial_n":1,"n_dots":4.25,"target":"left","response":"left","rt":33463.100000024,"correct":true,"confidence":-1},{"trial_n":2,"n_dots":4.25,"target":"right","response":"right","rt":1747.6999999881,"correct":true,"confidence":-1},{"trial_n":3,"n_dots":3.85,"target":"left","response":"left","rt":635,"correct":true,"confidence":-1},{"trial_n":4,"n_dots":3.85,"target":"left","response":"left","rt":586.69999998808,"correct":true,"confidence":-1},{"trial_n":5,"n_dots":3.45,"target":"right","response":"right","rt":493.10000002384,"correct":true,"confidence":-1},{"trial_n":6,"n_dots":3.45,"target":"right","response":"right","rt":482.70000004768,"correct":true,"confidence":-1},{"trial_n":7,"n_dots":3.05,"target":"right","response":"left","rt":580.39999997616,"correct":false,"confidence":-1},{"trial_n":8,"n_dots":3.25,"target":"left","response":"right","rt":572.39999997616,"correct":false,"confidence":-1},{"trial_n":9,"n_dots":3.45,"target":"right","response":"right","rt":768.30000001192,"correct":true,"confidence":-1},{"trial_n":10,"n_dots":3.45,"target":"left","response":"left","rt":403.29999995232,"correct":true,"confidence":-1},{"trial_n":11,"n_dots":3.25,"target":"right","response":"right","rt":430.89999997616,"correct":true,"confidence":-1},{"trial_n":12,"n_dots":3.25,"target":"right","response":"left","rt":657.70000004768,"correct":false,"confidence":-1},{"trial_n":13,"n_dots":3.35,"target":"right","response":"right","rt":484.10000002384,"correct":true,"confidence":-1},{"trial_n":14,"n_dots":3.35,"target":"left","response":"left","rt":485.5,"correct":true,"confidence":-1},{"trial_n":15,"n_dots":3.25,"target":"right","response":"right","rt":599.80000001192,"correct":true,"confidence":-1},{"trial_n":16,"n_dots":3.25,"target":"left","response":"left","rt":750.80000001192,"correct":true,"confidence":-1},{"trial_n":17,"n_dots":3.15,"target":"left","response":"right","rt":779.5,"correct":false,"confidence":-1},{"trial_n":18,"n_dots":3.25,"target":"left","response":"right","rt":568.79999995232,"correct":false,"confidence":-1},{"trial_n":19,"n_dots":3.35,"target":"right","response":"left","rt":893.30000001192,"correct":false,"confidence":-1},{"trial_n":20,"n_dots":3.45,"target":"right","response":"right","rt":1478.7999999523,"correct":true,"confidence":-1},{"trial_n":21,"n_dots":3.45,"target":"left","response":"left","rt":461.5,"correct":true,"confidence":-1},{"trial_n":22,"n_dots":3.35,"target":"right","response":"right","rt":398.5,"correct":true,"confidence":-1},{"trial_n":23,"n_dots":3.35,"target":"left","response":"left","rt":622.40000003576,"correct":true,"confidence":-1},{"trial_n":24,"n_dots":3.25,"target":"left","response":"left","rt":449.19999998808,"correct":true,"confidence":-1},{"trial_n":25,"n_dots":3.25,"target":"left","response":"left","rt":333.30000001192,"correct":true,"confidence":-1},{"trial_n":26,"n_dots":3.15,"target":"left","response":"right","rt":660.79999995232,"correct":false,"confidence":-1},{"trial_n":27,"n_dots":3.25,"target":"left","response":"left","rt":1368.8000000119,"correct":true,"confidence":4},{"trial_n":28,"n_dots":3.25,"target":"right","response":"right","rt":1140.4000000358,"correct":true,"confidence":5},{"trial_n":29,"n_dots":3.15,"target":"right","response":"left","rt":857.69999998808,"correct":false,"confidence":3},{"trial_n":30,"n_dots":3.25,"target":"left","response":"left","rt":740.89999997616,"correct":true,"confidence":4},{"trial_n":31,"n_dots":3.25,"target":"left","response":"right","rt":858.60000002384,"correct":false,"confidence":5},{"trial_n":32,"n_dots":3.35,"target":"left","response":"left","rt":1306.7999999523,"correct":true,"confidence":3},{"trial_n":33,"n_dots":3.35,"target":"right","response":"right","rt":578.69999998808,"correct":true,"confidence":4},{"trial_n":34,"n_dots":3.25,"target":"right","response":"right","rt":729.5,"correct":true,"confidence":4},{"trial_n":35,"n_dots":3.25,"target":"right","response":"right","rt":1576.5,"correct":true,"confidence":3},{"trial_n":36,"n_dots":3.15,"target":"left","response":"left","rt":1015.6000000238,"correct":true,"confidence":3},{"trial_n":37,"n_dots":3.15,"target":"left","response":"left","rt":762.59999996424,"correct":true,"confidence":3},{"trial_n":38,"n_dots":3.05,"target":"left","response":"right","rt":778.5,"correct":false,"confidence":5},{"trial_n":39,"n_dots":3.15,"target":"right","response":"right","rt":1199.1000000238,"correct":true,"confidence":5},{"trial_n":40,"n_dots":3.15,"target":"right","response":"right","rt":656.90000003576,"correct":true,"confidence":5},{"trial_n":41,"n_dots":3.05,"target":"right","response":"right","rt":770.80000001192,"correct":true,"confidence":1},{"trial_n":42,"n_dots":3.05,"target":"right","response":"left","rt":731,"correct":false,"confidence":5},{"trial_n":43,"n_dots":3.15,"target":"left","response":"left","rt":537.60000002384,"correct":true,"confidence":5},{"trial_n":44,"n_dots":3.15,"target":"right","response":"right","rt":1975.8000000119,"correct":true,"confidence":4},{"trial_n":45,"n_dots":3.05,"target":"left","response":"left","rt":551.89999997616,"correct":true,"confidence":4},{"trial_n":46,"n_dots":3.05,"target":"left","response":"left","rt":601.69999998808,"correct":true,"confidence":4},{"trial_n":47,"n_dots":2.95,"target":"right","response":"left","rt":722.89999997616,"correct":false,"confidence":4},{"trial_n":48,"n_dots":3.05,"target":"right","response":"right","rt":1000.0999999642,"correct":true,"confidence":1},{"trial_n":49,"n_dots":3.05,"target":"right","response":"right","rt":1077.0999999642,"correct":true,"confidence":2},{"trial_n":50,"n_dots":2.95,"target":"left","response":"left","rt":377.79999995232,"correct":true,"confidence":5},{"trial_n":51,"n_dots":2.95,"target":"right","response":"right","rt":477,"correct":true,"confidence":4},{"trial_n":52,"n_dots":2.85,"target":"right","response":"right","rt":1021.5,"correct":true,"confidence":4},{"trial_n":53,"n_dots":2.85,"target":"right","response":"left","rt":866,"correct":false,"confidence":3},{"trial_n":54,"n_dots":2.95,"target":"left","response":"left","rt":684,"correct":true,"confidence":4},{"trial_n":55,"n_dots":2.95,"target":"left","response":"right","rt":746.5,"correct":false,"confidence":4},{"trial_n":56,"n_dots":3.05,"target":"left","response":"left","rt":564.80000001192,"correct":true,"confidence":4},{"trial_n":57,"n_dots":3.05,"target":"left","response":"right","rt":750.90000003576,"correct":false,"confidence":3},{"trial_n":58,"n_dots":3.15,"target":"left","response":"left","rt":559.19999998808,"correct":true,"confidence":4},{"trial_n":59,"n_dots":3.15,"target":"left","response":"left","rt":498.79999995232,"correct":true,"confidence":4},{"trial_n":60,"n_dots":3.05,"target":"left","response":"right","rt":695.89999997616,"correct":false,"confidence":4},{"trial_n":61,"n_dots":3.15,"target":"right","response":"left","rt":1032.1000000238,"correct":false,"confidence":4},{"trial_n":62,"n_dots":3.25,"target":"right","response":"right","rt":952.39999997616,"correct":true,"confidence":4},{"trial_n":63,"n_dots":3.25,"target":"left","response":"left","rt":2071,"correct":true,"confidence":3},{"trial_n":64,"n_dots":3.15,"target":"right","response":"right","rt":491.69999998808,"correct":true,"confidence":4},{"trial_n":65,"n_dots":3.15,"target":"right","response":"left","rt":1016.1000000238,"correct":false,"confidence":4},{"trial_n":66,"n_dots":3.25,"target":"left","response":"right","rt":736.89999997616,"correct":false,"confidence":4},{"trial_n":67,"n_dots":3.35,"target":"left","response":"left","rt":595.89999997616,"correct":true,"confidence":4},{"trial_n":68,"n_dots":3.35,"target":"right","response":"right","rt":622.89999997616,"correct":true,"confidence":4},{"trial_n":69,"n_dots":3.25,"target":"right","response":"left","rt":636.20000004768,"correct":false,"confidence":1},{"trial_n":70,"n_dots":3.35,"target":"left","response":"left","rt":680.40000003576,"correct":true,"confidence":5},{"trial_n":71,"n_dots":3.35,"target":"right","response":"right","rt":677.10000002384,"correct":true,"confidence":5},{"trial_n":72,"n_dots":3.25,"target":"left","response":"left","rt":773.90000003576,"correct":true,"confidence":5},{"trial_n":73,"n_dots":3.25,"target":"left","response":"left","rt":865.10000002384,"correct":true,"confidence":4},{"trial_n":74,"n_dots":3.15,"target":"left","response":"right","rt":761.60000002384,"correct":false,"confidence":4},{"trial_n":75,"n_dots":3.25,"target":"left","response":"left","rt":240.10000002384,"correct":true,"confidence":4},{"trial_n":76,"n_dots":3.25,"target":"left","response":"right","rt":4677.8999999762,"correct":false,"confidence":4},{"trial_n":77,"n_dots":3.35,"target":"right","response":"right","rt":726.10000002384,"correct":true,"confidence":4},{"trial_n":78,"n_dots":3.35,"target":"left","response":"left","rt":354.70000004768,"correct":true,"confidence":4},{"trial_n":79,"n_dots":3.25,"target":"left","response":"left","rt":1885.2000000477,"correct":true,"confidence":4},{"trial_n":80,"n_dots":3.25,"target":"right","response":"right","rt":553.89999997616,"correct":true,"confidence":1},{"trial_n":81,"n_dots":3.15,"target":"left","response":"right","rt":822.89999997616,"correct":false,"confidence":4},{"trial_n":82,"n_dots":3.25,"target":"right","response":"left","rt":676.39999997616,"correct":false,"confidence":4},{"trial_n":83,"n_dots":3.35,"target":"left","response":"left","rt":1360.1999999881,"correct":true,"confidence":5},{"trial_n":84,"n_dots":3.35,"target":"right","response":"right","rt":651.5,"correct":true,"confidence":5},{"trial_n":85,"n_dots":3.25,"target":"right","response":"right","rt":850.10000002384,"correct":true,"confidence":5},{"trial_n":86,"n_dots":3.25,"target":"left","response":"left","rt":543.90000003576,"correct":true,"confidence":5},{"trial_n":87,"n_dots":3.15,"target":"right","response":"right","rt":631.70000004768,"correct":true,"confidence":5},{"trial_n":88,"n_dots":3.15,"target":"right","response":"right","rt":637.40000003576,"correct":true,"confidence":4},{"trial_n":89,"n_dots":3.05,"target":"right","response":"right","rt":591.5,"correct":true,"confidence":4},{"trial_n":90,"n_dots":3.05,"target":"left","response":"left","rt":374.59999996424,"correct":true,"confidence":4},{"trial_n":91,"n_dots":2.95,"target":"left","response":"left","rt":392.19999998808,"correct":true,"confidence":5},{"trial_n":92,"n_dots":2.95,"target":"right","response":"left","rt":1090.1000000238,"correct":false,"confidence":5},{"trial_n":93,"n_dots":3.05,"target":"left","response":"right","rt":1057.4000000358,"correct":false,"confidence":5},{"trial_n":94,"n_dots":3.15,"target":"right","response":"right","rt":2707.1999999881,"correct":true,"confidence":3},{"trial_n":95,"n_dots":3.15,"target":"right","response":"left","rt":888.39999997616,"correct":false,"confidence":3},{"trial_n":96,"n_dots":3.25,"target":"left","response":"left","rt":807.5,"correct":true,"confidence":3},{"trial_n":97,"n_dots":3.25,"target":"right","response":"left","rt":675.80000001192,"correct":false,"confidence":5},{"trial_n":98,"n_dots":3.35,"target":"right","response":"left","rt":723.19999998808,"correct":false,"confidence":4},{"trial_n":99,"n_dots":3.45,"target":"right","response":"right","rt":546.30000001192,"correct":true,"confidence":4},{"trial_n":100,"n_dots":3.45,"target":"right","response":"right","rt":757,"correct":true,"confidence":4},{"trial_n":101,"n_dots":3.35,"target":"right","response":"right","rt":410.40000003576,"correct":true,"confidence":5},{"trial_n":102,"n_dots":3.35,"target":"left","response":"left","rt":478.09999996424,"correct":true,"confidence":3},{"trial_n":103,"n_dots":3.25,"target":"right","response":"right","rt":752.69999998808,"correct":true,"confidence":4},{"trial_n":104,"n_dots":3.25,"target":"right","response":"left","rt":622.30000001192,"correct":false,"confidence":4},{"trial_n":105,"n_dots":3.35,"target":"right","response":"right","rt":611.40000003576,"correct":true,"confidence":4},{"trial_n":106,"n_dots":3.35,"target":"left","response":"right","rt":680.30000001192,"correct":false,"confidence":4},{"trial_n":107,"n_dots":3.45,"target":"right","response":"right","rt":639.5,"correct":true,"confidence":4},{"trial_n":108,"n_dots":3.45,"target":"left","response":"left","rt":424.60000002384,"correct":true,"confidence":4},{"trial_n":109,"n_dots":3.35,"target":"left","response":"left","rt":468.19999998808,"correct":true,"confidence":4},{"trial_n":110,"n_dots":3.35,"target":"left","response":"left","rt":535.69999998808,"correct":true,"confidence":4},{"trial_n":111,"n_dots":3.25,"target":"right","response":"right","rt":926.39999997616,"correct":true,"confidence":4},{"trial_n":112,"n_dots":3.25,"target":"left","response":"left","rt":812.19999998808,"correct":true,"confidence":4},{"trial_n":113,"n_dots":3.15,"target":"left","response":"left","rt":394,"correct":true,"confidence":4},{"trial_n":114,"n_dots":3.15,"target":"right","response":"left","rt":626,"correct":false,"confidence":4},{"trial_n":115,"n_dots":3.25,"target":"left","response":"left","rt":347.39999997616,"correct":true,"confidence":4},{"trial_n":116,"n_dots":3.25,"target":"right","response":"right","rt":1090.6999999881,"correct":true,"confidence":4},{"trial_n":117,"n_dots":3.15,"target":"right","response":"right","rt":522.69999998808,"correct":true,"confidence":4},{"trial_n":118,"n_dots":3.15,"target":"left","response":"right","rt":2408.4000000358,"correct":false,"confidence":4},{"trial_n":119,"n_dots":3.25,"target":"left","response":"right","rt":707.10000002384,"correct":false,"confidence":3},{"trial_n":120,"n_dots":3.35,"target":"right","response":"right","rt":534.19999998808,"correct":true,"confidence":4},{"trial_n":121,"n_dots":3.35,"target":"left","response":"right","rt":786.69999998808,"correct":false,"confidence":4},{"trial_n":122,"n_dots":3.45,"target":"left","response":"left","rt":665.10000002384,"correct":true,"confidence":3},{"trial_n":123,"n_dots":3.45,"target":"right","response":"right","rt":1633.1999999881,"correct":true,"confidence":5},{"trial_n":124,"n_dots":3.35,"target":"right","response":"right","rt":753,"correct":true,"confidence":5},{"trial_n":125,"n_dots":3.35,"target":"right","response":"right","rt":685.10000002384,"correct":true,"confidence":5},{"trial_n":126,"n_dots":3.25,"target":"left","response":"left","rt":400.19999998808,"correct":true,"confidence":5},{"trial_n":127,"n_dots":3.25,"target":"left","response":"left","rt":772,"correct":true,"confidence":5},{"trial_n":128,"n_dots":3.15,"target":"left","response":"left","rt":1156,"correct":true,"confidence":5},{"trial_n":129,"n_dots":3.15,"target":"left","response":"left","rt":822.19999998808,"correct":true,"confidence":3},{"trial_n":130,"n_dots":3.05,"target":"right","response":"right","rt":197.5,"correct":true,"confidence":4},{"trial_n":131,"n_dots":3.05,"target":"right","response":"right","rt":483.59999996424,"correct":true,"confidence":5},{"trial_n":132,"n_dots":2.95,"target":"left","response":"left","rt":469.90000003576,"correct":true,"confidence":5},{"trial_n":133,"n_dots":2.95,"target":"right","response":"right","rt":508.39999997616,"correct":true,"confidence":4},{"trial_n":134,"n_dots":2.85,"target":"left","response":"right","rt":684.5,"correct":false,"confidence":4},{"trial_n":135,"n_dots":2.95,"target":"left","response":"left","rt":580.39999997616,"correct":true,"confidence":4},{"trial_n":136,"n_dots":2.95,"target":"right","response":"right","rt":1038.8999999762,"correct":true,"confidence":4},{"trial_n":137,"n_dots":2.85,"target":"right","response":"right","rt":2097.3000000119,"correct":true,"confidence":5},{"trial_n":138,"n_dots":2.85,"target":"right","response":"right","rt":924.09999996424,"correct":true,"confidence":5},{"trial_n":139,"n_dots":2.75,"target":"left","response":"left","rt":690,"correct":true,"confidence":1},{"trial_n":140,"n_dots":2.75,"target":"left","response":"right","rt":786.69999998808,"correct":false,"confidence":5},{"trial_n":141,"n_dots":2.85,"target":"left","response":"right","rt":994.5,"correct":false,"confidence":5},{"trial_n":142,"n_dots":2.95,"target":"right","response":"right","rt":651.30000001192,"correct":true,"confidence":4},{"trial_n":143,"n_dots":2.95,"target":"right","response":"right","rt":619.39999997616,"correct":true,"confidence":4},{"trial_n":144,"n_dots":2.85,"target":"right","response":"right","rt":539,"correct":true,"confidence":4},{"trial_n":145,"n_dots":2.85,"target":"left","response":"right","rt":3009.5,"correct":false,"confidence":3},{"trial_n":146,"n_dots":2.95,"target":"left","response":"right","rt":585.30000001192,"correct":false,"confidence":4},{"trial_n":147,"n_dots":3.05,"target":"right","response":"right","rt":684.5,"correct":true,"confidence":4},{"trial_n":148,"n_dots":3.05,"target":"left","response":"right","rt":783.29999995232,"correct":false,"confidence":4},{"trial_n":149,"n_dots":3.15,"target":"right","response":"right","rt":605.90000003576,"correct":true,"confidence":4},{"trial_n":150,"n_dots":3.15,"target":"right","response":"right","rt":837,"correct":true,"confidence":4},{"trial_n":151,"n_dots":3.05,"target":"left","response":"right","rt":1333.3000000119,"correct":false,"confidence":1},{"trial_n":152,"n_dots":3.15,"target":"right","response":"right","rt":504.19999998808,"correct":true,"confidence":2},{"trial_n":153,"n_dots":3.15,"target":"left","response":"left","rt":423.89999997616,"correct":true,"confidence":4},{"trial_n":154,"n_dots":3.05,"target":"right","response":"left","rt":565.69999998808,"correct":false,"confidence":4},{"trial_n":155,"n_dots":3.15,"target":"right","response":"left","rt":1098.5,"correct":false,"confidence":5},{"trial_n":156,"n_dots":3.25,"target":"right","response":"right","rt":803.69999998808,"correct":true,"confidence":4},{"trial_n":157,"n_dots":3.25,"target":"right","response":"right","rt":475.69999998808,"correct":true,"confidence":4},{"trial_n":158,"n_dots":3.15,"target":"left","response":"right","rt":871.39999997616,"correct":false,"confidence":4},{"trial_n":159,"n_dots":3.25,"target":"right","response":"right","rt":968.40000003576,"correct":true,"confidence":3},{"trial_n":160,"n_dots":3.25,"target":"left","response":"left","rt":825.5,"correct":true,"confidence":4},{"trial_n":161,"n_dots":3.15,"target":"left","response":"right","rt":693.80000001192,"correct":false,"confidence":3},{"trial_n":162,"n_dots":3.25,"target":"left","response":"right","rt":973.19999998808,"correct":false,"confidence":4},{"trial_n":163,"n_dots":3.35,"target":"right","response":"right","rt":459.5,"correct":true,"confidence":4},{"trial_n":164,"n_dots":3.35,"target":"left","response":"left","rt":784.30000001192,"correct":true,"confidence":4},{"trial_n":165,"n_dots":3.25,"target":"right","response":"right","rt":978.89999997616,"correct":true,"confidence":4},{"trial_n":166,"n_dots":3.25,"target":"left","response":"right","rt":1505.5,"correct":false,"confidence":4},{"trial_n":167,"n_dots":3.35,"target":"left","response":"left","rt":721,"correct":true,"confidence":4},{"trial_n":168,"n_dots":3.35,"target":"left","response":"left","rt":3432.6000000238,"correct":true,"confidence":4},{"trial_n":169,"n_dots":3.25,"target":"left","response":"left","rt":1349.1999999881,"correct":true,"confidence":4},{"trial_n":170,"n_dots":3.25,"target":"left","response":"left","rt":705.19999998808,"correct":true,"confidence":4},{"trial_n":171,"n_dots":3.15,"target":"right","response":"right","rt":651.60000002384,"correct":true,"confidence":4},{"trial_n":172,"n_dots":3.15,"target":"right","response":"right","rt":711.5,"correct":true,"confidence":4},{"trial_n":173,"n_dots":3.05,"target":"left","response":"right","rt":721.30000001192,"correct":false,"confidence":4},{"trial_n":174,"n_dots":3.15,"target":"left","response":"left","rt":874.69999998808,"correct":true,"confidence":4},{"trial_n":175,"n_dots":3.15,"target":"left","response":"right","rt":3495.5,"correct":false,"confidence":5},{"trial_n":176,"n_dots":3.25,"target":"right","response":"right","rt":841.79999995232,"correct":true,"confidence":4},{"trial_n":177,"n_dots":3.25,"target":"right","response":"right","rt":785.89999997616,"correct":true,"confidence":4},{"trial_n":178,"n_dots":3.15,"target":"left","response":"right","rt":878.69999998808,"correct":false,"confidence":4},{"trial_n":179,"n_dots":3.25,"target":"right","response":"right","rt":665.90000003576,"correct":true,"confidence":4},{"trial_n":180,"n_dots":3.25,"target":"right","response":"right","rt":2021.8000000119,"correct":true,"confidence":4},{"trial_n":181,"n_dots":3.15,"target":"left","response":"right","rt":6605.6000000238,"correct":false,"confidence":4},{"trial_n":182,"n_dots":3.25,"target":"right","response":"right","rt":540.30000001192,"correct":true,"confidence":4},{"trial_n":183,"n_dots":3.25,"target":"right","response":"right","rt":632,"correct":true,"confidence":5},{"trial_n":184,"n_dots":3.15,"target":"right","response":"left","rt":695.39999997616,"correct":false,"confidence":4},{"trial_n":185,"n_dots":3.25,"target":"left","response":"left","rt":2525.1999999881,"correct":true,"confidence":4},{"trial_n":186,"n_dots":3.25,"target":"right","response":"right","rt":689.30000001192,"correct":true,"confidence":4},{"trial_n":187,"n_dots":3.15,"target":"left","response":"left","rt":590.10000002384,"correct":true,"confidence":5},{"trial_n":188,"n_dots":3.15,"target":"right","response":"right","rt":595.90000003576,"correct":true,"confidence":4},{"trial_n":189,"n_dots":3.05,"target":"left","response":"right","rt":5256,"correct":false,"confidence":4},{"trial_n":190,"n_dots":3.15,"target":"left","response":"left","rt":563.19999998808,"correct":true,"confidence":4},{"trial_n":191,"n_dots":3.15,"target":"right","response":"right","rt":1041.8000000119,"correct":true,"confidence":4},{"trial_n":192,"n_dots":3.05,"target":"right","response":"left","rt":578.89999997616,"correct":false,"confidence":4},{"trial_n":193,"n_dots":3.15,"target":"right","response":"right","rt":889.60000002384,"correct":true,"confidence":4},{"trial_n":194,"n_dots":3.15,"target":"left","response":"right","rt":2021.5,"correct":false,"confidence":4}]