[{"trial_n":1,"n_dots":4.25,"target":"right","response":"right","rt":6563,"correct":true,"confidence":-1},{"trial_n":2,"n_dots":4.25,"target":"left","response":"left","rt":314,"correct":true,"confidence":-1},{"trial_n":3,"n_dots":3.85,"target":"left","response":"left","rt":523,"correct":true,"confidence":-1},{"trial_n":4,"n_dots":3.85,"target":"left","response":"left","rt":959,"correct":true,"confidence":-1},{"trial_n":5,"n_dots":3.45,"target":"left","response":"left","rt":418,"correct":true,"confidence":-1},{"trial_n":6,"n_dots":3.45,"target":"right","response":"right","rt":644,"correct":true,"confidence":-1},{"trial_n":7,"n_dots":3.05,"target":"right","response":"left","rt":345,"correct":false,"confidence":-1},{"trial_n":8,"n_dots":3.25,"target":"left","response":"left","rt":606,"correct":true,"confidence":-1},{"trial_n":9,"n_dots":3.25,"target":"left","response":"left","rt":340,"correct":true,"confidence":-1},{"trial_n":10,"n_dots":3.05,"target":"left","response":"right","rt":500,"correct":false,"confidence":-1},{"trial_n":11,"n_dots":3.25,"target":"left","response":"right","rt":549,"correct":false,"confidence":-1},{"trial_n":12,"n_dots":3.45,"target":"left","response":"left","rt":25,"correct":true,"confidence":-1},{"trial_n":13,"n_dots":3.45,"target":"right","response":"left","rt":570,"correct":false,"confidence":-1},{"trial_n":14,"n_dots":3.55,"target":"right","response":"right","rt":568.00000000003,"correct":true,"confidence":-1},{"trial_n":15,"n_dots":3.55,"target":"right","response":"left","rt":417,"correct":false,"confidence":-1},{"trial_n":16,"n_dots":3.65,"target":"left","response":"left","rt":3548,"correct":true,"confidence":-1},{"trial_n":17,"n_dots":3.65,"target":"left","response":"left","rt":479,"correct":true,"confidence":-1},{"trial_n":18,"n_dots":3.55,"target":"right","response":"left","rt":323.99999999997,"correct":false,"confidence":-1},{"trial_n":19,"n_dots":3.65,"target":"left","response":"left","rt":846,"correct":true,"confidence":-1},{"trial_n":20,"n_dots":3.65,"target":"right","response":"right","rt":240,"correct":true,"confidence":-1},{"trial_n":21,"n_dots":3.55,"target":"left","response":"left","rt":308,"correct":true,"confidence":-1},{"trial_n":22,"n_dots":3.55,"target":"left","response":"left","rt":440,"correct":true,"confidence":-1},{"trial_n":23,"n_dots":3.45,"target":"left","response":"left","rt":199,"correct":true,"confidence":-1},{"trial_n":24,"n_dots":3.45,"target":"left","response":"left","rt":394.99999999997,"correct":true,"confidence":-1},{"trial_n":25,"n_dots":3.35,"target":"right","response":"right","rt":204,"correct":true,"confidence":-1},{"trial_n":26,"n_dots":3.35,"target":"left","response":"left","rt":274,"correct":true,"confidence":-1},{"trial_n":27,"n_dots":3.25,"target":"left","response":"left","rt":275,"correct":true,"confidence":3},{"trial_n":28,"n_dots":3.25,"target":"right","response":"right","rt":413,"correct":true,"confidence":4},{"trial_n":29,"n_dots":3.15,"target":"left","response":"left","rt":244,"correct":true,"confidence":4},{"trial_n":30,"n_dots":3.15,"target":"right","response":"left","rt":754,"correct":false,"confidence":3},{"trial_n":31,"n_dots":3.25,"target":"left","response":"left","rt":350,"correct":true,"confidence":4},{"trial_n":32,"n_dots":3.25,"target":"right","response":"right","rt":331,"correct":true,"confidence":4},{"trial_n":33,"n_dots":3.15,"target":"right","response":"right","rt":424.00000000006,"correct":true,"confidence":4},{"trial_n":34,"n_dots":3.15,"target":"right","response":"right","rt":1100,"correct":true,"confidence":3},{"trial_n":35,"n_dots":3.05,"target":"right","response":"right","rt":233,"correct":true,"confidence":3},{"trial_n":36,"n_dots":3.05,"target":"right","response":"right","rt":185,"correct":true,"confidence":3},{"trial_n":37,"n_dots":2.95,"target":"right","response":"left","rt":461,"correct":false,"confidence":3},{"trial_n":38,"n_dots":3.05,"target":"left","response":"left","rt":163,"correct":true,"confidence":4},{"trial_n":39,"n_dots":3.05,"target":"right","response":"left","rt":202,"correct":false,"confidence":3},{"trial_n":40,"n_dots":3.15,"target":"right","response":"left","rt":145,"correct":false,"confidence":5},{"trial_n":41,"n_dots":3.25,"target":"right","response":"left","rt":859,"correct":false,"confidence":3},{"trial_n":42,"n_dots":3.35,"target":"left","response":"right","rt":179.00000000006,"correct":false,"confidence":4},{"trial_n":43,"n_dots":3.45,"target":"right","response":"left","rt":541,"correct":false,"confidence":3},{"trial_n":44,"n_dots":3.55,"target":"right","response":"left","rt":330,"correct":false,"confidence":3},{"trial_n":45,"n_dots":3.65,"target":"right","response":"left","rt":275,"correct":false,"confidence":4},{"trial_n":46,"n_dots":3.75,"target":"right","response":"right","rt":625,"correct":true,"confidence":3},{"trial_n":47,"n_dots":3.75,"target":"right","response":"right","rt":208.99999999988,"correct":true,"confidence":4},{"trial_n":48,"n_dots":3.65,"target":"left","response":"left","rt":160,"correct":true,"confidence":4},{"trial_n":49,"n_dots":3.65,"target":"right","response":"right","rt":511.00000000012,"correct":true,"confidence":3},{"trial_n":50,"n_dots":3.55,"target":"left","response":"left","rt":327,"correct":true,"confidence":4},{"trial_n":51,"n_dots":3.55,"target":"right","response":"right","rt":483.99999999988,"correct":true,"confidence":3},{"trial_n":52,"n_dots":3.45,"target":"right","response":"left","rt":484,"correct":false,"confidence":2},{"trial_n":53,"n_dots":3.55,"target":"left","response":"right","rt":463.00000000012,"correct":false,"confidence":2},{"trial_n":54,"n_dots":3.65,"target":"right","response":"right","rt":736,"correct":true,"confidence":5},{"trial_n":55,"n_dots":3.65,"target":"right","response":"left","rt":279,"correct":false,"confidence":2},{"trial_n":56,"n_dots":3.75,"target":"right","response":"right","rt":365,"correct":true,"confidence":4},{"trial_n":57,"n_dots":3.75,"target":"left","response":"left","rt":460,"correct":true,"confidence":4},{"trial_n":58,"n_dots":3.65,"target":"left","response":"left","rt":276,"correct":true,"confidence":5},{"trial_n":59,"n_dots":3.65,"target":"left","response":"left","rt":249.00000000012,"correct":true,"confidence":4},{"trial_n":60,"n_dots":3.55,"target":"left","response":"left","rt":446,"correct":true,"confidence":4},{"trial_n":61,"n_dots":3.55,"target":"left","response":"left","rt":450.99999999988,"correct":true,"confidence":5},{"trial_n":62,"n_dots":3.45,"target":"right","response":"right","rt":173,"correct":true,"confidence":4},{"trial_n":63,"n_dots":3.45,"target":"right","response":"right","rt":455,"correct":true,"confidence":5},{"trial_n":64,"n_dots":3.35,"target":"right","response":"right","rt":567,"correct":true,"confidence":5},{"trial_n":65,"n_dots":3.35,"target":"left","response":"left","rt":310.00000000012,"correct":true,"confidence":4},{"trial_n":66,"n_dots":3.25,"target":"right","response":"right","rt":226,"correct":true,"confidence":3},{"trial_n":67,"n_dots":3.25,"target":"right","response":"left","rt":310,"correct":false,"confidence":3},{"trial_n":68,"n_dots":3.35,"target":"left","response":"left","rt":185,"correct":true,"confidence":3},{"trial_n":69,"n_dots":3.35,"target":"left","response":"left","rt":242.00000000023,"correct":true,"confidence":3},{"trial_n":70,"n_dots":3.25,"target":"right","response":"left","rt":941,"correct":false,"confidence":4},{"trial_n":71,"n_dots":3.35,"target":"left","response":"left","rt":96,"correct":true,"confidence":4},{"trial_n":72,"n_dots":3.35,"target":"right","response":"right","rt":252.99999999977,"correct":true,"confidence":3},{"trial_n":73,"n_dots":3.25,"target":"left","response":"left","rt":302,"correct":true,"confidence":4},{"trial_n":74,"n_dots":3.25,"target":"left","response":"left","rt":283.99999999977,"correct":true,"confidence":4},{"trial_n":75,"n_dots":3.15,"target":"left","response":"left","rt":289,"correct":true,"confidence":4},{"trial_n":76,"n_dots":3.15,"target":"right","response":"right","rt":488,"correct":true,"confidence":4},{"trial_n":77,"n_dots":3.05,"target":"left","response":"left","rt":270,"correct":true,"confidence":4},{"trial_n":78,"n_dots":3.05,"target":"left","response":"left","rt":415.00000000023,"correct":true,"confidence":4},{"trial_n":79,"n_dots":2.95,"target":"left","response":"left","rt":326,"correct":true,"confidence":4},{"trial_n":80,"n_dots":2.95,"target":"right","response":"left","rt":471,"correct":false,"confidence":3},{"trial_n":81,"n_dots":3.05,"target":"left","response":"left","rt":424,"correct":true,"confidence":3},{"trial_n":82,"n_dots":3.05,"target":"right","response":"right","rt":200,"correct":true,"confidence":3},{"trial_n":83,"n_dots":2.95,"target":"left","response":"right","rt":321,"correct":false,"confidence":3},{"trial_n":84,"n_dots":3.05,"target":"right","response":"left","rt":226.99999999977,"correct":false,"confidence":3},{"trial_n":85,"n_dots":3.15,"target":"left","response":"right","rt":346,"correct":false,"confidence":3},{"trial_n":86,"n_dots":3.25,"target":"right","response":"left","rt":276,"correct":false,"confidence":4},{"trial_n":87,"n_dots":3.35,"target":"right","response":"right","rt":245,"correct":true,"confidence":3},{"trial_n":88,"n_dots":3.35,"target":"right","response":"right","rt":225,"correct":true,"confidence":4},{"trial_n":89,"n_dots":3.25,"target":"right","response":"left","rt":322,"correct":false,"confidence":3},{"trial_n":90,"n_dots":3.35,"target":"left","response":"left","rt":256,"correct":true,"confidence":4},{"trial_n":91,"n_dots":3.35,"target":"right","response":"left","rt":396.99999999953,"correct":false,"confidence":3},{"trial_n":92,"n_dots":3.45,"target":"left","response":"left","rt":153,"correct":true,"confidence":5},{"trial_n":93,"n_dots":3.45,"target":"left","response":"left","rt":199,"correct":true,"confidence":5},{"trial_n":94,"n_dots":3.35,"target":"left","response":"left","rt":222,"correct":true,"confidence":5},{"trial_n":95,"n_dots":3.35,"target":"right","response":"left","rt":194,"correct":false,"confidence":3},{"trial_n":96,"n_dots":3.45,"target":"right","response":"right","rt":770,"correct":true,"confidence":4},{"trial_n":97,"n_dots":3.45,"target":"right","response":"right","rt":252,"correct":true,"confidence":5},{"trial_n":98,"n_dots":3.35,"target":"right","response":"right","rt":217.00000000047,"correct":true,"confidence":5},{"trial_n":99,"n_dots":3.35,"target":"right","response":"right","rt":197.00000000047,"correct":true,"confidence":5},{"trial_n":100,"n_dots":3.25,"target":"left","response":"left","rt":210,"correct":true,"confidence":4},{"trial_n":101,"n_dots":3.25,"target":"left","response":"left","rt":473,"correct":true,"confidence":5},{"trial_n":102,"n_dots":3.15,"target":"right","response":"right","rt":408.00000000047,"correct":true,"confidence":5},{"trial_n":103,"n_dots":3.15,"target":"right","response":"left","rt":190,"correct":false,"confidence":5},{"trial_n":104,"n_dots":3.25,"target":"right","response":"right","rt":268,"correct":true,"confidence":4},{"trial_n":105,"n_dots":3.25,"target":"left","response":"left","rt":-29,"correct":true,"confidence":4},{"trial_n":106,"n_dots":3.15,"target":"right","response":"left","rt":150,"correct":false,"confidence":5},{"trial_n":107,"n_dots":3.25,"target":"right","response":"left","rt":130,"correct":false,"confidence":4},{"trial_n":108,"n_dots":3.35,"target":"left","response":"left","rt":61,"correct":true,"confidence":4},{"trial_n":109,"n_dots":3.35,"target":"left","response":"left","rt":28.000000000466,"correct":true,"confidence":5},{"trial_n":110,"n_dots":3.25,"target":"right","response":"left","rt":201,"correct":false,"confidence":5},{"trial_n":111,"n_dots":3.35,"target":"right","response":"left","rt":41222,"correct":false,"confidence":2},{"trial_n":112,"n_dots":3.45,"target":"left","response":"left","rt":336,"correct":true,"confidence":1},{"trial_n":113,"n_dots":3.45,"target":"left","response":"left","rt":899,"correct":true,"confidence":4},{"trial_n":114,"n_dots":3.35,"target":"left","response":"left","rt":931,"correct":true,"confidence":3},{"trial_n":115,"n_dots":3.35,"target":"left","response":"left","rt":397,"correct":true,"confidence":3},{"trial_n":116,"n_dots":3.25,"target":"right","response":"left","rt":465,"correct":false,"confidence":3},{"trial_n":117,"n_dots":3.35,"target":"right","response":"right","rt":387,"correct":true,"confidence":3},{"trial_n":118,"n_dots":3.35,"target":"left","response":"left","rt":303,"correct":true,"confidence":4},{"trial_n":119,"n_dots":3.25,"target":"left","response":"left","rt":100.00000000047,"correct":true,"confidence":4},{"trial_n":120,"n_dots":3.25,"target":"left","response":"left","rt":327,"correct":true,"confidence":4},{"trial_n":121,"n_dots":3.15,"target":"left","response":"right","rt":324.99999999953,"correct":false,"confidence":4},{"trial_n":122,"n_dots":3.25,"target":"right","response":"right","rt":528,"correct":true,"confidence":4},{"trial_n":123,"n_dots":3.25,"target":"left","response":"left","rt":137,"correct":true,"confidence":4},{"trial_n":124,"n_dots":3.15,"target":"right","response":"left","rt":486.00000000047,"correct":false,"confidence":4},{"trial_n":125,"n_dots":3.25,"target":"right","response":"right","rt":385.00000000047,"correct":true,"confidence":4},{"trial_n":126,"n_dots":3.25,"target":"left","response":"left","rt":140.99999999953,"correct":true,"confidence":4},{"trial_n":127,"n_dots":3.15,"target":"right","response":"left","rt":391,"correct":false,"confidence":3},{"trial_n":128,"n_dots":3.25,"target":"right","response":"right","rt":342,"correct":true,"confidence":3},{"trial_n":129,"n_dots":3.25,"target":"left","response":"left","rt":357,"correct":true,"confidence":4},{"trial_n":130,"n_dots":3.15,"target":"left","response":"left","rt":469.00000000047,"correct":true,"confidence":3},{"trial_n":131,"n_dots":3.15,"target":"left","response":"left","rt":153.00000000047,"correct":true,"confidence":4},{"trial_n":132,"n_dots":3.05,"target":"right","response":"right","rt":437,"correct":true,"confidence":4},{"trial_n":133,"n_dots":3.05,"target":"left","response":"left","rt":384,"correct":true,"confidence":3},{"trial_n":134,"n_dots":2.95,"target":"left","response":"left","rt":305,"correct":true,"confidence":4},{"trial_n":135,"n_dots":2.95,"target":"left","response":"left","rt":143,"correct":true,"confidence":4},{"trial_n":136,"n_dots":2.85,"target":"right","response":"left","rt":222,"correct":false,"confidence":4},{"trial_n":137,"n_dots":2.95,"target":"right","response":"right","rt":133.00000000047,"correct":true,"confidence":4},{"trial_n":138,"n_dots":2.95,"target":"left","response":"right","rt":632,"correct":false,"confidence":3},{"trial_n":139,"n_dots":3.05,"target":"right","response":"left","rt":345.00000000047,"correct":false,"confidence":3},{"trial_n":140,"n_dots":3.15,"target":"left","response":"right","rt":179.00000000047,"correct":false,"confidence":4},{"trial_n":141,"n_dots":3.25,"target":"right","response":"left","rt":283,"correct":false,"confidence":3},{"trial_n":142,"n_dots":3.35,"target":"right","response":"left","rt":899.99999999953,"correct":false,"confidence":3},{"trial_n":143,"n_dots":3.45,"target":"left","response":"left","rt":98.999999999534,"correct":true,"confidence":4},{"trial_n":144,"n_dots":3.45,"target":"left","response":"left","rt":78,"correct":true,"confidence":4},{"trial_n":145,"n_dots":3.35,"target":"right","response":"right","rt":261,"correct":true,"confidence":4},{"trial_n":146,"n_dots":3.35,"target":"left","response":"left","rt":104,"correct":true,"confidence":3},{"trial_n":147,"n_dots":3.25,"target":"right","response":"right","rt":709,"correct":true,"confidence":3},{"trial_n":148,"n_dots":3.25,"target":"left","response":"left","rt":357.99999999953,"correct":true,"confidence":3},{"trial_n":149,"n_dots":3.15,"target":"left","response":"left","rt":42,"correct":true,"confidence":4},{"trial_n":150,"n_dots":3.15,"target":"right","response":"right","rt":235,"correct":true,"confidence":5},{"trial_n":151,"n_dots":3.05,"target":"right","response":"left","rt":227.99999999953,"correct":false,"confidence":3},{"trial_n":152,"n_dots":3.15,"target":"right","response":"right","rt":19,"correct":true,"confidence":4},{"trial_n":153,"n_dots":3.15,"target":"left","response":"left","rt":272,"correct":true,"confidence":3},{"trial_n":154,"n_dots":3.05,"target":"left","response":"left","rt":87,"correct":true,"confidence":3},{"trial_n":155,"n_dots":3.05,"target":"right","response":"right","rt":1572.0000000005,"correct":true,"confidence":4},{"trial_n":156,"n_dots":2.95,"target":"right","response":"right","rt":293,"correct":true,"confidence":4},{"trial_n":157,"n_dots":2.95,"target":"left","response":"left","rt":1345,"correct":true,"confidence":3},{"trial_n":158,"n_dots":2.85,"target":"right","response":"left","rt":15,"correct":false,"confidence":4},{"trial_n":159,"n_dots":2.95,"target":"left","response":"left","rt":263,"correct":true,"confidence":3},{"trial_n":160,"n_dots":2.95,"target":"left","response":"right","rt":133,"correct":false,"confidence":4},{"trial_n":161,"n_dots":3.05,"target":"right","response":"right","rt":297.00000000047,"correct":true,"confidence":4},{"trial_n":162,"n_dots":3.05,"target":"right","response":"right","rt":972,"correct":true,"confidence":4},{"trial_n":163,"n_dots":2.95,"target":"left","response":"left","rt":60,"correct":true,"confidence":4},{"trial_n":164,"n_dots":2.95,"target":"right","response":"right","rt":919,"correct":true,"confidence":4},{"trial_n":165,"n_dots":2.85,"target":"right","response":"right","rt":383.00000000047,"correct":true,"confidence":3},{"trial_n":166,"n_dots":2.85,"target":"left","response":"right","rt":91.999999999534,"correct":false,"confidence":3},{"trial_n":167,"n_dots":2.95,"target":"right","response":"left","rt":140.00000000047,"correct":false,"confidence":3},{"trial_n":168,"n_dots":3.05,"target":"right","response":"right","rt":275.99999999953,"correct":true,"confidence":3},{"trial_n":169,"n_dots":3.05,"target":"right","response":"right","rt":554.99999999953,"correct":true,"confidence":3},{"trial_n":170,"n_dots":2.95,"target":"left","response":"left","rt":1018,"correct":true,"confidence":4},{"trial_n":171,"n_dots":2.95,"target":"right","response":"right","rt":244,"correct":true,"confidence":4},{"trial_n":172,"n_dots":2.85,"target":"right","response":"right","rt":261,"correct":true,"confidence":3},{"trial_n":173,"n_dots":2.85,"target":"left","response":"right","rt":26,"correct":false,"confidence":4},{"trial_n":174,"n_dots":2.95,"target":"left","response":"left","rt":108,"correct":true,"confidence":4},{"trial_n":175,"n_dots":2.95,"target":"left","response":"left","rt":951,"correct":true,"confidence":5},{"trial_n":176,"n_dots":2.85,"target":"right","response":"left","rt":280,"correct":false,"confidence":3},{"trial_n":177,"n_dots":2.95,"target":"left","response":"left","rt":110,"correct":true,"confidence":5},{"trial_n":178,"n_dots":2.95,"target":"left","response":"right","rt":131,"correct":false,"confidence":4},{"trial_n":179,"n_dots":3.05,"target":"right","response":"right","rt":939,"correct":true,"confidence":4},{"trial_n":180,"n_dots":3.05,"target":"left","response":"left","rt":90,"correct":true,"confidence":4},{"trial_n":181,"n_dots":2.95,"target":"left","response":"left","rt":249,"correct":true,"confidence":4},{"trial_n":182,"n_dots":2.95,"target":"right","response":"right","rt":141,"correct":true,"confidence":4},{"trial_n":183,"n_dots":2.85,"target":"right","response":"right","rt":156,"correct":true,"confidence":4},{"trial_n":184,"n_dots":2.85,"target":"right","response":"left","rt":178,"correct":false,"confidence":4},{"trial_n":185,"n_dots":2.95,"target":"right","response":"right","rt":323,"correct":true,"confidence":4},{"trial_n":186,"n_dots":2.95,"target":"left","response":"right","rt":146,"correct":false,"confidence":3},{"trial_n":187,"n_dots":3.05,"target":"left","response":"left","rt":947,"correct":true,"confidence":4},{"trial_n":188,"n_dots":3.05,"target":"left","response":"left","rt":130,"correct":true,"confidence":4},{"trial_n":189,"n_dots":2.95,"target":"right","response":"right","rt":503,"correct":true,"confidence":3},{"trial_n":190,"n_dots":2.95,"target":"left","response":"left","rt":96,"correct":true,"confidence":4},{"trial_n":191,"n_dots":2.85,"target":"left","response":"left","rt":185,"correct":true,"confidence":4},{"trial_n":192,"n_dots":2.85,"target":"left","response":"left","rt":34.999999999534,"correct":true,"confidence":5},{"trial_n":193,"n_dots":2.75,"target":"left","response":"left","rt":332,"correct":true,"confidence":4},{"trial_n":194,"n_dots":2.75,"target":"right","response":"right","rt":919.99999999953,"correct":true,"confidence":4}]