[{"trial_n":1,"n_dots":4.25,"target":"right","response":"right","rt":2727.1999999993,"correct":true,"confidence":-1},{"trial_n":2,"n_dots":4.25,"target":"left","response":"left","rt":1890.5999999978,"correct":true,"confidence":-1},{"trial_n":3,"n_dots":3.85,"target":"right","response":"left","rt":1192.3000000007,"correct":false,"confidence":-1},{"trial_n":4,"n_dots":4.25,"target":"left","response":"left","rt":1111.6999999993,"correct":true,"confidence":-1},{"trial_n":5,"n_dots":4.25,"target":"right","response":"right","rt":854.60000000149,"correct":true,"confidence":-1},{"trial_n":6,"n_dots":3.85,"target":"left","response":"left","rt":906.30000000075,"correct":true,"confidence":-1},{"trial_n":7,"n_dots":3.85,"target":"right","response":"right","rt":736.89999999851,"correct":true,"confidence":-1},{"trial_n":8,"n_dots":3.65,"target":"left","response":"left","rt":676.5,"correct":true,"confidence":-1},{"trial_n":9,"n_dots":3.65,"target":"left","response":"left","rt":577.39999999851,"correct":true,"confidence":-1},{"trial_n":10,"n_dots":3.45,"target":"left","response":"left","rt":967.59999999776,"correct":true,"confidence":-1},{"trial_n":11,"n_dots":3.45,"target":"left","response":"left","rt":797.40000000224,"correct":true,"confidence":-1},{"trial_n":12,"n_dots":3.25,"target":"right","response":"left","rt":486.5,"correct":false,"confidence":-1},{"trial_n":13,"n_dots":3.35,"target":"left","response":"left","rt":1113.8000000007,"correct":true,"confidence":-1},{"trial_n":14,"n_dots":3.35,"target":"left","response":"left","rt":1128.8000000007,"correct":true,"confidence":-1},{"trial_n":15,"n_dots":3.25,"target":"left","response":"left","rt":568.30000000075,"correct":true,"confidence":-1},{"trial_n":16,"n_dots":3.25,"target":"right","response":"left","rt":459.29999999702,"correct":false,"confidence":-1},{"trial_n":17,"n_dots":3.35,"target":"right","response":"left","rt":387.60000000149,"correct":false,"confidence":-1},{"trial_n":18,"n_dots":3.45,"target":"right","response":"right","rt":909,"correct":true,"confidence":-1},{"trial_n":19,"n_dots":3.45,"target":"left","response":"left","rt":716,"correct":true,"confidence":-1},{"trial_n":20,"n_dots":3.35,"target":"left","response":"left","rt":524,"correct":true,"confidence":-1},{"trial_n":21,"n_dots":3.35,"target":"left","response":"left","rt":362.19999999925,"correct":true,"confidence":-1},{"trial_n":22,"n_dots":3.25,"target":"left","response":"left","rt":404.09999999776,"correct":true,"confidence":-1},{"trial_n":23,"n_dots":3.25,"target":"left","response":"left","rt":369.5,"correct":true,"confidence":-1},{"trial_n":24,"n_dots":3.15,"target":"left","response":"left","rt":308,"correct":true,"confidence":-1},{"trial_n":25,"n_dots":3.15,"target":"right","response":"left","rt":343.60000000149,"correct":false,"confidence":-1},{"trial_n":26,"n_dots":3.25,"target":"right","response":"left","rt":355.09999999776,"correct":false,"confidence":-1},{"trial_n":27,"n_dots":3.35,"target":"left","response":"left","rt":724.09999999776,"correct":true,"confidence":1},{"trial_n":28,"n_dots":3.35,"target":"left","response":"left","rt":1200,"correct":true,"confidence":1},{"trial_n":29,"n_dots":3.25,"target":"left","response":"left","rt":800.5,"correct":true,"confidence":3},{"trial_n":30,"n_dots":3.25,"target":"left","response":"left","rt":947.90000000224,"correct":true,"confidence":6},{"trial_n":31,"n_dots":3.15,"target":"right","response":"right","rt":984.90000000224,"correct":true,"confidence":1},{"trial_n":32,"n_dots":3.15,"target":"left","response":"left","rt":3131.6999999993,"correct":true,"confidence":2},{"trial_n":33,"n_dots":3.05,"target":"right","response":"right","rt":1578.700000003,"correct":true,"confidence":4},{"trial_n":34,"n_dots":3.05,"target":"right","response":"left","rt":1849,"correct":false,"confidence":3},{"trial_n":35,"n_dots":3.15,"target":"left","response":"left","rt":784.10000000149,"correct":true,"confidence":6},{"trial_n":36,"n_dots":3.15,"target":"right","response":"right","rt":1149.8999999985,"correct":true,"confidence":6},{"trial_n":37,"n_dots":3.05,"target":"left","response":"left","rt":764.80000000075,"correct":true,"confidence":6},{"trial_n":38,"n_dots":3.05,"target":"right","response":"right","rt":1788.5,"correct":true,"confidence":4},{"trial_n":39,"n_dots":2.95,"target":"left","response":"left","rt":640.89999999851,"correct":true,"confidence":5},{"trial_n":40,"n_dots":2.95,"target":"left","response":"left","rt":996.39999999851,"correct":true,"confidence":3},{"trial_n":41,"n_dots":2.85,"target":"right","response":"right","rt":1154.6999999993,"correct":true,"confidence":3},{"trial_n":42,"n_dots":2.85,"target":"right","response":"right","rt":1030.5,"correct":true,"confidence":2},{"trial_n":43,"n_dots":2.75,"target":"right","response":"left","rt":1559.799999997,"correct":false,"confidence":4},{"trial_n":44,"n_dots":2.85,"target":"right","response":"left","rt":1091,"correct":false,"confidence":2},{"trial_n":45,"n_dots":2.95,"target":"right","response":"right","rt":1438.5,"correct":true,"confidence":4},{"trial_n":46,"n_dots":2.95,"target":"left","response":"left","rt":556.09999999776,"correct":true,"confidence":3},{"trial_n":47,"n_dots":2.85,"target":"left","response":"left","rt":451.30000000075,"correct":true,"confidence":6},{"trial_n":48,"n_dots":2.85,"target":"right","response":"left","rt":5314.1000000015,"correct":false,"confidence":1},{"trial_n":49,"n_dots":2.95,"target":"right","response":"right","rt":1224.5999999978,"correct":true,"confidence":3},{"trial_n":50,"n_dots":2.95,"target":"left","response":"left","rt":923.29999999702,"correct":true,"confidence":4},{"trial_n":51,"n_dots":2.85,"target":"left","response":"left","rt":802.19999999925,"correct":true,"confidence":3},{"trial_n":52,"n_dots":2.85,"target":"left","response":"left","rt":689.90000000224,"correct":true,"confidence":4},{"trial_n":53,"n_dots":2.75,"target":"right","response":"left","rt":687.5,"correct":false,"confidence":3},{"trial_n":54,"n_dots":2.85,"target":"right","response":"left","rt":836.19999999925,"correct":false,"confidence":3},{"trial_n":55,"n_dots":2.95,"target":"left","response":"left","rt":707.20000000298,"correct":true,"confidence":5},{"trial_n":56,"n_dots":2.95,"target":"left","response":"left","rt":762.5,"correct":true,"confidence":4},{"trial_n":57,"n_dots":2.85,"target":"left","response":"left","rt":711,"correct":true,"confidence":4},{"trial_n":58,"n_dots":2.85,"target":"right","response":"left","rt":854.80000000075,"correct":false,"confidence":4},{"trial_n":59,"n_dots":2.95,"target":"left","response":"left","rt":581.79999999702,"correct":true,"confidence":6},{"trial_n":60,"n_dots":2.95,"target":"left","response":"right","rt":1570.8000000007,"correct":false,"confidence":2},{"trial_n":61,"n_dots":3.05,"target":"right","response":"left","rt":583,"correct":false,"confidence":3},{"trial_n":62,"n_dots":3.15,"target":"right","response":"left","rt":2069,"correct":false,"confidence":1},{"trial_n":63,"n_dots":3.25,"target":"right","response":"right","rt":1895.3000000007,"correct":true,"confidence":6},{"trial_n":64,"n_dots":3.25,"target":"left","response":"left","rt":782.30000000075,"correct":true,"confidence":4},{"trial_n":65,"n_dots":3.15,"target":"right","response":"right","rt":1549.5,"correct":true,"confidence":4},{"trial_n":66,"n_dots":3.15,"target":"left","response":"left","rt":458.39999999851,"correct":true,"confidence":5},{"trial_n":67,"n_dots":3.05,"target":"left","response":"left","rt":946.89999999851,"correct":true,"confidence":5},{"trial_n":68,"n_dots":3.05,"target":"right","response":"right","rt":1110.5999999978,"correct":true,"confidence":6},{"trial_n":69,"n_dots":2.95,"target":"left","response":"left","rt":2065.3999999985,"correct":true,"confidence":3},{"trial_n":70,"n_dots":2.95,"target":"left","response":"left","rt":1996.0999999978,"correct":true,"confidence":3},{"trial_n":71,"n_dots":2.85,"target":"right","response":"right","rt":3074,"correct":true,"confidence":3},{"trial_n":72,"n_dots":2.85,"target":"left","response":"left","rt":925.80000000075,"correct":true,"confidence":3},{"trial_n":73,"n_dots":2.75,"target":"right","response":"right","rt":1192.799999997,"correct":true,"confidence":3},{"trial_n":74,"n_dots":2.75,"target":"left","response":"left","rt":888.30000000075,"correct":true,"confidence":3},{"trial_n":75,"n_dots":2.65,"target":"left","response":"left","rt":785.80000000075,"correct":true,"confidence":3},{"trial_n":76,"n_dots":2.65,"target":"left","response":"left","rt":898.29999999702,"correct":true,"confidence":3},{"trial_n":77,"n_dots":2.55,"target":"left","response":"left","rt":751,"correct":true,"confidence":5},{"trial_n":78,"n_dots":2.55,"target":"right","response":"left","rt":936.10000000149,"correct":false,"confidence":2},{"trial_n":79,"n_dots":2.65,"target":"left","response":"left","rt":729.5,"correct":true,"confidence":3},{"trial_n":80,"n_dots":2.65,"target":"right","response":"left","rt":1130.1999999993,"correct":false,"confidence":5},{"trial_n":81,"n_dots":2.75,"target":"right","response":"right","rt":1219.3000000007,"correct":true,"confidence":2},{"trial_n":82,"n_dots":2.75,"target":"right","response":"right","rt":1901.8999999985,"correct":true,"confidence":6},{"trial_n":83,"n_dots":2.65,"target":"left","response":"left","rt":1121.5,"correct":true,"confidence":4},{"trial_n":84,"n_dots":2.65,"target":"right","response":"right","rt":1499.5,"correct":true,"confidence":4},{"trial_n":85,"n_dots":2.55,"target":"right","response":"right","rt":1370.8000000007,"correct":true,"confidence":4},{"trial_n":86,"n_dots":2.55,"target":"left","response":"left","rt":728.5,"correct":true,"confidence":5},{"trial_n":87,"n_dots":2.45,"target":"left","response":"left","rt":830.80000000075,"correct":true,"confidence":4},{"trial_n":88,"n_dots":2.45,"target":"left","response":"left","rt":745.69999999925,"correct":true,"confidence":4},{"trial_n":89,"n_dots":2.35,"target":"right","response":"right","rt":789.90000000224,"correct":true,"confidence":6},{"trial_n":90,"n_dots":2.35,"target":"right","response":"right","rt":1368.8000000007,"correct":true,"confidence":3},{"trial_n":91,"n_dots":2.25,"target":"right","response":"right","rt":1186.6000000015,"correct":true,"confidence":6},{"trial_n":92,"n_dots":2.25,"target":"left","response":"left","rt":548.19999999925,"correct":true,"confidence":6},{"trial_n":93,"n_dots":2.15,"target":"right","response":"left","rt":418.09999999776,"correct":false,"confidence":2},{"trial_n":94,"n_dots":2.25,"target":"left","response":"left","rt":607,"correct":true,"confidence":5},{"trial_n":95,"n_dots":2.25,"target":"right","response":"left","rt":694,"correct":false,"confidence":5},{"trial_n":96,"n_dots":2.35,"target":"right","response":"left","rt":544.60000000149,"correct":false,"confidence":6},{"trial_n":97,"n_dots":2.45,"target":"left","response":"left","rt":262.40000000224,"correct":true,"confidence":6},{"trial_n":98,"n_dots":2.45,"target":"left","response":"left","rt":1210.299999997,"correct":true,"confidence":4},{"trial_n":99,"n_dots":2.35,"target":"left","response":"left","rt":652.89999999851,"correct":true,"confidence":4},{"trial_n":100,"n_dots":2.35,"target":"left","response":"left","rt":682,"correct":true,"confidence":4},{"trial_n":101,"n_dots":2.25,"target":"left","response":"right","rt":1541.1999999993,"correct":false,"confidence":6},{"trial_n":102,"n_dots":2.35,"target":"left","response":"left","rt":423.80000000075,"correct":true,"confidence":4},{"trial_n":103,"n_dots":2.35,"target":"right","response":"left","rt":1505.6999999993,"correct":false,"confidence":4},{"trial_n":104,"n_dots":2.45,"target":"right","response":"right","rt":820.5,"correct":true,"confidence":5},{"trial_n":105,"n_dots":2.45,"target":"right","response":"left","rt":588.89999999851,"correct":false,"confidence":4},{"trial_n":106,"n_dots":2.55,"target":"left","response":"left","rt":659.89999999851,"correct":true,"confidence":4},{"trial_n":107,"n_dots":2.55,"target":"right","response":"right","rt":1097.5,"correct":true,"confidence":5},{"trial_n":108,"n_dots":2.45,"target":"left","response":"left","rt":749.80000000075,"correct":true,"confidence":4},{"trial_n":109,"n_dots":2.45,"target":"right","response":"left","rt":770,"correct":false,"confidence":4},{"trial_n":110,"n_dots":2.55,"target":"left","response":"left","rt":408.59999999776,"correct":true,"confidence":6},{"trial_n":111,"n_dots":2.55,"target":"right","response":"left","rt":557,"correct":false,"confidence":2},{"trial_n":112,"n_dots":2.65,"target":"left","response":"left","rt":366.69999999925,"correct":true,"confidence":1},{"trial_n":113,"n_dots":2.65,"target":"right","response":"left","rt":3571.5,"correct":false,"confidence":1},{"trial_n":114,"n_dots":2.75,"target":"right","response":"right","rt":1694.200000003,"correct":true,"confidence":4},{"trial_n":115,"n_dots":2.75,"target":"left","response":"right","rt":1194.3000000007,"correct":false,"confidence":5},{"trial_n":116,"n_dots":2.85,"target":"right","response":"right","rt":1113.5,"correct":true,"confidence":4},{"trial_n":117,"n_dots":2.85,"target":"right","response":"right","rt":1645.6999999993,"correct":true,"confidence":4},{"trial_n":118,"n_dots":2.75,"target":"right","response":"right","rt":1036,"correct":true,"confidence":2},{"trial_n":119,"n_dots":2.75,"target":"left","response":"left","rt":640.40000000224,"correct":true,"confidence":5},{"trial_n":120,"n_dots":2.65,"target":"left","response":"left","rt":3027.6999999993,"correct":true,"confidence":5},{"trial_n":121,"n_dots":2.65,"target":"right","response":"right","rt":2181.8999999985,"correct":true,"confidence":6},{"trial_n":122,"n_dots":2.55,"target":"right","response":"left","rt":3235.1999999993,"correct":false,"confidence":3},{"trial_n":123,"n_dots":2.65,"target":"right","response":"right","rt":2672.5,"correct":true,"confidence":3},{"trial_n":124,"n_dots":2.65,"target":"left","response":"left","rt":1210.6000000015,"correct":true,"confidence":4},{"trial_n":125,"n_dots":2.55,"target":"right","response":"right","rt":822.5,"correct":true,"confidence":5},{"trial_n":126,"n_dots":2.55,"target":"left","response":"right","rt":2126.9000000022,"correct":false,"confidence":2},{"trial_n":127,"n_dots":2.65,"target":"left","response":"right","rt":1238.1999999993,"correct":false,"confidence":6},{"trial_n":128,"n_dots":2.75,"target":"right","response":"right","rt":2217.4000000022,"correct":true,"confidence":5},{"trial_n":129,"n_dots":2.75,"target":"left","response":"left","rt":1338.8999999985,"correct":true,"confidence":4},{"trial_n":130,"n_dots":2.65,"target":"right","response":"right","rt":1495.8000000007,"correct":true,"confidence":5},{"trial_n":131,"n_dots":2.65,"target":"right","response":"left","rt":661.60000000149,"correct":false,"confidence":4},{"trial_n":132,"n_dots":2.75,"target":"right","response":"left","rt":970.69999999925,"correct":false,"confidence":4},{"trial_n":133,"n_dots":2.85,"target":"left","response":"right","rt":3506.8000000007,"correct":false,"confidence":1},{"trial_n":134,"n_dots":2.95,"target":"right","response":"right","rt":925.5,"correct":true,"confidence":3},{"trial_n":135,"n_dots":2.95,"target":"left","response":"left","rt":1001.5,"correct":true,"confidence":2},{"trial_n":136,"n_dots":2.85,"target":"right","response":"left","rt":490.90000000224,"correct":false,"confidence":4},{"trial_n":137,"n_dots":2.95,"target":"right","response":"right","rt":874.40000000224,"correct":true,"confidence":6},{"trial_n":138,"n_dots":2.95,"target":"right","response":"right","rt":893,"correct":true,"confidence":6},{"trial_n":139,"n_dots":2.85,"target":"left","response":"left","rt":830.60000000149,"correct":true,"confidence":4},{"trial_n":140,"n_dots":2.85,"target":"right","response":"right","rt":1528.6999999993,"correct":true,"confidence":2},{"trial_n":141,"n_dots":2.75,"target":"left","response":"left","rt":358.80000000075,"correct":true,"confidence":4},{"trial_n":142,"n_dots":2.75,"target":"left","response":"right","rt":2181.1000000015,"correct":false,"confidence":2},{"trial_n":143,"n_dots":2.85,"target":"right","response":"right","rt":3947.5,"correct":true,"confidence":2},{"trial_n":144,"n_dots":2.85,"target":"right","response":"left","rt":6514.6000000015,"correct":false,"confidence":1},{"trial_n":145,"n_dots":2.95,"target":"right","response":"right","rt":1681.5,"correct":true,"confidence":1},{"trial_n":146,"n_dots":2.95,"target":"left","response":"left","rt":563.29999999702,"correct":true,"confidence":3},{"trial_n":147,"n_dots":2.85,"target":"right","response":"left","rt":600,"correct":false,"confidence":2},{"trial_n":148,"n_dots":2.95,"target":"right","response":"left","rt":1830.5,"correct":false,"confidence":1},{"trial_n":149,"n_dots":3.05,"target":"right","response":"left","rt":621.30000000075,"correct":false,"confidence":2},{"trial_n":150,"n_dots":3.15,"target":"left","response":"left","rt":466.19999999925,"correct":true,"confidence":5},{"trial_n":151,"n_dots":3.15,"target":"left","response":"left","rt":647.39999999851,"correct":true,"confidence":1},{"trial_n":152,"n_dots":3.05,"target":"left","response":"left","rt":834.5,"correct":true,"confidence":1},{"trial_n":153,"n_dots":3.05,"target":"right","response":"right","rt":1128.1000000015,"correct":true,"confidence":6},{"trial_n":154,"n_dots":2.95,"target":"right","response":"left","rt":43380.199999999,"correct":false,"confidence":1},{"trial_n":155,"n_dots":3.05,"target":"left","response":"left","rt":803.80000000075,"correct":true,"confidence":2},{"trial_n":156,"n_dots":3.05,"target":"left","response":"right","rt":1793,"correct":false,"confidence":2},{"trial_n":157,"n_dots":3.15,"target":"left","response":"left","rt":414.70000000298,"correct":true,"confidence":1},{"trial_n":158,"n_dots":3.15,"target":"right","response":"right","rt":1315.5,"correct":true,"confidence":6},{"trial_n":159,"n_dots":3.05,"target":"right","response":"right","rt":1024.5,"correct":true,"confidence":2},{"trial_n":160,"n_dots":3.05,"target":"right","response":"right","rt":1053.8999999985,"correct":true,"confidence":1},{"trial_n":161,"n_dots":2.95,"target":"left","response":"left","rt":943.80000000075,"correct":true,"confidence":2},{"trial_n":162,"n_dots":2.95,"target":"left","response":"right","rt":2214.8999999985,"correct":false,"confidence":2},{"trial_n":163,"n_dots":3.05,"target":"right","response":"right","rt":858.89999999851,"correct":true,"confidence":4},{"trial_n":164,"n_dots":3.05,"target":"right","response":"right","rt":1295.1999999993,"correct":true,"confidence":1},{"trial_n":165,"n_dots":2.95,"target":"right","response":"right","rt":1629.3000000007,"correct":true,"confidence":2},{"trial_n":166,"n_dots":2.95,"target":"right","response":"left","rt":3592.1999999993,"correct":false,"confidence":1},{"trial_n":167,"n_dots":3.05,"target":"right","response":"right","rt":2757.3000000007,"correct":true,"confidence":1},{"trial_n":168,"n_dots":3.05,"target":"right","response":"right","rt":1563.5999999978,"correct":true,"confidence":1},{"trial_n":169,"n_dots":2.95,"target":"left","response":"right","rt":2491.6999999993,"correct":false,"confidence":2},{"trial_n":170,"n_dots":3.05,"target":"left","response":"left","rt":539.20000000298,"correct":true,"confidence":2},{"trial_n":171,"n_dots":3.05,"target":"left","response":"left","rt":525.80000000075,"correct":true,"confidence":5},{"trial_n":172,"n_dots":2.95,"target":"left","response":"left","rt":554.30000000075,"correct":true,"confidence":6},{"trial_n":173,"n_dots":2.95,"target":"right","response":"right","rt":1363.9000000022,"correct":true,"confidence":4},{"trial_n":174,"n_dots":2.85,"target":"right","response":"right","rt":1726.200000003,"correct":true,"confidence":1},{"trial_n":175,"n_dots":2.85,"target":"left","response":"left","rt":369.90000000224,"correct":true,"confidence":2},{"trial_n":176,"n_dots":2.75,"target":"left","response":"right","rt":733.60000000149,"correct":false,"confidence":2},{"trial_n":177,"n_dots":2.85,"target":"right","response":"left","rt":492.40000000224,"correct":false,"confidence":2},{"trial_n":178,"n_dots":2.95,"target":"left","response":"left","rt":539.09999999776,"correct":true,"confidence":5},{"trial_n":179,"n_dots":2.95,"target":"right","response":"right","rt":619.69999999925,"correct":true,"confidence":1},{"trial_n":180,"n_dots":2.85,"target":"right","response":"right","rt":549,"correct":true,"confidence":4},{"trial_n":181,"n_dots":2.85,"target":"left","response":"left","rt":334.09999999776,"correct":true,"confidence":3},{"trial_n":182,"n_dots":2.75,"target":"left","response":"right","rt":867.10000000149,"correct":false,"confidence":2},{"trial_n":183,"n_dots":2.85,"target":"right","response":"right","rt":1022.0999999978,"correct":true,"confidence":2},{"trial_n":184,"n_dots":2.85,"target":"right","response":"left","rt":413.30000000075,"correct":false,"confidence":5},{"trial_n":185,"n_dots":2.95,"target":"right","response":"right","rt":2144.5,"correct":true,"confidence":4},{"trial_n":186,"n_dots":2.95,"target":"left","response":"left","rt":309.5,"correct":true,"confidence":3},{"trial_n":187,"n_dots":2.85,"target":"right","response":"left","rt":463.79999999702,"correct":false,"confidence":1},{"trial_n":188,"n_dots":2.95,"target":"left","response":"right","rt":1015.6999999993,"correct":false,"confidence":1},{"trial_n":189,"n_dots":3.05,"target":"left","response":"right","rt":1544.200000003,"correct":false,"confidence":3},{"trial_n":190,"n_dots":3.15,"target":"right","response":"right","rt":900.09999999776,"correct":true,"confidence":5},{"trial_n":191,"n_dots":3.15,"target":"left","response":"left","rt":266.19999999925,"correct":true,"confidence":6},{"trial_n":192,"n_dots":3.05,"target":"left","response":"left","rt":261.19999999925,"correct":true,"confidence":5},{"trial_n":193,"n_dots":3.05,"target":"right","response":"left","rt":929.19999999925,"correct":false,"confidence":4},{"trial_n":194,"n_dots":3.15,"target":"right","response":"left","rt":605.39999999851,"correct":false,"confidence":1}]