[{"trial_n":1,"n_dots":4.25,"target":"left","response":"right","rt":2104.8999999985,"correct":false,"confidence":-1},{"trial_n":2,"n_dots":4.25,"target":"left","response":"left","rt":205.69999999553,"correct":true,"confidence":-1},{"trial_n":3,"n_dots":4.25,"target":"left","response":"left","rt":346.5,"correct":true,"confidence":-1},{"trial_n":4,"n_dots":3.85,"target":"left","response":"left","rt":285.80000000447,"correct":true,"confidence":-1},{"trial_n":5,"n_dots":3.85,"target":"left","response":"left","rt":177.20000000298,"correct":true,"confidence":-1},{"trial_n":6,"n_dots":3.45,"target":"right","response":"right","rt":44.20000000298,"correct":true,"confidence":-1},{"trial_n":7,"n_dots":3.45,"target":"right","response":"right","rt":69.10000000149,"correct":true,"confidence":-1},{"trial_n":8,"n_dots":3.25,"target":"right","response":"right","rt":433.10000000149,"correct":true,"confidence":-1},{"trial_n":9,"n_dots":3.25,"target":"right","response":"right","rt":606.30000000447,"correct":true,"confidence":-1},{"trial_n":10,"n_dots":3.05,"target":"right","response":"right","rt":344.5,"correct":true,"confidence":-1},{"trial_n":11,"n_dots":3.05,"target":"right","response":"right","rt":50.29999999702,"correct":true,"confidence":-1},{"trial_n":12,"n_dots":2.85,"target":"right","response":"left","rt":807.79999999702,"correct":false,"confidence":-1},{"trial_n":13,"n_dots":2.95,"target":"left","response":"right","rt":542.10000000149,"correct":false,"confidence":-1},{"trial_n":14,"n_dots":3.05,"target":"right","response":"right","rt":548.10000000149,"correct":true,"confidence":-1},{"trial_n":15,"n_dots":3.05,"target":"right","response":"right","rt":112.19999999553,"correct":true,"confidence":-1},{"trial_n":16,"n_dots":2.95,"target":"left","response":"right","rt":116.20000000298,"correct":false,"confidence":-1},{"trial_n":17,"n_dots":3.05,"target":"right","response":"right","rt":433,"correct":true,"confidence":-1},{"trial_n":18,"n_dots":3.05,"target":"right","response":"right","rt":422.39999999851,"correct":true,"confidence":-1},{"trial_n":19,"n_dots":2.95,"target":"right","response":"right","rt":310.70000000298,"correct":true,"confidence":-1},{"trial_n":20,"n_dots":2.95,"target":"right","response":"right","rt":98.29999999702,"correct":true,"confidence":-1},{"trial_n":21,"n_dots":2.85,"target":"right","response":"right","rt":36.80000000447,"correct":true,"confidence":-1},{"trial_n":22,"n_dots":2.85,"target":"right","response":"right","rt":155.60000000149,"correct":true,"confidence":-1},{"trial_n":23,"n_dots":2.75,"target":"right","response":"right","rt":273.79999999702,"correct":true,"confidence":-1},{"trial_n":24,"n_dots":2.75,"target":"left","response":"right","rt":469.70000000298,"correct":false,"confidence":-1},{"trial_n":25,"n_dots":2.85,"target":"left","response":"left","rt":47.29999999702,"correct":true,"confidence":-1},{"trial_n":26,"n_dots":2.85,"target":"right","response":"left","rt":183.70000000298,"correct":false,"confidence":-1},{"trial_n":27,"n_dots":2.95,"target":"right","response":"right","rt":41.89999999851,"correct":true,"confidence":2},{"trial_n":28,"n_dots":2.95,"target":"right","response":"left","rt":970,"correct":false,"confidence":4},{"trial_n":29,"n_dots":3.05,"target":"left","response":"right","rt":190.60000000149,"correct":false,"confidence":5},{"trial_n":30,"n_dots":3.15,"target":"right","response":"right","rt":33.89999999851,"correct":true,"confidence":5},{"trial_n":31,"n_dots":3.15,"target":"left","response":"right","rt":432.39999999851,"correct":false,"confidence":5},{"trial_n":32,"n_dots":3.25,"target":"left","response":"left","rt":474.29999999702,"correct":true,"confidence":5},{"trial_n":33,"n_dots":3.25,"target":"left","response":"left","rt":204.5,"correct":true,"confidence":2},{"trial_n":34,"n_dots":3.15,"target":"right","response":"right","rt":423.10000000149,"correct":true,"confidence":4},{"trial_n":35,"n_dots":3.15,"target":"right","response":"right","rt":173.5,"correct":true,"confidence":4},{"trial_n":36,"n_dots":3.05,"target":"left","response":"left","rt":649.09999999404,"correct":true,"confidence":5},{"trial_n":37,"n_dots":3.05,"target":"right","response":"left","rt":257.80000000447,"correct":false,"confidence":6},{"trial_n":38,"n_dots":3.15,"target":"right","response":"right","rt":590.5,"correct":true,"confidence":6},{"trial_n":39,"n_dots":3.15,"target":"right","response":"right","rt":299.79999999702,"correct":true,"confidence":6},{"trial_n":40,"n_dots":3.05,"target":"left","response":"right","rt":49.39999999851,"correct":false,"confidence":6},{"trial_n":41,"n_dots":3.15,"target":"right","response":"right","rt":51.70000000298,"correct":true,"confidence":6},{"trial_n":42,"n_dots":3.15,"target":"right","response":"right","rt":151.60000000149,"correct":true,"confidence":5},{"trial_n":43,"n_dots":3.05,"target":"right","response":"right","rt":230.30000000447,"correct":true,"confidence":5},{"trial_n":44,"n_dots":3.05,"target":"right","response":"right","rt":111.39999999851,"correct":true,"confidence":2},{"trial_n":45,"n_dots":2.95,"target":"right","response":"right","rt":261.20000000298,"correct":true,"confidence":1},{"trial_n":46,"n_dots":2.95,"target":"left","response":"right","rt":686,"correct":false,"confidence":4},{"trial_n":47,"n_dots":3.05,"target":"left","response":"right","rt":603.20000000298,"correct":false,"confidence":4},{"trial_n":48,"n_dots":3.15,"target":"right","response":"right","rt":346.70000000298,"correct":true,"confidence":4},{"trial_n":49,"n_dots":3.15,"target":"left","response":"left","rt":750.5,"correct":true,"confidence":3},{"trial_n":50,"n_dots":3.05,"target":"right","response":"right","rt":405,"correct":true,"confidence":4},{"trial_n":51,"n_dots":3.05,"target":"right","response":"right","rt":387.40000000596,"correct":true,"confidence":4},{"trial_n":52,"n_dots":2.95,"target":"left","response":"left","rt":410.70000000298,"correct":true,"confidence":4},{"trial_n":53,"n_dots":2.95,"target":"left","response":"right","rt":406.70000000298,"correct":false,"confidence":4},{"trial_n":54,"n_dots":3.05,"target":"right","response":"left","rt":87.70000000298,"correct":false,"confidence":4},{"trial_n":55,"n_dots":3.15,"target":"right","response":"right","rt":437.19999999553,"correct":true,"confidence":4},{"trial_n":56,"n_dots":3.15,"target":"right","response":"right","rt":145.79999999702,"correct":true,"confidence":4},{"trial_n":57,"n_dots":3.05,"target":"left","response":"right","rt":250.30000000447,"correct":false,"confidence":4},{"trial_n":58,"n_dots":3.15,"target":"left","response":"left","rt":321.39999999851,"correct":true,"confidence":4},{"trial_n":59,"n_dots":3.15,"target":"right","response":"right","rt":444.30000000447,"correct":true,"confidence":4},{"trial_n":60,"n_dots":3.05,"target":"left","response":"right","rt":391.60000000149,"correct":false,"confidence":5},{"trial_n":61,"n_dots":3.15,"target":"left","response":"left","rt":740.5,"correct":true,"confidence":5},{"trial_n":62,"n_dots":3.15,"target":"right","response":"right","rt":341.29999999702,"correct":true,"confidence":4},{"trial_n":63,"n_dots":3.05,"target":"right","response":"right","rt":321.90000000596,"correct":true,"confidence":4},{"trial_n":64,"n_dots":3.05,"target":"left","response":"right","rt":392.10000000149,"correct":false,"confidence":4},{"trial_n":65,"n_dots":3.15,"target":"left","response":"left","rt":365.60000000149,"correct":true,"confidence":4},{"trial_n":66,"n_dots":3.15,"target":"right","response":"right","rt":361.20000000298,"correct":true,"confidence":4},{"trial_n":67,"n_dots":3.05,"target":"left","response":"right","rt":387.70000000298,"correct":false,"confidence":4},{"trial_n":68,"n_dots":3.15,"target":"left","response":"right","rt":348.10000000149,"correct":false,"confidence":4},{"trial_n":69,"n_dots":3.25,"target":"right","response":"right","rt":94.80000000447,"correct":true,"confidence":4},{"trial_n":70,"n_dots":3.25,"target":"left","response":"right","rt":40.89999999851,"correct":false,"confidence":4},{"trial_n":71,"n_dots":3.35,"target":"right","response":"right","rt":196,"correct":true,"confidence":4},{"trial_n":72,"n_dots":3.35,"target":"left","response":"right","rt":150.70000000298,"correct":false,"confidence":4},{"trial_n":73,"n_dots":3.45,"target":"left","response":"right","rt":157.60000000149,"correct":false,"confidence":4},{"trial_n":74,"n_dots":3.55,"target":"right","response":"right","rt":337.59999999404,"correct":true,"confidence":4},{"trial_n":75,"n_dots":3.55,"target":"right","response":"right","rt":410,"correct":true,"confidence":4},{"trial_n":76,"n_dots":3.45,"target":"left","response":"right","rt":245.5,"correct":false,"confidence":4},{"trial_n":77,"n_dots":3.55,"target":"left","response":"right","rt":407.89999999851,"correct":false,"confidence":4},{"trial_n":78,"n_dots":3.65,"target":"left","response":"right","rt":75.5,"correct":false,"confidence":4},{"trial_n":79,"n_dots":3.75,"target":"left","response":"left","rt":1382.299999997,"correct":true,"confidence":4},{"trial_n":80,"n_dots":3.75,"target":"left","response":"left","rt":179.29999999702,"correct":true,"confidence":4},{"trial_n":81,"n_dots":3.65,"target":"left","response":"left","rt":151,"correct":true,"confidence":4},{"trial_n":82,"n_dots":3.65,"target":"right","response":"right","rt":36.29999999702,"correct":true,"confidence":4},{"trial_n":83,"n_dots":3.55,"target":"left","response":"left","rt":132.5,"correct":true,"confidence":4},{"trial_n":84,"n_dots":3.55,"target":"right","response":"left","rt":1065.5,"correct":false,"confidence":2},{"trial_n":85,"n_dots":3.65,"target":"right","response":"right","rt":134.5,"correct":true,"confidence":5},{"trial_n":86,"n_dots":3.65,"target":"left","response":"left","rt":91.19999999553,"correct":true,"confidence":4},{"trial_n":87,"n_dots":3.55,"target":"left","response":"left","rt":547.89999999851,"correct":true,"confidence":4},{"trial_n":88,"n_dots":3.55,"target":"left","response":"left","rt":1018.599999994,"correct":true,"confidence":1},{"trial_n":89,"n_dots":3.45,"target":"left","response":"left","rt":69.20000000298,"correct":true,"confidence":2},{"trial_n":90,"n_dots":3.45,"target":"left","response":"left","rt":19.5,"correct":true,"confidence":2},{"trial_n":91,"n_dots":3.35,"target":"right","response":"right","rt":263.59999999404,"correct":true,"confidence":4},{"trial_n":92,"n_dots":3.35,"target":"left","response":"left","rt":365.80000000447,"correct":true,"confidence":2},{"trial_n":93,"n_dots":3.25,"target":"right","response":"left","rt":102.60000000149,"correct":false,"confidence":2},{"trial_n":94,"n_dots":3.35,"target":"right","response":"left","rt":488.10000000149,"correct":false,"confidence":2},{"trial_n":95,"n_dots":3.45,"target":"left","response":"left","rt":385,"correct":true,"confidence":2},{"trial_n":96,"n_dots":3.45,"target":"left","response":"left","rt":81.19999999553,"correct":true,"confidence":4},{"trial_n":97,"n_dots":3.35,"target":"left","response":"left","rt":493.5,"correct":true,"confidence":2},{"trial_n":98,"n_dots":3.35,"target":"left","response":"left","rt":107,"correct":true,"confidence":2},{"trial_n":99,"n_dots":3.25,"target":"left","response":"right","rt":284.39999999851,"correct":false,"confidence":2},{"trial_n":100,"n_dots":3.35,"target":"right","response":"right","rt":172.5,"correct":true,"confidence":2},{"trial_n":101,"n_dots":3.35,"target":"left","response":"left","rt":619.90000000596,"correct":true,"confidence":2},{"trial_n":102,"n_dots":3.25,"target":"left","response":"left","rt":628.60000000149,"correct":true,"confidence":2},{"trial_n":103,"n_dots":3.25,"target":"left","response":"left","rt":223.60000000149,"correct":true,"confidence":2},{"trial_n":104,"n_dots":3.15,"target":"right","response":"left","rt":197,"correct":false,"confidence":2},{"trial_n":105,"n_dots":3.25,"target":"right","response":"right","rt":129.20000000298,"correct":true,"confidence":2},{"trial_n":106,"n_dots":3.25,"target":"left","response":"right","rt":359.20000000298,"correct":false,"confidence":2},{"trial_n":107,"n_dots":3.35,"target":"left","response":"right","rt":356.5,"correct":false,"confidence":2},{"trial_n":108,"n_dots":3.45,"target":"right","response":"right","rt":422.39999999851,"correct":true,"confidence":2},{"trial_n":109,"n_dots":3.45,"target":"left","response":"left","rt":577.80000000447,"correct":true,"confidence":2},{"trial_n":110,"n_dots":3.35,"target":"right","response":"right","rt":79.80000000447,"correct":true,"confidence":2},{"trial_n":111,"n_dots":3.35,"target":"left","response":"right","rt":241.20000000298,"correct":false,"confidence":2},{"trial_n":112,"n_dots":3.45,"target":"left","response":"right","rt":25.69999999553,"correct":false,"confidence":2},{"trial_n":113,"n_dots":3.55,"target":"left","response":"left","rt":201.60000000149,"correct":true,"confidence":2},{"trial_n":114,"n_dots":3.55,"target":"right","response":"right","rt":2,"correct":true,"confidence":2},{"trial_n":115,"n_dots":3.45,"target":"left","response":"left","rt":47.70000000298,"correct":true,"confidence":2},{"trial_n":116,"n_dots":3.45,"target":"left","response":"left","rt":570.20000000298,"correct":true,"confidence":2},{"trial_n":117,"n_dots":3.35,"target":"right","response":"right","rt":107.29999999702,"correct":true,"confidence":2},{"trial_n":118,"n_dots":3.35,"target":"right","response":"right","rt":149.89999999851,"correct":true,"confidence":2},{"trial_n":119,"n_dots":3.25,"target":"left","response":"right","rt":248.40000000596,"correct":false,"confidence":2},{"trial_n":120,"n_dots":3.35,"target":"left","response":"left","rt":125.19999999553,"correct":true,"confidence":2},{"trial_n":121,"n_dots":3.35,"target":"right","response":"left","rt":510,"correct":false,"confidence":2},{"trial_n":122,"n_dots":3.45,"target":"right","response":"right","rt":107.20000000298,"correct":true,"confidence":2},{"trial_n":123,"n_dots":3.45,"target":"right","response":"right","rt":109.29999999702,"correct":true,"confidence":2},{"trial_n":124,"n_dots":3.35,"target":"left","response":"right","rt":456.10000000149,"correct":false,"confidence":2},{"trial_n":125,"n_dots":3.45,"target":"left","response":"left","rt":294.70000000298,"correct":true,"confidence":4},{"trial_n":126,"n_dots":3.45,"target":"left","response":"left","rt":438.79999999702,"correct":true,"confidence":4},{"trial_n":127,"n_dots":3.35,"target":"right","response":"left","rt":5.7000000029802,"correct":false,"confidence":1},{"trial_n":128,"n_dots":3.45,"target":"right","response":"right","rt":11.10000000149,"correct":true,"confidence":4},{"trial_n":129,"n_dots":3.45,"target":"left","response":"left","rt":172.10000000149,"correct":true,"confidence":3},{"trial_n":130,"n_dots":3.35,"target":"right","response":"right","rt":382.29999999702,"correct":true,"confidence":3},{"trial_n":131,"n_dots":3.35,"target":"left","response":"left","rt":188.30000000447,"correct":true,"confidence":3},{"trial_n":132,"n_dots":3.25,"target":"left","response":"right","rt":43.20000000298,"correct":false,"confidence":3},{"trial_n":133,"n_dots":3.35,"target":"left","response":"left","rt":51.5,"correct":true,"confidence":3},{"trial_n":134,"n_dots":3.35,"target":"right","response":"right","rt":106,"correct":true,"confidence":3},{"trial_n":135,"n_dots":3.25,"target":"left","response":"left","rt":0.70000000298023,"correct":true,"confidence":3},{"trial_n":136,"n_dots":3.25,"target":"right","response":"right","rt":172.69999999553,"correct":true,"confidence":3},{"trial_n":137,"n_dots":3.15,"target":"right","response":"right","rt":353.20000000298,"correct":true,"confidence":3},{"trial_n":138,"n_dots":3.15,"target":"left","response":"left","rt":125,"correct":true,"confidence":3},{"trial_n":139,"n_dots":3.05,"target":"right","response":"right","rt":32.5,"correct":true,"confidence":3},{"trial_n":140,"n_dots":3.05,"target":"left","response":"left","rt":47.29999999702,"correct":true,"confidence":3},{"trial_n":141,"n_dots":2.95,"target":"left","response":"left","rt":182.10000000149,"correct":true,"confidence":3},{"trial_n":142,"n_dots":2.95,"target":"left","response":"left","rt":88.59999999404,"correct":true,"confidence":3},{"trial_n":143,"n_dots":2.85,"target":"left","response":"right","rt":211.10000000149,"correct":false,"confidence":3},{"trial_n":144,"n_dots":2.95,"target":"right","response":"left","rt":42.60000000149,"correct":false,"confidence":3},{"trial_n":145,"n_dots":3.05,"target":"left","response":"left","rt":654.89999999851,"correct":true,"confidence":3},{"trial_n":146,"n_dots":3.05,"target":"left","response":"right","rt":506.20000000298,"correct":false,"confidence":3},{"trial_n":147,"n_dots":3.15,"target":"right","response":"right","rt":29.80000000447,"correct":true,"confidence":3},{"trial_n":148,"n_dots":3.15,"target":"left","response":"left","rt":73.5,"correct":true,"confidence":3},{"trial_n":149,"n_dots":3.05,"target":"left","response":"left","rt":213.30000000447,"correct":true,"confidence":2},{"trial_n":150,"n_dots":3.05,"target":"right","response":"right","rt":359.5,"correct":true,"confidence":6},{"trial_n":151,"n_dots":2.95,"target":"right","response":"left","rt":762.39999999851,"correct":false,"confidence":2},{"trial_n":152,"n_dots":3.05,"target":"left","response":"right","rt":485.70000000298,"correct":false,"confidence":2},{"trial_n":153,"n_dots":3.15,"target":"right","response":"right","rt":552.89999999851,"correct":true,"confidence":2},{"trial_n":154,"n_dots":3.15,"target":"right","response":"right","rt":1180.5,"correct":true,"confidence":5},{"trial_n":155,"n_dots":3.05,"target":"right","response":"right","rt":131.70000000298,"correct":true,"confidence":4},{"trial_n":156,"n_dots":3.05,"target":"left","response":"right","rt":17.20000000298,"correct":false,"confidence":4},{"trial_n":157,"n_dots":3.15,"target":"left","response":"right","rt":195.30000000447,"correct":false,"confidence":4},{"trial_n":158,"n_dots":3.25,"target":"right","response":"right","rt":621.5,"correct":true,"confidence":4},{"trial_n":159,"n_dots":3.25,"target":"right","response":"right","rt":662.5,"correct":true,"confidence":3},{"trial_n":160,"n_dots":3.15,"target":"left","response":"left","rt":259.60000000149,"correct":true,"confidence":3},{"trial_n":161,"n_dots":3.15,"target":"left","response":"left","rt":533.89999999851,"correct":true,"confidence":3},{"trial_n":162,"n_dots":3.05,"target":"right","response":"right","rt":15.10000000149,"correct":true,"confidence":4},{"trial_n":163,"n_dots":3.05,"target":"left","response":"left","rt":280,"correct":true,"confidence":4},{"trial_n":164,"n_dots":2.95,"target":"left","response":"left","rt":71.89999999851,"correct":true,"confidence":2},{"trial_n":165,"n_dots":2.95,"target":"right","response":"left","rt":36.29999999702,"correct":false,"confidence":4},{"trial_n":166,"n_dots":3.05,"target":"left","response":"left","rt":383.39999999851,"correct":true,"confidence":4},{"trial_n":167,"n_dots":3.05,"target":"right","response":"left","rt":75.89999999851,"correct":false,"confidence":4},{"trial_n":168,"n_dots":3.15,"target":"right","response":"right","rt":57.30000000447,"correct":true,"confidence":4},{"trial_n":169,"n_dots":3.15,"target":"left","response":"left","rt":58.79999999702,"correct":true,"confidence":4},{"trial_n":170,"n_dots":3.05,"target":"right","response":"left","rt":301,"correct":false,"confidence":4},{"trial_n":171,"n_dots":3.15,"target":"right","response":"right","rt":394.60000000149,"correct":true,"confidence":4},{"trial_n":172,"n_dots":3.15,"target":"right","response":"left","rt":390.29999999702,"correct":false,"confidence":4},{"trial_n":173,"n_dots":3.25,"target":"right","response":"left","rt":616.89999999851,"correct":false,"confidence":4},{"trial_n":174,"n_dots":3.35,"target":"right","response":"right","rt":139.90000000596,"correct":true,"confidence":4},{"trial_n":175,"n_dots":3.35,"target":"left","response":"left","rt":114.70000000298,"correct":true,"confidence":4},{"trial_n":176,"n_dots":3.25,"target":"right","response":"left","rt":38.60000000149,"correct":false,"confidence":4},{"trial_n":177,"n_dots":3.35,"target":"right","response":"left","rt":245.5,"correct":false,"confidence":2},{"trial_n":178,"n_dots":3.45,"target":"right","response":"right","rt":3112,"correct":true,"confidence":4},{"trial_n":179,"n_dots":3.45,"target":"left","response":"left","rt":494.30000000447,"correct":true,"confidence":4},{"trial_n":180,"n_dots":3.35,"target":"right","response":"right","rt":378.80000000447,"correct":true,"confidence":4},{"trial_n":181,"n_dots":3.35,"target":"right","response":"right","rt":126.79999999702,"correct":true,"confidence":4},{"trial_n":182,"n_dots":3.25,"target":"right","response":"right","rt":243.29999999702,"correct":true,"confidence":4},{"trial_n":183,"n_dots":3.25,"target":"right","response":"right","rt":208.89999999851,"correct":true,"confidence":4},{"trial_n":184,"n_dots":3.15,"target":"left","response":"left","rt":890.60000000149,"correct":true,"confidence":5},{"trial_n":185,"n_dots":3.15,"target":"left","response":"left","rt":8.6000000014901,"correct":true,"confidence":5},{"trial_n":186,"n_dots":3.05,"target":"left","response":"right","rt":630.89999999851,"correct":false,"confidence":4},{"trial_n":187,"n_dots":3.15,"target":"left","response":"left","rt":501.30000000447,"correct":true,"confidence":3},{"trial_n":188,"n_dots":3.15,"target":"right","response":"right","rt":234.19999999553,"correct":true,"confidence":4},{"trial_n":189,"n_dots":3.05,"target":"right","response":"right","rt":66.89999999851,"correct":true,"confidence":4},{"trial_n":190,"n_dots":3.05,"target":"left","response":"right","rt":487.09999999404,"correct":false,"confidence":4},{"trial_n":191,"n_dots":3.15,"target":"right","response":"right","rt":164.70000000298,"correct":true,"confidence":4},{"trial_n":192,"n_dots":3.15,"target":"right","response":"right","rt":9.7000000029802,"correct":true,"confidence":4},{"trial_n":193,"n_dots":3.05,"target":"left","response":"right","rt":539.10000000149,"correct":false,"confidence":4},{"trial_n":194,"n_dots":3.15,"target":"left","response":"right","rt":176.89999999851,"correct":false,"confidence":4}]