[{"trial_n":1,"n_dots":4.25,"target":"right","response":"right","rt":3911.7999999523,"correct":true,"confidence":-1},{"trial_n":2,"n_dots":4.25,"target":"left","response":"left","rt":658.69999992847,"correct":true,"confidence":-1},{"trial_n":3,"n_dots":3.85,"target":"left","response":"left","rt":238.30000007153,"correct":true,"confidence":-1},{"trial_n":4,"n_dots":3.85,"target":"right","response":"right","rt":173.10000002384,"correct":true,"confidence":-1},{"trial_n":5,"n_dots":3.45,"target":"left","response":"left","rt":102.10000002384,"correct":true,"confidence":-1},{"trial_n":6,"n_dots":3.45,"target":"right","response":"right","rt":301,"correct":true,"confidence":-1},{"trial_n":7,"n_dots":3.05,"target":"right","response":"left","rt":528.79999995232,"correct":false,"confidence":-1},{"trial_n":8,"n_dots":3.25,"target":"left","response":"right","rt":913.20000004768,"correct":false,"confidence":-1},{"trial_n":9,"n_dots":3.45,"target":"right","response":"right","rt":105.39999997616,"correct":true,"confidence":-1},{"trial_n":10,"n_dots":3.45,"target":"right","response":"left","rt":31.299999952316,"correct":false,"confidence":-1},{"trial_n":11,"n_dots":3.65,"target":"left","response":"left","rt":15.800000071526,"correct":true,"confidence":-1},{"trial_n":12,"n_dots":3.65,"target":"right","response":"left","rt":492.10000002384,"correct":false,"confidence":-1},{"trial_n":13,"n_dots":3.75,"target":"left","response":"left","rt":682,"correct":true,"confidence":-1},{"trial_n":14,"n_dots":3.75,"target":"right","response":"right","rt":550,"correct":true,"confidence":-1},{"trial_n":15,"n_dots":3.65,"target":"left","response":"left","rt":154.60000002384,"correct":true,"confidence":-1},{"trial_n":16,"n_dots":3.65,"target":"left","response":"left","rt":55.299999952316,"correct":true,"confidence":-1},{"trial_n":17,"n_dots":3.55,"target":"left","response":"right","rt":174.39999997616,"correct":false,"confidence":-1},{"trial_n":18,"n_dots":3.65,"target":"right","response":"right","rt":34.600000023842,"correct":true,"confidence":-1},{"trial_n":19,"n_dots":3.65,"target":"left","response":"left","rt":78,"correct":true,"confidence":-1},{"trial_n":20,"n_dots":3.55,"target":"left","response":"left","rt":339.5,"correct":true,"confidence":-1},{"trial_n":21,"n_dots":3.55,"target":"right","response":"right","rt":87.799999952316,"correct":true,"confidence":-1},{"trial_n":22,"n_dots":3.45,"target":"right","response":"right","rt":27.600000023842,"correct":true,"confidence":-1},{"trial_n":23,"n_dots":3.45,"target":"right","response":"left","rt":32.400000095367,"correct":false,"confidence":-1},{"trial_n":24,"n_dots":3.55,"target":"right","response":"left","rt":259,"correct":false,"confidence":-1},{"trial_n":25,"n_dots":3.65,"target":"left","response":"left","rt":183.20000004768,"correct":true,"confidence":-1},{"trial_n":26,"n_dots":3.65,"target":"right","response":"right","rt":75.100000023842,"correct":true,"confidence":-1},{"trial_n":27,"n_dots":3.55,"target":"right","response":"right","rt":2769.6000000238,"correct":true,"confidence":0},{"trial_n":28,"n_dots":3.55,"target":"right","response":"right","rt":819.5,"correct":true,"confidence":10},{"trial_n":29,"n_dots":3.45,"target":"left","response":"right","rt":1.8999999761581,"correct":false,"confidence":0},{"trial_n":30,"n_dots":3.55,"target":"right","response":"right","rt":690.90000009537,"correct":true,"confidence":10},{"trial_n":31,"n_dots":3.55,"target":"right","response":"right","rt":4907,"correct":true,"confidence":0},{"trial_n":32,"n_dots":3.45,"target":"left","response":"left","rt":210.60000002384,"correct":true,"confidence":40},{"trial_n":33,"n_dots":3.45,"target":"left","response":"left","rt":331.5,"correct":true,"confidence":20},{"trial_n":34,"n_dots":3.35,"target":"left","response":"left","rt":1009.7000000477,"correct":true,"confidence":20},{"trial_n":35,"n_dots":3.35,"target":"left","response":"right","rt":2964,"correct":false,"confidence":0},{"trial_n":36,"n_dots":3.45,"target":"left","response":"left","rt":437.5,"correct":true,"confidence":60},{"trial_n":37,"n_dots":3.45,"target":"left","response":"left","rt":41.299999952316,"correct":true,"confidence":60},{"trial_n":38,"n_dots":3.35,"target":"left","response":"left","rt":-0.39999997615814,"correct":true,"confidence":80},{"trial_n":39,"n_dots":3.35,"target":"left","response":"left","rt":339.30000007153,"correct":true,"confidence":20},{"trial_n":40,"n_dots":3.25,"target":"right","response":"left","rt":237.80000007153,"correct":false,"confidence":30},{"trial_n":41,"n_dots":3.35,"target":"right","response":"left","rt":918.5,"correct":false,"confidence":10},{"trial_n":42,"n_dots":3.45,"target":"left","response":"left","rt":478.29999995232,"correct":true,"confidence":80},{"trial_n":43,"n_dots":3.45,"target":"right","response":"left","rt":937.40000009537,"correct":false,"confidence":0},{"trial_n":44,"n_dots":3.55,"target":"right","response":"right","rt":344,"correct":true,"confidence":30},{"trial_n":45,"n_dots":3.55,"target":"left","response":"left","rt":51.599999904633,"correct":true,"confidence":30},{"trial_n":46,"n_dots":3.45,"target":"right","response":"right","rt":364.80000007153,"correct":true,"confidence":10},{"trial_n":47,"n_dots":3.45,"target":"right","response":"left","rt":992.80000007153,"correct":false,"confidence":0},{"trial_n":48,"n_dots":3.55,"target":"right","response":"left","rt":463.70000004768,"correct":false,"confidence":50},{"trial_n":49,"n_dots":3.65,"target":"right","response":"right","rt":82.600000023842,"correct":true,"confidence":80},{"trial_n":50,"n_dots":3.65,"target":"left","response":"left","rt":634.19999992847,"correct":true,"confidence":10},{"trial_n":51,"n_dots":3.55,"target":"left","response":"right","rt":681.70000004768,"correct":false,"confidence":0},{"trial_n":52,"n_dots":3.65,"target":"left","response":"left","rt":213.79999995232,"correct":true,"confidence":30},{"trial_n":53,"n_dots":3.65,"target":"right","response":"right","rt":290,"correct":true,"confidence":0},{"trial_n":54,"n_dots":3.55,"target":"right","response":"right","rt":188.89999997616,"correct":true,"confidence":30},{"trial_n":55,"n_dots":3.55,"target":"right","response":"right","rt":861.70000004768,"correct":true,"confidence":0},{"trial_n":56,"n_dots":3.45,"target":"left","response":"right","rt":298.39999997616,"correct":false,"confidence":0},{"trial_n":57,"n_dots":3.55,"target":"left","response":"left","rt":339.5,"correct":true,"confidence":0},{"trial_n":58,"n_dots":3.55,"target":"right","response":"right","rt":499.19999992847,"correct":true,"confidence":50},{"trial_n":59,"n_dots":3.45,"target":"left","response":"left","rt":950.59999990463,"correct":true,"confidence":20},{"trial_n":60,"n_dots":3.45,"target":"right","response":"right","rt":574.39999997616,"correct":true,"confidence":30},{"trial_n":61,"n_dots":3.35,"target":"right","response":"right","rt":48.800000071526,"correct":true,"confidence":20},{"trial_n":62,"n_dots":3.35,"target":"left","response":"left","rt":477.19999992847,"correct":true,"confidence":40},{"trial_n":63,"n_dots":3.25,"target":"right","response":"right","rt":699.70000004768,"correct":true,"confidence":30},{"trial_n":64,"n_dots":3.25,"target":"right","response":"right","rt":173.5,"correct":true,"confidence":30},{"trial_n":65,"n_dots":3.15,"target":"left","response":"right","rt":862.69999992847,"correct":false,"confidence":20},{"trial_n":66,"n_dots":3.25,"target":"right","response":"right","rt":150.09999990463,"correct":true,"confidence":10},{"trial_n":67,"n_dots":3.25,"target":"left","response":"left","rt":590.89999997616,"correct":true,"confidence":20},{"trial_n":68,"n_dots":3.15,"target":"right","response":"right","rt":768.70000004768,"correct":true,"confidence":30},{"trial_n":69,"n_dots":3.15,"target":"right","response":"right","rt":612.29999995232,"correct":true,"confidence":0},{"trial_n":70,"n_dots":3.05,"target":"left","response":"left","rt":381.79999995232,"correct":true,"confidence":0},{"trial_n":71,"n_dots":3.05,"target":"right","response":"right","rt":680.29999995232,"correct":true,"confidence":30},{"trial_n":72,"n_dots":2.95,"target":"left","response":"left","rt":307.29999995232,"correct":true,"confidence":40},{"trial_n":73,"n_dots":2.95,"target":"right","response":"left","rt":547.40000009537,"correct":false,"confidence":30},{"trial_n":74,"n_dots":3.05,"target":"left","response":"left","rt":771.10000002384,"correct":true,"confidence":0},{"trial_n":75,"n_dots":3.05,"target":"left","response":"left","rt":577.10000002384,"correct":true,"confidence":20},{"trial_n":76,"n_dots":2.95,"target":"right","response":"right","rt":30.399999976158,"correct":true,"confidence":30},{"trial_n":77,"n_dots":2.95,"target":"left","response":"left","rt":482.5,"correct":true,"confidence":0},{"trial_n":78,"n_dots":2.85,"target":"left","response":"left","rt":148.89999997616,"correct":true,"confidence":10},{"trial_n":79,"n_dots":2.85,"target":"left","response":"left","rt":638.39999997616,"correct":true,"confidence":50},{"trial_n":80,"n_dots":2.75,"target":"right","response":"right","rt":253.5,"correct":true,"confidence":80},{"trial_n":81,"n_dots":2.75,"target":"left","response":"left","rt":260.10000002384,"correct":true,"confidence":40},{"trial_n":82,"n_dots":2.65,"target":"left","response":"right","rt":104.20000004768,"correct":false,"confidence":0},{"trial_n":83,"n_dots":2.75,"target":"left","response":"right","rt":2147.6999999285,"correct":false,"confidence":0},{"trial_n":84,"n_dots":2.85,"target":"right","response":"right","rt":6005,"correct":true,"confidence":30},{"trial_n":85,"n_dots":2.85,"target":"right","response":"right","rt":494.60000002384,"correct":true,"confidence":40},{"trial_n":86,"n_dots":2.75,"target":"right","response":"right","rt":1363.5,"correct":true,"confidence":50},{"trial_n":87,"n_dots":2.75,"target":"right","response":"right","rt":1509.2000000477,"correct":true,"confidence":20},{"trial_n":88,"n_dots":2.65,"target":"right","response":"right","rt":388.39999997616,"correct":true,"confidence":70},{"trial_n":89,"n_dots":2.65,"target":"left","response":"right","rt":283.79999995232,"correct":false,"confidence":60},{"trial_n":90,"n_dots":2.75,"target":"left","response":"left","rt":1542.3000000715,"correct":true,"confidence":60},{"trial_n":91,"n_dots":2.75,"target":"right","response":"left","rt":1966.3000000715,"correct":false,"confidence":70},{"trial_n":92,"n_dots":2.85,"target":"right","response":"right","rt":1068.1000000238,"correct":true,"confidence":70},{"trial_n":93,"n_dots":2.85,"target":"left","response":"left","rt":1733.7999999523,"correct":true,"confidence":40},{"trial_n":94,"n_dots":2.75,"target":"right","response":"right","rt":510.5,"correct":true,"confidence":70},{"trial_n":95,"n_dots":2.75,"target":"right","response":"left","rt":761.89999997616,"correct":false,"confidence":50},{"trial_n":96,"n_dots":2.85,"target":"left","response":"left","rt":358.10000002384,"correct":true,"confidence":50},{"trial_n":97,"n_dots":2.85,"target":"left","response":"right","rt":114.60000002384,"correct":false,"confidence":20},{"trial_n":98,"n_dots":2.95,"target":"left","response":"left","rt":151.20000004768,"correct":true,"confidence":90},{"trial_n":99,"n_dots":2.95,"target":"right","response":"right","rt":877.20000004768,"correct":true,"confidence":0},{"trial_n":100,"n_dots":2.85,"target":"right","response":"right","rt":145.80000007153,"correct":true,"confidence":40},{"trial_n":101,"n_dots":2.85,"target":"right","response":"left","rt":154.40000009537,"correct":false,"confidence":40},{"trial_n":102,"n_dots":2.95,"target":"left","response":"right","rt":413.30000007153,"correct":false,"confidence":80},{"trial_n":103,"n_dots":3.05,"target":"right","response":"right","rt":1582,"correct":true,"confidence":50},{"trial_n":104,"n_dots":3.05,"target":"left","response":"left","rt":649,"correct":true,"confidence":50},{"trial_n":105,"n_dots":2.95,"target":"left","response":"left","rt":622.69999992847,"correct":true,"confidence":70},{"trial_n":106,"n_dots":2.95,"target":"left","response":"right","rt":810.20000004768,"correct":false,"confidence":30},{"trial_n":107,"n_dots":3.05,"target":"left","response":"right","rt":1693.3000000715,"correct":false,"confidence":0},{"trial_n":108,"n_dots":3.15,"target":"left","response":"left","rt":585.20000004768,"correct":true,"confidence":60},{"trial_n":109,"n_dots":3.15,"target":"right","response":"right","rt":138.39999997616,"correct":true,"confidence":60},{"trial_n":110,"n_dots":3.05,"target":"left","response":"right","rt":187.69999992847,"correct":false,"confidence":20},{"trial_n":111,"n_dots":3.15,"target":"right","response":"left","rt":1199,"correct":false,"confidence":10},{"trial_n":112,"n_dots":3.25,"target":"left","response":"right","rt":345.70000004768,"correct":false,"confidence":30},{"trial_n":113,"n_dots":3.35,"target":"right","response":"right","rt":776.89999997616,"correct":true,"confidence":30},{"trial_n":114,"n_dots":3.35,"target":"left","response":"right","rt":1165.1999999285,"correct":false,"confidence":30},{"trial_n":115,"n_dots":3.45,"target":"right","response":"left","rt":3335.1999999285,"correct":false,"confidence":40},{"trial_n":116,"n_dots":3.55,"target":"left","response":"right","rt":518.60000002384,"correct":false,"confidence":50},{"trial_n":117,"n_dots":3.65,"target":"left","response":"left","rt":780.60000002384,"correct":true,"confidence":40},{"trial_n":118,"n_dots":3.65,"target":"right","response":"right","rt":79.900000095367,"correct":true,"confidence":50},{"trial_n":119,"n_dots":3.55,"target":"left","response":"left","rt":1228.3000000715,"correct":true,"confidence":30},{"trial_n":120,"n_dots":3.55,"target":"right","response":"right","rt":128.39999997616,"correct":true,"confidence":60},{"trial_n":121,"n_dots":3.45,"target":"right","response":"right","rt":71.700000047684,"correct":true,"confidence":70},{"trial_n":122,"n_dots":3.45,"target":"right","response":"right","rt":22.300000071526,"correct":true,"confidence":70},{"trial_n":123,"n_dots":3.35,"target":"right","response":"right","rt":1034.8999999762,"correct":true,"confidence":40},{"trial_n":124,"n_dots":3.35,"target":"right","response":"right","rt":424,"correct":true,"confidence":50},{"trial_n":125,"n_dots":3.25,"target":"left","response":"left","rt":367.39999997616,"correct":true,"confidence":90},{"trial_n":126,"n_dots":3.25,"target":"left","response":"left","rt":448.69999992847,"correct":true,"confidence":80},{"trial_n":127,"n_dots":3.15,"target":"left","response":"left","rt":746.10000002384,"correct":true,"confidence":70},{"trial_n":128,"n_dots":3.15,"target":"right","response":"right","rt":72.700000047684,"correct":true,"confidence":50},{"trial_n":129,"n_dots":3.05,"target":"left","response":"right","rt":26.399999976158,"correct":false,"confidence":70},{"trial_n":130,"n_dots":3.15,"target":"right","response":"right","rt":449.30000007153,"correct":true,"confidence":80},{"trial_n":131,"n_dots":3.15,"target":"left","response":"left","rt":926.90000009537,"correct":true,"confidence":20},{"trial_n":132,"n_dots":3.05,"target":"left","response":"left","rt":856.39999997616,"correct":true,"confidence":30},{"trial_n":133,"n_dots":3.05,"target":"right","response":"right","rt":264.80000007153,"correct":true,"confidence":30},{"trial_n":134,"n_dots":2.95,"target":"right","response":"right","rt":196.89999997616,"correct":true,"confidence":30},{"trial_n":135,"n_dots":2.95,"target":"right","response":"left","rt":1071.6000000238,"correct":false,"confidence":50},{"trial_n":136,"n_dots":3.05,"target":"right","response":"right","rt":793.10000002384,"correct":true,"confidence":50},{"trial_n":137,"n_dots":3.05,"target":"right","response":"right","rt":583,"correct":true,"confidence":50},{"trial_n":138,"n_dots":2.95,"target":"left","response":"left","rt":898.89999997616,"correct":true,"confidence":50},{"trial_n":139,"n_dots":2.95,"target":"right","response":"right","rt":1101.1999999285,"correct":true,"confidence":20},{"trial_n":140,"n_dots":2.85,"target":"right","response":"right","rt":134,"correct":true,"confidence":20},{"trial_n":141,"n_dots":2.85,"target":"right","response":"right","rt":192.29999995232,"correct":true,"confidence":70},{"trial_n":142,"n_dots":2.75,"target":"left","response":"left","rt":365.30000007153,"correct":true,"confidence":60},{"trial_n":143,"n_dots":2.75,"target":"left","response":"left","rt":796.79999995232,"correct":true,"confidence":60},{"trial_n":144,"n_dots":2.65,"target":"left","response":"right","rt":917.5,"correct":false,"confidence":10},{"trial_n":145,"n_dots":2.75,"target":"right","response":"right","rt":328.69999992847,"correct":true,"confidence":90},{"trial_n":146,"n_dots":2.75,"target":"left","response":"left","rt":1156.5,"correct":true,"confidence":30},{"trial_n":147,"n_dots":2.65,"target":"left","response":"left","rt":852.19999992847,"correct":true,"confidence":60},{"trial_n":148,"n_dots":2.65,"target":"right","response":"right","rt":69.299999952316,"correct":true,"confidence":40},{"trial_n":149,"n_dots":2.55,"target":"right","response":"right","rt":427.20000004768,"correct":true,"confidence":80},{"trial_n":150,"n_dots":2.55,"target":"left","response":"left","rt":773.60000002384,"correct":true,"confidence":80},{"trial_n":151,"n_dots":2.45,"target":"left","response":"right","rt":999.89999997616,"correct":false,"confidence":50},{"trial_n":152,"n_dots":2.55,"target":"right","response":"left","rt":315,"correct":false,"confidence":50},{"trial_n":153,"n_dots":2.65,"target":"right","response":"left","rt":738.30000007153,"correct":false,"confidence":90},{"trial_n":154,"n_dots":2.75,"target":"left","response":"left","rt":158,"correct":true,"confidence":80},{"trial_n":155,"n_dots":2.75,"target":"right","response":"left","rt":1483.5,"correct":false,"confidence":70},{"trial_n":156,"n_dots":2.85,"target":"left","response":"right","rt":631.89999997616,"correct":false,"confidence":80},{"trial_n":157,"n_dots":2.95,"target":"left","response":"left","rt":587.60000002384,"correct":true,"confidence":20},{"trial_n":158,"n_dots":2.95,"target":"left","response":"left","rt":2689,"correct":true,"confidence":0},{"trial_n":159,"n_dots":2.85,"target":"left","response":"right","rt":884.39999997616,"correct":false,"confidence":40},{"trial_n":160,"n_dots":2.95,"target":"right","response":"right","rt":729.60000002384,"correct":true,"confidence":40},{"trial_n":161,"n_dots":2.95,"target":"left","response":"right","rt":473.30000007153,"correct":false,"confidence":40},{"trial_n":162,"n_dots":3.05,"target":"right","response":"right","rt":335.5,"correct":true,"confidence":40},{"trial_n":163,"n_dots":3.05,"target":"left","response":"right","rt":1639.6000000238,"correct":false,"confidence":40},{"trial_n":164,"n_dots":3.15,"target":"right","response":"right","rt":158.79999995232,"correct":true,"confidence":80},{"trial_n":165,"n_dots":3.15,"target":"right","response":"right","rt":114.09999990463,"correct":true,"confidence":60},{"trial_n":166,"n_dots":3.05,"target":"left","response":"right","rt":162.79999995232,"correct":false,"confidence":90},{"trial_n":167,"n_dots":3.15,"target":"left","response":"left","rt":1423.1000000238,"correct":true,"confidence":20},{"trial_n":168,"n_dots":3.15,"target":"right","response":"right","rt":143.70000004768,"correct":true,"confidence":90},{"trial_n":169,"n_dots":3.05,"target":"left","response":"right","rt":340,"correct":false,"confidence":90},{"trial_n":170,"n_dots":3.15,"target":"left","response":"right","rt":166,"correct":false,"confidence":90},{"trial_n":171,"n_dots":3.25,"target":"left","response":"left","rt":796.5,"correct":true,"confidence":80},{"trial_n":172,"n_dots":3.25,"target":"left","response":"left","rt":632.10000002384,"correct":true,"confidence":80},{"trial_n":173,"n_dots":3.15,"target":"left","response":"left","rt":220.39999997616,"correct":true,"confidence":90},{"trial_n":174,"n_dots":3.15,"target":"right","response":"left","rt":252.19999992847,"correct":false,"confidence":90},{"trial_n":175,"n_dots":3.25,"target":"left","response":"left","rt":825.30000007153,"correct":true,"confidence":70},{"trial_n":176,"n_dots":3.25,"target":"left","response":"left","rt":3573.1000000238,"correct":true,"confidence":70},{"trial_n":177,"n_dots":3.15,"target":"right","response":"right","rt":415.70000004768,"correct":true,"confidence":60},{"trial_n":178,"n_dots":3.15,"target":"right","response":"left","rt":504.70000004768,"correct":false,"confidence":10},{"trial_n":179,"n_dots":3.25,"target":"left","response":"left","rt":882.39999997616,"correct":true,"confidence":80},{"trial_n":180,"n_dots":3.25,"target":"right","response":"right","rt":272.30000007153,"correct":true,"confidence":70},{"trial_n":181,"n_dots":3.15,"target":"right","response":"right","rt":1258.6000000238,"correct":true,"confidence":80},{"trial_n":182,"n_dots":3.15,"target":"left","response":"left","rt":662.29999995232,"correct":true,"confidence":80},{"trial_n":183,"n_dots":3.05,"target":"right","response":"left","rt":848,"correct":false,"confidence":90},{"trial_n":184,"n_dots":3.15,"target":"left","response":"left","rt":786.10000002384,"correct":true,"confidence":60},{"trial_n":185,"n_dots":3.15,"target":"left","response":"left","rt":264.10000002384,"correct":true,"confidence":90},{"trial_n":186,"n_dots":3.05,"target":"left","response":"left","rt":449.69999992847,"correct":true,"confidence":70},{"trial_n":187,"n_dots":3.05,"target":"right","response":"left","rt":1548.1000000238,"correct":false,"confidence":60},{"trial_n":188,"n_dots":3.15,"target":"left","response":"left","rt":576.39999997616,"correct":true,"confidence":80},{"trial_n":189,"n_dots":3.15,"target":"right","response":"right","rt":492.69999992847,"correct":true,"confidence":90},{"trial_n":190,"n_dots":3.05,"target":"right","response":"left","rt":435.20000004768,"correct":false,"confidence":90},{"trial_n":191,"n_dots":3.15,"target":"left","response":"right","rt":1020.5,"correct":false,"confidence":80},{"trial_n":192,"n_dots":3.25,"target":"right","response":"left","rt":420.10000002384,"correct":false,"confidence":80},{"trial_n":193,"n_dots":3.35,"target":"right","response":"right","rt":487.70000004768,"correct":true,"confidence":80},{"trial_n":194,"n_dots":3.35,"target":"right","response":"right","rt":415.69999992847,"correct":true,"confidence":80}]