[{"trial_n":1,"n_dots":4.25,"target":"left","response":"left","rt":9128,"correct":true,"confidence":-1},{"trial_n":2,"n_dots":4.25,"target":"right","response":"right","rt":1427,"correct":true,"confidence":-1},{"trial_n":3,"n_dots":3.85,"target":"right","response":"left","rt":518.99999999999,"correct":false,"confidence":-1},{"trial_n":4,"n_dots":4.25,"target":"right","response":"right","rt":2008,"correct":true,"confidence":-1},{"trial_n":5,"n_dots":4.25,"target":"left","response":"left","rt":606,"correct":true,"confidence":-1},{"trial_n":6,"n_dots":3.85,"target":"right","response":"right","rt":194,"correct":true,"confidence":-1},{"trial_n":7,"n_dots":3.85,"target":"left","response":"left","rt":377.00000000001,"correct":true,"confidence":-1},{"trial_n":8,"n_dots":3.65,"target":"left","response":"left","rt":377,"correct":true,"confidence":-1},{"trial_n":9,"n_dots":3.65,"target":"left","response":"left","rt":83,"correct":true,"confidence":-1},{"trial_n":10,"n_dots":3.45,"target":"right","response":"right","rt":137,"correct":true,"confidence":-1},{"trial_n":11,"n_dots":3.45,"target":"left","response":"left","rt":69,"correct":true,"confidence":-1},{"trial_n":12,"n_dots":3.25,"target":"right","response":"left","rt":3283,"correct":false,"confidence":-1},{"trial_n":13,"n_dots":3.35,"target":"right","response":"right","rt":161.00000000003,"correct":true,"confidence":-1},{"trial_n":14,"n_dots":3.35,"target":"right","response":"right","rt":2502,"correct":true,"confidence":-1},{"trial_n":15,"n_dots":3.25,"target":"left","response":"right","rt":223.99999999997,"correct":false,"confidence":-1},{"trial_n":16,"n_dots":3.35,"target":"left","response":"left","rt":24,"correct":true,"confidence":-1},{"trial_n":17,"n_dots":3.35,"target":"right","response":"right","rt":568.99999999997,"correct":true,"confidence":-1},{"trial_n":18,"n_dots":3.25,"target":"left","response":"left","rt":495.00000000003,"correct":true,"confidence":-1},{"trial_n":19,"n_dots":3.25,"target":"right","response":"right","rt":423,"correct":true,"confidence":-1},{"trial_n":20,"n_dots":3.15,"target":"right","response":"right","rt":417,"correct":true,"confidence":-1},{"trial_n":21,"n_dots":3.15,"target":"left","response":"right","rt":319,"correct":false,"confidence":-1},{"trial_n":22,"n_dots":3.25,"target":"right","response":"left","rt":225,"correct":false,"confidence":-1},{"trial_n":23,"n_dots":3.35,"target":"right","response":"right","rt":263,"correct":true,"confidence":-1},{"trial_n":24,"n_dots":3.35,"target":"right","response":"right","rt":21.999999999971,"correct":true,"confidence":-1},{"trial_n":25,"n_dots":3.25,"target":"right","response":"right","rt":164,"correct":true,"confidence":-1},{"trial_n":26,"n_dots":3.25,"target":"right","response":"left","rt":374,"correct":false,"confidence":-1},{"trial_n":27,"n_dots":3.35,"target":"right","response":"right","rt":1279,"correct":true,"confidence":2},{"trial_n":28,"n_dots":3.35,"target":"right","response":"left","rt":402,"correct":false,"confidence":1},{"trial_n":29,"n_dots":3.45,"target":"right","response":"right","rt":786,"correct":true,"confidence":4},{"trial_n":30,"n_dots":3.45,"target":"right","response":"right","rt":888,"correct":true,"confidence":5},{"trial_n":31,"n_dots":3.35,"target":"left","response":"right","rt":1139,"correct":false,"confidence":2},{"trial_n":32,"n_dots":3.45,"target":"left","response":"left","rt":1345,"correct":true,"confidence":2},{"trial_n":33,"n_dots":3.45,"target":"right","response":"right","rt":697,"correct":true,"confidence":4},{"trial_n":34,"n_dots":3.35,"target":"right","response":"right","rt":1693,"correct":true,"confidence":4},{"trial_n":35,"n_dots":3.35,"target":"left","response":"right","rt":1708,"correct":false,"confidence":4},{"trial_n":36,"n_dots":3.45,"target":"right","response":"right","rt":1089,"correct":true,"confidence":4},{"trial_n":37,"n_dots":3.45,"target":"left","response":"left","rt":1134,"correct":true,"confidence":2},{"trial_n":38,"n_dots":3.35,"target":"right","response":"right","rt":638,"correct":true,"confidence":4},{"trial_n":39,"n_dots":3.35,"target":"right","response":"right","rt":560.99999999997,"correct":true,"confidence":2},{"trial_n":40,"n_dots":3.25,"target":"left","response":"right","rt":680,"correct":false,"confidence":3},{"trial_n":41,"n_dots":3.35,"target":"left","response":"right","rt":478.00000000006,"correct":false,"confidence":1},{"trial_n":42,"n_dots":3.45,"target":"right","response":"right","rt":414,"correct":true,"confidence":1},{"trial_n":43,"n_dots":3.45,"target":"right","response":"right","rt":1021,"correct":true,"confidence":5},{"trial_n":44,"n_dots":3.35,"target":"left","response":"left","rt":812,"correct":true,"confidence":2},{"trial_n":45,"n_dots":3.35,"target":"left","response":"left","rt":872,"correct":true,"confidence":3},{"trial_n":46,"n_dots":3.25,"target":"left","response":"right","rt":662,"correct":false,"confidence":4},{"trial_n":47,"n_dots":3.35,"target":"right","response":"left","rt":1203,"correct":false,"confidence":3},{"trial_n":48,"n_dots":3.45,"target":"right","response":"right","rt":655.99999999994,"correct":true,"confidence":4},{"trial_n":49,"n_dots":3.45,"target":"left","response":"left","rt":1216,"correct":true,"confidence":3},{"trial_n":50,"n_dots":3.35,"target":"right","response":"right","rt":500,"correct":true,"confidence":4},{"trial_n":51,"n_dots":3.35,"target":"left","response":"left","rt":936,"correct":true,"confidence":3},{"trial_n":52,"n_dots":3.25,"target":"right","response":"right","rt":924,"correct":true,"confidence":4},{"trial_n":53,"n_dots":3.25,"target":"left","response":"right","rt":1341,"correct":false,"confidence":4},{"trial_n":54,"n_dots":3.35,"target":"left","response":"left","rt":787.00000000006,"correct":true,"confidence":3},{"trial_n":55,"n_dots":3.35,"target":"left","response":"left","rt":2311,"correct":true,"confidence":4},{"trial_n":56,"n_dots":3.25,"target":"right","response":"right","rt":1132,"correct":true,"confidence":4},{"trial_n":57,"n_dots":3.25,"target":"right","response":"right","rt":759,"correct":true,"confidence":4},{"trial_n":58,"n_dots":3.15,"target":"left","response":"left","rt":741,"correct":true,"confidence":2},{"trial_n":59,"n_dots":3.15,"target":"right","response":"left","rt":977,"correct":false,"confidence":3},{"trial_n":60,"n_dots":3.25,"target":"left","response":"right","rt":643,"correct":false,"confidence":6},{"trial_n":61,"n_dots":3.35,"target":"left","response":"left","rt":178,"correct":true,"confidence":4},{"trial_n":62,"n_dots":3.35,"target":"left","response":"right","rt":194,"correct":false,"confidence":1},{"trial_n":63,"n_dots":3.45,"target":"right","response":"left","rt":294.99999999994,"correct":false,"confidence":3},{"trial_n":64,"n_dots":3.55,"target":"left","response":"right","rt":1406,"correct":false,"confidence":4},{"trial_n":65,"n_dots":3.65,"target":"left","response":"left","rt":1055,"correct":true,"confidence":4},{"trial_n":66,"n_dots":3.65,"target":"left","response":"right","rt":633.00000000006,"correct":false,"confidence":1},{"trial_n":67,"n_dots":3.75,"target":"left","response":"left","rt":448,"correct":true,"confidence":1},{"trial_n":68,"n_dots":3.75,"target":"right","response":"right","rt":1475.0000000001,"correct":true,"confidence":1},{"trial_n":69,"n_dots":3.65,"target":"right","response":"right","rt":264,"correct":true,"confidence":1},{"trial_n":70,"n_dots":3.65,"target":"right","response":"left","rt":1825.9999999999,"correct":false,"confidence":1},{"trial_n":71,"n_dots":3.75,"target":"right","response":"left","rt":480,"correct":false,"confidence":3},{"trial_n":72,"n_dots":3.85,"target":"left","response":"right","rt":485.00000000006,"correct":false,"confidence":3},{"trial_n":73,"n_dots":3.95,"target":"right","response":"right","rt":1084.0000000001,"correct":true,"confidence":5},{"trial_n":74,"n_dots":3.95,"target":"left","response":"left","rt":379,"correct":true,"confidence":4},{"trial_n":75,"n_dots":3.85,"target":"right","response":"right","rt":1097,"correct":true,"confidence":3},{"trial_n":76,"n_dots":3.85,"target":"right","response":"left","rt":739.00000000006,"correct":false,"confidence":4},{"trial_n":77,"n_dots":3.95,"target":"right","response":"left","rt":519,"correct":false,"confidence":3},{"trial_n":78,"n_dots":4.05,"target":"right","response":"right","rt":184,"correct":true,"confidence":3},{"trial_n":79,"n_dots":4.05,"target":"right","response":"right","rt":802.99999999994,"correct":true,"confidence":3},{"trial_n":80,"n_dots":3.95,"target":"left","response":"right","rt":563.00000000006,"correct":false,"confidence":3},{"trial_n":81,"n_dots":4.05,"target":"right","response":"left","rt":877,"correct":false,"confidence":3},{"trial_n":82,"n_dots":4.15,"target":"right","response":"right","rt":109,"correct":true,"confidence":3},{"trial_n":83,"n_dots":4.15,"target":"right","response":"right","rt":812,"correct":true,"confidence":2},{"trial_n":84,"n_dots":4.05,"target":"left","response":"right","rt":1774,"correct":false,"confidence":2},{"trial_n":85,"n_dots":4.15,"target":"right","response":"right","rt":1135.0000000001,"correct":true,"confidence":4},{"trial_n":86,"n_dots":4.15,"target":"right","response":"right","rt":404.99999999994,"correct":true,"confidence":4},{"trial_n":87,"n_dots":4.05,"target":"left","response":"left","rt":530.00000000006,"correct":true,"confidence":4},{"trial_n":88,"n_dots":4.05,"target":"left","response":"right","rt":357.00000000006,"correct":false,"confidence":4},{"trial_n":89,"n_dots":4.15,"target":"right","response":"right","rt":450,"correct":true,"confidence":2},{"trial_n":90,"n_dots":4.15,"target":"right","response":"right","rt":935,"correct":true,"confidence":5},{"trial_n":91,"n_dots":4.05,"target":"left","response":"right","rt":1631.0000000001,"correct":false,"confidence":4},{"trial_n":92,"n_dots":4.15,"target":"left","response":"right","rt":614,"correct":false,"confidence":4},{"trial_n":93,"n_dots":4.25,"target":"left","response":"right","rt":1675.9999999999,"correct":false,"confidence":4},{"trial_n":94,"n_dots":4.35,"target":"left","response":"right","rt":586,"correct":false,"confidence":4},{"trial_n":95,"n_dots":4.45,"target":"left","response":"right","rt":35.000000000058,"correct":false,"confidence":4},{"trial_n":96,"n_dots":4.55,"target":"left","response":"right","rt":15,"correct":false,"confidence":4},{"trial_n":97,"n_dots":4.65,"target":"right","response":"right","rt":110,"correct":true,"confidence":4},{"trial_n":98,"n_dots":4.65,"target":"left","response":"right","rt":282,"correct":false,"confidence":3},{"trial_n":99,"n_dots":4.75,"target":"left","response":"left","rt":1128.0000000001,"correct":true,"confidence":3},{"trial_n":100,"n_dots":4.75,"target":"right","response":"right","rt":857,"correct":true,"confidence":1},{"trial_n":101,"n_dots":4.65,"target":"right","response":"right","rt":1038,"correct":true,"confidence":4},{"trial_n":102,"n_dots":4.65,"target":"left","response":"left","rt":979.00000000006,"correct":true,"confidence":3},{"trial_n":103,"n_dots":4.55,"target":"left","response":"left","rt":4540,"correct":true,"confidence":3},{"trial_n":104,"n_dots":4.55,"target":"right","response":"right","rt":647,"correct":true,"confidence":3},{"trial_n":105,"n_dots":4.45,"target":"right","response":"right","rt":554,"correct":true,"confidence":4},{"trial_n":106,"n_dots":4.45,"target":"right","response":"right","rt":860,"correct":true,"confidence":4},{"trial_n":107,"n_dots":4.35,"target":"right","response":"right","rt":605,"correct":true,"confidence":4},{"trial_n":108,"n_dots":4.35,"target":"right","response":"right","rt":451,"correct":true,"confidence":4},{"trial_n":109,"n_dots":4.25,"target":"right","response":"right","rt":364.00000000006,"correct":true,"confidence":4},{"trial_n":110,"n_dots":4.25,"target":"right","response":"right","rt":364,"correct":true,"confidence":4},{"trial_n":111,"n_dots":4.15,"target":"left","response":"left","rt":572,"correct":true,"confidence":3},{"trial_n":112,"n_dots":4.15,"target":"right","response":"right","rt":277.00000000012,"correct":true,"confidence":1},{"trial_n":113,"n_dots":4.05,"target":"right","response":"right","rt":94.000000000116,"correct":true,"confidence":4},{"trial_n":114,"n_dots":4.05,"target":"left","response":"left","rt":818,"correct":true,"confidence":4},{"trial_n":115,"n_dots":3.95,"target":"left","response":"left","rt":2232,"correct":true,"confidence":2},{"trial_n":116,"n_dots":3.95,"target":"right","response":"right","rt":420,"correct":true,"confidence":4},{"trial_n":117,"n_dots":3.85,"target":"left","response":"left","rt":563.99999999988,"correct":true,"confidence":4},{"trial_n":118,"n_dots":3.85,"target":"left","response":"left","rt":543,"correct":true,"confidence":4},{"trial_n":119,"n_dots":3.75,"target":"left","response":"left","rt":2852,"correct":true,"confidence":3},{"trial_n":120,"n_dots":3.75,"target":"right","response":"left","rt":1535,"correct":false,"confidence":4},{"trial_n":121,"n_dots":3.85,"target":"left","response":"left","rt":863,"correct":true,"confidence":3},{"trial_n":122,"n_dots":3.85,"target":"left","response":"right","rt":536,"correct":false,"confidence":1},{"trial_n":123,"n_dots":3.95,"target":"left","response":"left","rt":544,"correct":true,"confidence":4},{"trial_n":124,"n_dots":3.95,"target":"right","response":"right","rt":410.00000000012,"correct":true,"confidence":4},{"trial_n":125,"n_dots":3.85,"target":"right","response":"right","rt":347,"correct":true,"confidence":3},{"trial_n":126,"n_dots":3.85,"target":"right","response":"right","rt":334,"correct":true,"confidence":3},{"trial_n":127,"n_dots":3.75,"target":"left","response":"left","rt":586,"correct":true,"confidence":3},{"trial_n":128,"n_dots":3.75,"target":"left","response":"right","rt":447,"correct":false,"confidence":3},{"trial_n":129,"n_dots":3.85,"target":"left","response":"left","rt":89.000000000116,"correct":true,"confidence":1},{"trial_n":130,"n_dots":3.85,"target":"left","response":"left","rt":538,"correct":true,"confidence":3},{"trial_n":131,"n_dots":3.75,"target":"right","response":"right","rt":387,"correct":true,"confidence":4},{"trial_n":132,"n_dots":3.75,"target":"right","response":"right","rt":139,"correct":true,"confidence":1},{"trial_n":133,"n_dots":3.65,"target":"right","response":"right","rt":937.00000000012,"correct":true,"confidence":1},{"trial_n":134,"n_dots":3.65,"target":"left","response":"left","rt":1326,"correct":true,"confidence":4},{"trial_n":135,"n_dots":3.55,"target":"left","response":"left","rt":1400,"correct":true,"confidence":4},{"trial_n":136,"n_dots":3.55,"target":"right","response":"left","rt":1170,"correct":false,"confidence":3},{"trial_n":137,"n_dots":3.65,"target":"right","response":"left","rt":932,"correct":false,"confidence":3},{"trial_n":138,"n_dots":3.75,"target":"left","response":"left","rt":696,"correct":true,"confidence":4},{"trial_n":139,"n_dots":3.75,"target":"left","response":"left","rt":388,"correct":true,"confidence":4},{"trial_n":140,"n_dots":3.65,"target":"left","response":"left","rt":1019,"correct":true,"confidence":4},{"trial_n":141,"n_dots":3.65,"target":"right","response":"left","rt":574.99999999988,"correct":false,"confidence":5},{"trial_n":142,"n_dots":3.75,"target":"left","response":"left","rt":699,"correct":true,"confidence":2},{"trial_n":143,"n_dots":3.75,"target":"left","response":"left","rt":576,"correct":true,"confidence":3},{"trial_n":144,"n_dots":3.65,"target":"left","response":"right","rt":646,"correct":false,"confidence":3},{"trial_n":145,"n_dots":3.75,"target":"right","response":"right","rt":489.99999999988,"correct":true,"confidence":6},{"trial_n":146,"n_dots":3.75,"target":"left","response":"left","rt":918,"correct":true,"confidence":4},{"trial_n":147,"n_dots":3.65,"target":"left","response":"left","rt":1300,"correct":true,"confidence":4},{"trial_n":148,"n_dots":3.65,"target":"right","response":"left","rt":311,"correct":false,"confidence":1},{"trial_n":149,"n_dots":3.75,"target":"right","response":"right","rt":607,"correct":true,"confidence":5},{"trial_n":150,"n_dots":3.75,"target":"right","response":"right","rt":392.00000000012,"correct":true,"confidence":4},{"trial_n":151,"n_dots":3.65,"target":"left","response":"left","rt":1062.9999999999,"correct":true,"confidence":3},{"trial_n":152,"n_dots":3.65,"target":"left","response":"left","rt":515,"correct":true,"confidence":4},{"trial_n":153,"n_dots":3.55,"target":"left","response":"left","rt":315,"correct":true,"confidence":3},{"trial_n":154,"n_dots":3.55,"target":"left","response":"left","rt":428,"correct":true,"confidence":3},{"trial_n":155,"n_dots":3.45,"target":"right","response":"right","rt":952,"correct":true,"confidence":4},{"trial_n":156,"n_dots":3.45,"target":"left","response":"right","rt":649,"correct":false,"confidence":4},{"trial_n":157,"n_dots":3.55,"target":"right","response":"left","rt":318,"correct":false,"confidence":5},{"trial_n":158,"n_dots":3.65,"target":"left","response":"left","rt":585,"correct":true,"confidence":3},{"trial_n":159,"n_dots":3.65,"target":"right","response":"left","rt":720,"correct":false,"confidence":3},{"trial_n":160,"n_dots":3.75,"target":"left","response":"left","rt":519,"correct":true,"confidence":3},{"trial_n":161,"n_dots":3.75,"target":"left","response":"left","rt":382,"correct":true,"confidence":5},{"trial_n":162,"n_dots":3.65,"target":"left","response":"left","rt":211.99999999988,"correct":true,"confidence":3},{"trial_n":163,"n_dots":3.65,"target":"left","response":"left","rt":1006,"correct":true,"confidence":3},{"trial_n":164,"n_dots":3.55,"target":"right","response":"right","rt":388,"correct":true,"confidence":3},{"trial_n":165,"n_dots":3.55,"target":"left","response":"left","rt":108,"correct":true,"confidence":3},{"trial_n":166,"n_dots":3.45,"target":"left","response":"left","rt":742,"correct":true,"confidence":3},{"trial_n":167,"n_dots":3.45,"target":"left","response":"left","rt":423.99999999988,"correct":true,"confidence":3},{"trial_n":168,"n_dots":3.35,"target":"left","response":"left","rt":148,"correct":true,"confidence":3},{"trial_n":169,"n_dots":3.35,"target":"right","response":"right","rt":433,"correct":true,"confidence":3},{"trial_n":170,"n_dots":3.25,"target":"right","response":"right","rt":744,"correct":true,"confidence":6},{"trial_n":171,"n_dots":3.25,"target":"right","response":"right","rt":979,"correct":true,"confidence":5},{"trial_n":172,"n_dots":3.15,"target":"left","response":"left","rt":121,"correct":true,"confidence":3},{"trial_n":173,"n_dots":3.15,"target":"left","response":"left","rt":534,"correct":true,"confidence":3},{"trial_n":174,"n_dots":3.05,"target":"right","response":"right","rt":759.00000000012,"correct":true,"confidence":1},{"trial_n":175,"n_dots":3.05,"target":"left","response":"right","rt":557,"correct":false,"confidence":3},{"trial_n":176,"n_dots":3.15,"target":"left","response":"left","rt":55.000000000116,"correct":true,"confidence":3},{"trial_n":177,"n_dots":3.15,"target":"right","response":"right","rt":156.00000000012,"correct":true,"confidence":3},{"trial_n":178,"n_dots":3.05,"target":"left","response":"left","rt":103.99999999988,"correct":true,"confidence":3},{"trial_n":179,"n_dots":3.05,"target":"right","response":"right","rt":590,"correct":true,"confidence":3},{"trial_n":180,"n_dots":2.95,"target":"right","response":"left","rt":470.00000000012,"correct":false,"confidence":3},{"trial_n":181,"n_dots":3.05,"target":"left","response":"right","rt":533,"correct":false,"confidence":3},{"trial_n":182,"n_dots":3.15,"target":"right","response":"left","rt":424,"correct":false,"confidence":3},{"trial_n":183,"n_dots":3.25,"target":"left","response":"left","rt":350,"correct":true,"confidence":3},{"trial_n":184,"n_dots":3.25,"target":"right","response":"left","rt":44,"correct":false,"confidence":3},{"trial_n":185,"n_dots":3.35,"target":"left","response":"left","rt":616,"correct":true,"confidence":2},{"trial_n":186,"n_dots":3.35,"target":"right","response":"right","rt":813,"correct":true,"confidence":3},{"trial_n":187,"n_dots":3.25,"target":"right","response":"left","rt":465,"correct":false,"confidence":2},{"trial_n":188,"n_dots":3.35,"target":"right","response":"left","rt":540,"correct":false,"confidence":2},{"trial_n":189,"n_dots":3.45,"target":"left","response":"left","rt":441,"correct":true,"confidence":4},{"trial_n":190,"n_dots":3.45,"target":"left","response":"left","rt":1052,"correct":true,"confidence":3},{"trial_n":191,"n_dots":3.35,"target":"left","response":"left","rt":169,"correct":true,"confidence":3},{"trial_n":192,"n_dots":3.35,"target":"left","response":"left","rt":117,"correct":true,"confidence":3},{"trial_n":193,"n_dots":3.25,"target":"right","response":"left","rt":326.00000000012,"correct":false,"confidence":3},{"trial_n":194,"n_dots":3.35,"target":"right","response":"right","rt":249,"correct":true,"confidence":4}]