[{"trial_n":1,"n_dots":4.25,"target":"right","response":"right","rt":9500.5,"correct":true,"confidence":-1},{"trial_n":2,"n_dots":4.25,"target":"right","response":"right","rt":569.79999995232,"correct":true,"confidence":-1},{"trial_n":3,"n_dots":3.85,"target":"left","response":"right","rt":703.5,"correct":false,"confidence":-1},{"trial_n":4,"n_dots":4.25,"target":"left","response":"left","rt":549,"correct":true,"confidence":-1},{"trial_n":5,"n_dots":4.25,"target":"right","response":"left","rt":337.10000002384,"correct":false,"confidence":-1},{"trial_n":6,"n_dots":4.65,"target":"right","response":"right","rt":404.89999997616,"correct":true,"confidence":-1},{"trial_n":7,"n_dots":4.65,"target":"right","response":"right","rt":1045.5,"correct":true,"confidence":-1},{"trial_n":8,"n_dots":4.45,"target":"left","response":"left","rt":299.89999997616,"correct":true,"confidence":-1},{"trial_n":9,"n_dots":4.45,"target":"right","response":"right","rt":689,"correct":true,"confidence":-1},{"trial_n":10,"n_dots":4.25,"target":"right","response":"right","rt":857.70000004768,"correct":true,"confidence":-1},{"trial_n":11,"n_dots":4.25,"target":"right","response":"left","rt":515.5,"correct":false,"confidence":-1},{"trial_n":12,"n_dots":4.45,"target":"right","response":"right","rt":261.39999997616,"correct":true,"confidence":-1},{"trial_n":13,"n_dots":4.45,"target":"left","response":"left","rt":266.60000002384,"correct":true,"confidence":-1},{"trial_n":14,"n_dots":4.35,"target":"left","response":"left","rt":274.79999995232,"correct":true,"confidence":-1},{"trial_n":15,"n_dots":4.35,"target":"left","response":"left","rt":567.69999992847,"correct":true,"confidence":-1},{"trial_n":16,"n_dots":4.25,"target":"left","response":"left","rt":293.5,"correct":true,"confidence":-1},{"trial_n":17,"n_dots":4.25,"target":"right","response":"left","rt":262.5,"correct":false,"confidence":-1},{"trial_n":18,"n_dots":4.35,"target":"left","response":"left","rt":459.90000009537,"correct":true,"confidence":-1},{"trial_n":19,"n_dots":4.35,"target":"right","response":"right","rt":514.39999997616,"correct":true,"confidence":-1},{"trial_n":20,"n_dots":4.25,"target":"left","response":"left","rt":436.19999992847,"correct":true,"confidence":-1},{"trial_n":21,"n_dots":4.25,"target":"right","response":"right","rt":985.39999997616,"correct":true,"confidence":-1},{"trial_n":22,"n_dots":4.15,"target":"right","response":"right","rt":339.29999995232,"correct":true,"confidence":-1},{"trial_n":23,"n_dots":4.15,"target":"left","response":"left","rt":462.20000004768,"correct":true,"confidence":-1},{"trial_n":24,"n_dots":4.05,"target":"right","response":"right","rt":345.60000002384,"correct":true,"confidence":-1},{"trial_n":25,"n_dots":4.05,"target":"left","response":"left","rt":507.20000004768,"correct":true,"confidence":-1},{"trial_n":26,"n_dots":3.95,"target":"right","response":"right","rt":393.10000002384,"correct":true,"confidence":-1},{"trial_n":27,"n_dots":3.95,"target":"left","response":"left","rt":381,"correct":true,"confidence":4},{"trial_n":28,"n_dots":3.85,"target":"left","response":"left","rt":515.39999997616,"correct":true,"confidence":6},{"trial_n":29,"n_dots":3.85,"target":"right","response":"left","rt":814.80000007153,"correct":false,"confidence":2},{"trial_n":30,"n_dots":3.95,"target":"left","response":"left","rt":395.60000002384,"correct":true,"confidence":4},{"trial_n":31,"n_dots":3.95,"target":"right","response":"left","rt":316.10000002384,"correct":false,"confidence":1},{"trial_n":32,"n_dots":4.05,"target":"right","response":"left","rt":368.89999997616,"correct":false,"confidence":1},{"trial_n":33,"n_dots":4.15,"target":"left","response":"left","rt":311.69999992847,"correct":true,"confidence":3},{"trial_n":34,"n_dots":4.15,"target":"left","response":"left","rt":259.80000007153,"correct":true,"confidence":1},{"trial_n":35,"n_dots":4.05,"target":"right","response":"right","rt":531.5,"correct":true,"confidence":3},{"trial_n":36,"n_dots":4.05,"target":"right","response":"right","rt":807.19999992847,"correct":true,"confidence":1},{"trial_n":37,"n_dots":3.95,"target":"left","response":"left","rt":298.09999990463,"correct":true,"confidence":4},{"trial_n":38,"n_dots":3.95,"target":"left","response":"left","rt":304.60000002384,"correct":true,"confidence":1},{"trial_n":39,"n_dots":3.85,"target":"right","response":"left","rt":1047.1999999285,"correct":false,"confidence":1},{"trial_n":40,"n_dots":3.95,"target":"right","response":"left","rt":316.29999995232,"correct":false,"confidence":2},{"trial_n":41,"n_dots":4.05,"target":"right","response":"right","rt":354.19999992847,"correct":true,"confidence":5},{"trial_n":42,"n_dots":4.05,"target":"left","response":"left","rt":344.20000004768,"correct":true,"confidence":4},{"trial_n":43,"n_dots":3.95,"target":"right","response":"right","rt":379.09999990463,"correct":true,"confidence":4},{"trial_n":44,"n_dots":3.95,"target":"right","response":"right","rt":849.59999990463,"correct":true,"confidence":1},{"trial_n":45,"n_dots":3.85,"target":"right","response":"right","rt":398.89999997616,"correct":true,"confidence":4},{"trial_n":46,"n_dots":3.85,"target":"left","response":"left","rt":372.20000004768,"correct":true,"confidence":6},{"trial_n":47,"n_dots":3.75,"target":"right","response":"left","rt":685.59999990463,"correct":false,"confidence":1},{"trial_n":48,"n_dots":3.85,"target":"left","response":"left","rt":1467.6999999285,"correct":true,"confidence":1},{"trial_n":49,"n_dots":3.85,"target":"left","response":"left","rt":548.10000002384,"correct":true,"confidence":3},{"trial_n":50,"n_dots":3.75,"target":"right","response":"right","rt":799.30000007153,"correct":true,"confidence":1},{"trial_n":51,"n_dots":3.75,"target":"left","response":"right","rt":679.89999997616,"correct":false,"confidence":1},{"trial_n":52,"n_dots":3.85,"target":"left","response":"left","rt":533.29999995232,"correct":true,"confidence":1},{"trial_n":53,"n_dots":3.85,"target":"left","response":"left","rt":418.89999997616,"correct":true,"confidence":1},{"trial_n":54,"n_dots":3.75,"target":"left","response":"left","rt":303.10000002384,"correct":true,"confidence":5},{"trial_n":55,"n_dots":3.75,"target":"right","response":"right","rt":1019.3999999762,"correct":true,"confidence":1},{"trial_n":56,"n_dots":3.65,"target":"right","response":"right","rt":569.29999995232,"correct":true,"confidence":1},{"trial_n":57,"n_dots":3.65,"target":"left","response":"left","rt":347.40000009537,"correct":true,"confidence":3},{"trial_n":58,"n_dots":3.55,"target":"right","response":"right","rt":612.5,"correct":true,"confidence":1},{"trial_n":59,"n_dots":3.55,"target":"left","response":"right","rt":3045.7999999523,"correct":false,"confidence":1},{"trial_n":60,"n_dots":3.65,"target":"right","response":"right","rt":402.5,"correct":true,"confidence":2},{"trial_n":61,"n_dots":3.65,"target":"right","response":"left","rt":1368,"correct":false,"confidence":1},{"trial_n":62,"n_dots":3.75,"target":"right","response":"right","rt":609.39999997616,"correct":true,"confidence":1},{"trial_n":63,"n_dots":3.75,"target":"right","response":"right","rt":811.60000002384,"correct":true,"confidence":4},{"trial_n":64,"n_dots":3.65,"target":"right","response":"right","rt":429.89999997616,"correct":true,"confidence":1},{"trial_n":65,"n_dots":3.65,"target":"right","response":"left","rt":784,"correct":false,"confidence":1},{"trial_n":66,"n_dots":3.75,"target":"left","response":"right","rt":874.60000002384,"correct":false,"confidence":1},{"trial_n":67,"n_dots":3.85,"target":"left","response":"left","rt":570.39999997616,"correct":true,"confidence":2},{"trial_n":68,"n_dots":3.85,"target":"right","response":"right","rt":336,"correct":true,"confidence":6},{"trial_n":69,"n_dots":3.75,"target":"right","response":"right","rt":298.79999995232,"correct":true,"confidence":6},{"trial_n":70,"n_dots":3.75,"target":"right","response":"right","rt":361,"correct":true,"confidence":5},{"trial_n":71,"n_dots":3.65,"target":"right","response":"right","rt":387.70000004768,"correct":true,"confidence":4},{"trial_n":72,"n_dots":3.65,"target":"left","response":"right","rt":338.39999997616,"correct":false,"confidence":2},{"trial_n":73,"n_dots":3.75,"target":"left","response":"left","rt":523.89999997616,"correct":true,"confidence":2},{"trial_n":74,"n_dots":3.75,"target":"left","response":"left","rt":1394.5,"correct":true,"confidence":4},{"trial_n":75,"n_dots":3.65,"target":"left","response":"left","rt":1422.5,"correct":true,"confidence":1},{"trial_n":76,"n_dots":3.65,"target":"left","response":"left","rt":1169.1000000238,"correct":true,"confidence":3},{"trial_n":77,"n_dots":3.55,"target":"right","response":"left","rt":2055.2000000477,"correct":false,"confidence":1},{"trial_n":78,"n_dots":3.65,"target":"right","response":"right","rt":1292.6000000238,"correct":true,"confidence":4},{"trial_n":79,"n_dots":3.65,"target":"right","response":"right","rt":1056.3999999762,"correct":true,"confidence":2},{"trial_n":80,"n_dots":3.55,"target":"right","response":"right","rt":1671.0999999046,"correct":true,"confidence":2},{"trial_n":81,"n_dots":3.55,"target":"left","response":"left","rt":1912.2999999523,"correct":true,"confidence":6},{"trial_n":82,"n_dots":3.45,"target":"right","response":"left","rt":1059.7999999523,"correct":false,"confidence":2},{"trial_n":83,"n_dots":3.55,"target":"left","response":"left","rt":1010.5,"correct":true,"confidence":6},{"trial_n":84,"n_dots":3.55,"target":"right","response":"right","rt":1302,"correct":true,"confidence":1},{"trial_n":85,"n_dots":3.45,"target":"left","response":"left","rt":978.29999995232,"correct":true,"confidence":3},{"trial_n":86,"n_dots":3.45,"target":"right","response":"right","rt":1309,"correct":true,"confidence":2},{"trial_n":87,"n_dots":3.35,"target":"right","response":"right","rt":2335.1000000238,"correct":true,"confidence":1},{"trial_n":88,"n_dots":3.35,"target":"right","response":"right","rt":2002.1999999285,"correct":true,"confidence":1},{"trial_n":89,"n_dots":3.25,"target":"left","response":"left","rt":2257.3999999762,"correct":true,"confidence":1},{"trial_n":90,"n_dots":3.25,"target":"right","response":"right","rt":1084.1000000238,"correct":true,"confidence":2},{"trial_n":91,"n_dots":3.15,"target":"left","response":"left","rt":1485.7000000477,"correct":true,"confidence":1},{"trial_n":92,"n_dots":3.15,"target":"left","response":"left","rt":283.19999992847,"correct":true,"confidence":6},{"trial_n":93,"n_dots":3.05,"target":"left","response":"left","rt":302.5,"correct":true,"confidence":6},{"trial_n":94,"n_dots":3.05,"target":"left","response":"left","rt":326.60000002384,"correct":true,"confidence":3},{"trial_n":95,"n_dots":2.95,"target":"left","response":"right","rt":614.30000007153,"correct":false,"confidence":3},{"trial_n":96,"n_dots":3.05,"target":"left","response":"left","rt":810.79999995232,"correct":true,"confidence":2},{"trial_n":97,"n_dots":3.05,"target":"left","response":"right","rt":877,"correct":false,"confidence":4},{"trial_n":98,"n_dots":3.15,"target":"left","response":"right","rt":655.20000004768,"correct":false,"confidence":5},{"trial_n":99,"n_dots":3.25,"target":"left","response":"right","rt":348.60000002384,"correct":false,"confidence":6},{"trial_n":100,"n_dots":3.35,"target":"left","response":"right","rt":469.39999997616,"correct":false,"confidence":6},{"trial_n":101,"n_dots":3.45,"target":"right","response":"right","rt":637,"correct":true,"confidence":6},{"trial_n":102,"n_dots":3.45,"target":"right","response":"right","rt":383.19999992847,"correct":true,"confidence":2},{"trial_n":103,"n_dots":3.35,"target":"right","response":"right","rt":587.29999995232,"correct":true,"confidence":2},{"trial_n":104,"n_dots":3.35,"target":"right","response":"right","rt":404.59999990463,"correct":true,"confidence":2},{"trial_n":105,"n_dots":3.25,"target":"right","response":"right","rt":1632.5,"correct":true,"confidence":1},{"trial_n":106,"n_dots":3.25,"target":"left","response":"left","rt":1087.2000000477,"correct":true,"confidence":1},{"trial_n":107,"n_dots":3.15,"target":"right","response":"right","rt":1002.8999999762,"correct":true,"confidence":3},{"trial_n":108,"n_dots":3.15,"target":"left","response":"right","rt":1068.7999999523,"correct":false,"confidence":1},{"trial_n":109,"n_dots":3.25,"target":"left","response":"left","rt":887.80000007153,"correct":true,"confidence":4},{"trial_n":110,"n_dots":3.25,"target":"left","response":"left","rt":337,"correct":true,"confidence":1},{"trial_n":111,"n_dots":3.15,"target":"left","response":"left","rt":868.10000002384,"correct":true,"confidence":1},{"trial_n":112,"n_dots":3.15,"target":"right","response":"right","rt":514,"correct":true,"confidence":6},{"trial_n":113,"n_dots":3.05,"target":"left","response":"left","rt":524,"correct":true,"confidence":5},{"trial_n":114,"n_dots":3.05,"target":"right","response":"right","rt":296,"correct":true,"confidence":5},{"trial_n":115,"n_dots":2.95,"target":"left","response":"left","rt":339.10000002384,"correct":true,"confidence":4},{"trial_n":116,"n_dots":2.95,"target":"right","response":"right","rt":313.79999995232,"correct":true,"confidence":5},{"trial_n":117,"n_dots":2.85,"target":"right","response":"right","rt":542.69999992847,"correct":true,"confidence":1},{"trial_n":118,"n_dots":2.85,"target":"left","response":"left","rt":341.39999997616,"correct":true,"confidence":1},{"trial_n":119,"n_dots":2.75,"target":"left","response":"left","rt":328.39999997616,"correct":true,"confidence":6},{"trial_n":120,"n_dots":2.75,"target":"right","response":"right","rt":313.60000002384,"correct":true,"confidence":5},{"trial_n":121,"n_dots":2.65,"target":"left","response":"left","rt":295.20000004768,"correct":true,"confidence":3},{"trial_n":122,"n_dots":2.65,"target":"right","response":"left","rt":719.39999997616,"correct":false,"confidence":1},{"trial_n":123,"n_dots":2.75,"target":"left","response":"left","rt":1063.7999999523,"correct":true,"confidence":1},{"trial_n":124,"n_dots":2.75,"target":"left","response":"left","rt":854.40000009537,"correct":true,"confidence":2},{"trial_n":125,"n_dots":2.65,"target":"left","response":"left","rt":938.39999997616,"correct":true,"confidence":1},{"trial_n":126,"n_dots":2.65,"target":"left","response":"right","rt":1389.4000000954,"correct":false,"confidence":1},{"trial_n":127,"n_dots":2.75,"target":"right","response":"left","rt":387,"correct":false,"confidence":5},{"trial_n":128,"n_dots":2.85,"target":"right","response":"right","rt":622.30000007153,"correct":true,"confidence":2},{"trial_n":129,"n_dots":2.85,"target":"left","response":"left","rt":320.70000004768,"correct":true,"confidence":3},{"trial_n":130,"n_dots":2.75,"target":"right","response":"left","rt":430.70000004768,"correct":false,"confidence":3},{"trial_n":131,"n_dots":2.85,"target":"right","response":"right","rt":1211,"correct":true,"confidence":2},{"trial_n":132,"n_dots":2.85,"target":"right","response":"left","rt":259.19999992847,"correct":false,"confidence":5},{"trial_n":133,"n_dots":2.95,"target":"left","response":"left","rt":952.80000007153,"correct":true,"confidence":1},{"trial_n":134,"n_dots":2.95,"target":"left","response":"left","rt":874.79999995232,"correct":true,"confidence":1},{"trial_n":135,"n_dots":2.85,"target":"left","response":"left","rt":7300.6999999285,"correct":true,"confidence":3},{"trial_n":136,"n_dots":2.85,"target":"left","response":"left","rt":2742.3999999762,"correct":true,"confidence":2},{"trial_n":137,"n_dots":2.75,"target":"left","response":"left","rt":1439.0999999046,"correct":true,"confidence":3},{"trial_n":138,"n_dots":2.75,"target":"right","response":"left","rt":1447.2000000477,"correct":false,"confidence":2},{"trial_n":139,"n_dots":2.85,"target":"right","response":"left","rt":43605.5,"correct":false,"confidence":1},{"trial_n":140,"n_dots":2.95,"target":"right","response":"left","rt":585.69999992847,"correct":false,"confidence":1},{"trial_n":141,"n_dots":3.05,"target":"left","response":"right","rt":393.60000002384,"correct":false,"confidence":3},{"trial_n":142,"n_dots":3.15,"target":"left","response":"left","rt":219.29999995232,"correct":true,"confidence":1},{"trial_n":143,"n_dots":3.15,"target":"left","response":"left","rt":595.80000007153,"correct":true,"confidence":2},{"trial_n":144,"n_dots":3.05,"target":"right","response":"left","rt":459.89999997616,"correct":false,"confidence":4},{"trial_n":145,"n_dots":3.15,"target":"right","response":"right","rt":450.09999990463,"correct":true,"confidence":3},{"trial_n":146,"n_dots":3.15,"target":"right","response":"right","rt":368.10000002384,"correct":true,"confidence":5},{"trial_n":147,"n_dots":3.05,"target":"right","response":"right","rt":418.10000002384,"correct":true,"confidence":2},{"trial_n":148,"n_dots":3.05,"target":"right","response":"left","rt":366.5,"correct":false,"confidence":1},{"trial_n":149,"n_dots":3.15,"target":"left","response":"left","rt":471.30000007153,"correct":true,"confidence":1},{"trial_n":150,"n_dots":3.15,"target":"right","response":"right","rt":345.19999992847,"correct":true,"confidence":4},{"trial_n":151,"n_dots":3.05,"target":"left","response":"right","rt":290.79999995232,"correct":false,"confidence":2},{"trial_n":152,"n_dots":3.15,"target":"left","response":"left","rt":469.29999995232,"correct":true,"confidence":6},{"trial_n":153,"n_dots":3.15,"target":"left","response":"left","rt":303.90000009537,"correct":true,"confidence":6},{"trial_n":154,"n_dots":3.05,"target":"left","response":"right","rt":207.80000007153,"correct":false,"confidence":3},{"trial_n":155,"n_dots":3.15,"target":"right","response":"right","rt":347,"correct":true,"confidence":5},{"trial_n":156,"n_dots":3.15,"target":"left","response":"left","rt":304,"correct":true,"confidence":6},{"trial_n":157,"n_dots":3.05,"target":"right","response":"right","rt":255.79999995232,"correct":true,"confidence":4},{"trial_n":158,"n_dots":3.05,"target":"left","response":"left","rt":323.5,"correct":true,"confidence":2},{"trial_n":159,"n_dots":2.95,"target":"right","response":"right","rt":285.60000002384,"correct":true,"confidence":2},{"trial_n":160,"n_dots":2.95,"target":"right","response":"left","rt":374.20000004768,"correct":false,"confidence":5},{"trial_n":161,"n_dots":3.05,"target":"left","response":"left","rt":37.799999952316,"correct":true,"confidence":4},{"trial_n":162,"n_dots":3.05,"target":"left","response":"left","rt":787,"correct":true,"confidence":3},{"trial_n":163,"n_dots":2.95,"target":"right","response":"left","rt":309.79999995232,"correct":false,"confidence":5},{"trial_n":164,"n_dots":3.05,"target":"right","response":"left","rt":109.60000002384,"correct":false,"confidence":5},{"trial_n":165,"n_dots":3.15,"target":"left","response":"left","rt":449.19999992847,"correct":true,"confidence":1},{"trial_n":166,"n_dots":3.15,"target":"right","response":"right","rt":317.59999990463,"correct":true,"confidence":4},{"trial_n":167,"n_dots":3.05,"target":"right","response":"left","rt":346.30000007153,"correct":false,"confidence":6},{"trial_n":168,"n_dots":3.15,"target":"left","response":"left","rt":270.10000002384,"correct":true,"confidence":2},{"trial_n":169,"n_dots":3.15,"target":"right","response":"left","rt":209.5,"correct":false,"confidence":3},{"trial_n":170,"n_dots":3.25,"target":"right","response":"left","rt":385.29999995232,"correct":false,"confidence":1},{"trial_n":171,"n_dots":3.35,"target":"right","response":"right","rt":907.30000007153,"correct":true,"confidence":1},{"trial_n":172,"n_dots":3.35,"target":"right","response":"right","rt":156.79999995232,"correct":true,"confidence":5},{"trial_n":173,"n_dots":3.25,"target":"left","response":"left","rt":274.69999992847,"correct":true,"confidence":2},{"trial_n":174,"n_dots":3.25,"target":"right","response":"right","rt":636.5,"correct":true,"confidence":1},{"trial_n":175,"n_dots":3.15,"target":"right","response":"left","rt":315.20000004768,"correct":false,"confidence":2},{"trial_n":176,"n_dots":3.25,"target":"left","response":"left","rt":102.89999997616,"correct":true,"confidence":5},{"trial_n":177,"n_dots":3.25,"target":"left","response":"left","rt":295.70000004768,"correct":true,"confidence":3},{"trial_n":178,"n_dots":3.15,"target":"left","response":"right","rt":6983.2000000477,"correct":false,"confidence":1},{"trial_n":179,"n_dots":3.25,"target":"left","response":"left","rt":511.10000002384,"correct":true,"confidence":6},{"trial_n":180,"n_dots":3.25,"target":"left","response":"left","rt":262.39999997616,"correct":true,"confidence":6},{"trial_n":181,"n_dots":3.15,"target":"left","response":"left","rt":258.5,"correct":true,"confidence":5},{"trial_n":182,"n_dots":3.15,"target":"right","response":"left","rt":322,"correct":false,"confidence":4},{"trial_n":183,"n_dots":3.25,"target":"left","response":"left","rt":230.70000004768,"correct":true,"confidence":4},{"trial_n":184,"n_dots":3.25,"target":"left","response":"left","rt":291.59999990463,"correct":true,"confidence":1},{"trial_n":185,"n_dots":3.15,"target":"right","response":"right","rt":769.29999995232,"correct":true,"confidence":1},{"trial_n":186,"n_dots":3.15,"target":"left","response":"left","rt":344.29999995232,"correct":true,"confidence":3},{"trial_n":187,"n_dots":3.05,"target":"left","response":"right","rt":79684.099999905,"correct":false,"confidence":1},{"trial_n":188,"n_dots":3.15,"target":"right","response":"left","rt":381.60000002384,"correct":false,"confidence":3},{"trial_n":189,"n_dots":3.25,"target":"right","response":"right","rt":96.400000095367,"correct":true,"confidence":1},{"trial_n":190,"n_dots":3.25,"target":"right","response":"left","rt":248.39999997616,"correct":false,"confidence":6},{"trial_n":191,"n_dots":3.35,"target":"left","response":"left","rt":90.799999952316,"correct":true,"confidence":4},{"trial_n":192,"n_dots":3.35,"target":"left","response":"left","rt":390.39999997616,"correct":true,"confidence":1},{"trial_n":193,"n_dots":3.25,"target":"left","response":"left","rt":615,"correct":true,"confidence":2},{"trial_n":194,"n_dots":3.25,"target":"right","response":"left","rt":589.29999995232,"correct":false,"confidence":2}]