[{"trial_n":1,"n_dots":4.25,"target":"right","response":"right","rt":3238.4000000004,"correct":true,"confidence":-1},{"trial_n":2,"n_dots":4.25,"target":"right","response":"right","rt":1139.2000000011,"correct":true,"confidence":-1},{"trial_n":3,"n_dots":3.85,"target":"right","response":"left","rt":2118.8000000007,"correct":false,"confidence":-1},{"trial_n":4,"n_dots":4.25,"target":"right","response":"right","rt":549.40000000037,"correct":true,"confidence":-1},{"trial_n":5,"n_dots":4.25,"target":"left","response":"left","rt":548.69999999925,"correct":true,"confidence":-1},{"trial_n":6,"n_dots":3.85,"target":"left","response":"right","rt":374.19999999925,"correct":false,"confidence":-1},{"trial_n":7,"n_dots":4.25,"target":"left","response":"left","rt":365.30000000075,"correct":true,"confidence":-1},{"trial_n":8,"n_dots":4.25,"target":"right","response":"left","rt":697.09999999963,"correct":false,"confidence":-1},{"trial_n":9,"n_dots":4.45,"target":"left","response":"left","rt":282.09999999963,"correct":true,"confidence":-1},{"trial_n":10,"n_dots":4.45,"target":"left","response":"left","rt":367.90000000037,"correct":true,"confidence":-1},{"trial_n":11,"n_dots":4.25,"target":"right","response":"right","rt":468.89999999851,"correct":true,"confidence":-1},{"trial_n":12,"n_dots":4.25,"target":"left","response":"left","rt":1180.9000000004,"correct":true,"confidence":-1},{"trial_n":13,"n_dots":4.15,"target":"left","response":"left","rt":700.80000000075,"correct":true,"confidence":-1},{"trial_n":14,"n_dots":4.15,"target":"left","response":"left","rt":582.69999999925,"correct":true,"confidence":-1},{"trial_n":15,"n_dots":4.05,"target":"right","response":"right","rt":990.90000000037,"correct":true,"confidence":-1},{"trial_n":16,"n_dots":4.05,"target":"left","response":"right","rt":741.79999999888,"correct":false,"confidence":-1},{"trial_n":17,"n_dots":4.15,"target":"left","response":"left","rt":509.59999999963,"correct":true,"confidence":-1},{"trial_n":18,"n_dots":4.15,"target":"right","response":"right","rt":474.90000000037,"correct":true,"confidence":-1},{"trial_n":19,"n_dots":4.05,"target":"right","response":"right","rt":596.09999999963,"correct":true,"confidence":-1},{"trial_n":20,"n_dots":4.05,"target":"right","response":"right","rt":378.70000000112,"correct":true,"confidence":-1},{"trial_n":21,"n_dots":3.95,"target":"right","response":"right","rt":409.09999999963,"correct":true,"confidence":-1},{"trial_n":22,"n_dots":3.95,"target":"right","response":"right","rt":319.40000000037,"correct":true,"confidence":-1},{"trial_n":23,"n_dots":3.85,"target":"left","response":"right","rt":560.59999999963,"correct":false,"confidence":-1},{"trial_n":24,"n_dots":3.95,"target":"left","response":"right","rt":541.09999999963,"correct":false,"confidence":-1},{"trial_n":25,"n_dots":4.05,"target":"right","response":"right","rt":455.19999999925,"correct":true,"confidence":-1},{"trial_n":26,"n_dots":4.05,"target":"right","response":"right","rt":560,"correct":true,"confidence":-1},{"trial_n":27,"n_dots":3.95,"target":"left","response":"left","rt":358.69999999925,"correct":true,"confidence":6},{"trial_n":28,"n_dots":3.95,"target":"right","response":"left","rt":928.09999999963,"correct":false,"confidence":5},{"trial_n":29,"n_dots":4.05,"target":"left","response":"left","rt":477.90000000037,"correct":true,"confidence":6},{"trial_n":30,"n_dots":4.05,"target":"left","response":"left","rt":437.5,"correct":true,"confidence":6},{"trial_n":31,"n_dots":3.95,"target":"left","response":"left","rt":735.80000000075,"correct":true,"confidence":6},{"trial_n":32,"n_dots":3.95,"target":"left","response":"left","rt":553.70000000112,"correct":true,"confidence":6},{"trial_n":33,"n_dots":3.85,"target":"left","response":"left","rt":443.79999999888,"correct":true,"confidence":5},{"trial_n":34,"n_dots":3.85,"target":"right","response":"right","rt":1525.9000000004,"correct":true,"confidence":4},{"trial_n":35,"n_dots":3.75,"target":"right","response":"left","rt":444.60000000149,"correct":false,"confidence":6},{"trial_n":36,"n_dots":3.85,"target":"right","response":"right","rt":1121.5,"correct":true,"confidence":4},{"trial_n":37,"n_dots":3.85,"target":"right","response":"left","rt":823.79999999888,"correct":false,"confidence":5},{"trial_n":38,"n_dots":3.95,"target":"left","response":"left","rt":514.59999999963,"correct":true,"confidence":6},{"trial_n":39,"n_dots":3.95,"target":"left","response":"left","rt":309.69999999925,"correct":true,"confidence":6},{"trial_n":40,"n_dots":3.85,"target":"right","response":"right","rt":767,"correct":true,"confidence":5},{"trial_n":41,"n_dots":3.85,"target":"left","response":"left","rt":966.09999999963,"correct":true,"confidence":6},{"trial_n":42,"n_dots":3.75,"target":"right","response":"right","rt":369,"correct":true,"confidence":6},{"trial_n":43,"n_dots":3.75,"target":"right","response":"left","rt":483.5,"correct":false,"confidence":6},{"trial_n":44,"n_dots":3.85,"target":"left","response":"left","rt":361.59999999963,"correct":true,"confidence":6},{"trial_n":45,"n_dots":3.85,"target":"right","response":"right","rt":278.19999999925,"correct":true,"confidence":6},{"trial_n":46,"n_dots":3.75,"target":"left","response":"left","rt":859.80000000075,"correct":true,"confidence":5},{"trial_n":47,"n_dots":3.75,"target":"left","response":"left","rt":2169.8000000007,"correct":true,"confidence":6},{"trial_n":48,"n_dots":3.65,"target":"left","response":"left","rt":690.69999999925,"correct":true,"confidence":4},{"trial_n":49,"n_dots":3.65,"target":"left","response":"right","rt":1150.1999999993,"correct":false,"confidence":4},{"trial_n":50,"n_dots":3.75,"target":"right","response":"right","rt":647.90000000037,"correct":true,"confidence":4},{"trial_n":51,"n_dots":3.75,"target":"left","response":"left","rt":566.59999999963,"correct":true,"confidence":4},{"trial_n":52,"n_dots":3.65,"target":"right","response":"right","rt":370.59999999963,"correct":true,"confidence":4},{"trial_n":53,"n_dots":3.65,"target":"right","response":"right","rt":282.29999999888,"correct":true,"confidence":4},{"trial_n":54,"n_dots":3.55,"target":"left","response":"right","rt":261.20000000112,"correct":false,"confidence":3},{"trial_n":55,"n_dots":3.65,"target":"left","response":"left","rt":355.5,"correct":true,"confidence":3},{"trial_n":56,"n_dots":3.65,"target":"left","response":"left","rt":314.60000000149,"correct":true,"confidence":5},{"trial_n":57,"n_dots":3.55,"target":"left","response":"left","rt":409.09999999963,"correct":true,"confidence":4},{"trial_n":58,"n_dots":3.55,"target":"right","response":"right","rt":503,"correct":true,"confidence":4},{"trial_n":59,"n_dots":3.45,"target":"left","response":"right","rt":419.09999999963,"correct":false,"confidence":4},{"trial_n":60,"n_dots":3.55,"target":"left","response":"left","rt":996,"correct":true,"confidence":3},{"trial_n":61,"n_dots":3.55,"target":"left","response":"left","rt":428.5,"correct":true,"confidence":3},{"trial_n":62,"n_dots":3.45,"target":"left","response":"left","rt":672.40000000037,"correct":true,"confidence":3},{"trial_n":63,"n_dots":3.45,"target":"right","response":"right","rt":658,"correct":true,"confidence":3},{"trial_n":64,"n_dots":3.35,"target":"left","response":"left","rt":546.59999999963,"correct":true,"confidence":3},{"trial_n":65,"n_dots":3.35,"target":"left","response":"left","rt":1305.1999999993,"correct":true,"confidence":3},{"trial_n":66,"n_dots":3.25,"target":"left","response":"left","rt":412.59999999963,"correct":true,"confidence":3},{"trial_n":67,"n_dots":3.25,"target":"right","response":"left","rt":1333.5,"correct":false,"confidence":3},{"trial_n":68,"n_dots":3.35,"target":"left","response":"left","rt":331.30000000075,"correct":true,"confidence":3},{"trial_n":69,"n_dots":3.35,"target":"left","response":"left","rt":443.5,"correct":true,"confidence":5},{"trial_n":70,"n_dots":3.25,"target":"left","response":"left","rt":1111.4000000004,"correct":true,"confidence":4},{"trial_n":71,"n_dots":3.25,"target":"left","response":"left","rt":2077.2000000011,"correct":true,"confidence":3},{"trial_n":72,"n_dots":3.15,"target":"left","response":"right","rt":394.69999999925,"correct":false,"confidence":3},{"trial_n":73,"n_dots":3.25,"target":"left","response":"right","rt":372.40000000037,"correct":false,"confidence":3},{"trial_n":74,"n_dots":3.35,"target":"right","response":"right","rt":296.20000000112,"correct":true,"confidence":4},{"trial_n":75,"n_dots":3.35,"target":"right","response":"right","rt":358.90000000037,"correct":true,"confidence":4},{"trial_n":76,"n_dots":3.25,"target":"left","response":"left","rt":901.29999999888,"correct":true,"confidence":3},{"trial_n":77,"n_dots":3.25,"target":"left","response":"right","rt":275.20000000112,"correct":false,"confidence":3},{"trial_n":78,"n_dots":3.35,"target":"right","response":"right","rt":409.39999999851,"correct":true,"confidence":3},{"trial_n":79,"n_dots":3.35,"target":"left","response":"left","rt":1559.5999999996,"correct":true,"confidence":3},{"trial_n":80,"n_dots":3.25,"target":"right","response":"right","rt":369.20000000112,"correct":true,"confidence":3},{"trial_n":81,"n_dots":3.25,"target":"left","response":"right","rt":306.09999999963,"correct":false,"confidence":3},{"trial_n":82,"n_dots":3.35,"target":"right","response":"right","rt":512.40000000037,"correct":true,"confidence":3},{"trial_n":83,"n_dots":3.35,"target":"left","response":"left","rt":479.30000000075,"correct":true,"confidence":3},{"trial_n":84,"n_dots":3.25,"target":"right","response":"right","rt":339.20000000112,"correct":true,"confidence":1},{"trial_n":85,"n_dots":3.25,"target":"left","response":"left","rt":540.59999999963,"correct":true,"confidence":2},{"trial_n":86,"n_dots":3.15,"target":"left","response":"left","rt":56.400000000373,"correct":true,"confidence":4},{"trial_n":87,"n_dots":3.15,"target":"right","response":"right","rt":311.40000000037,"correct":true,"confidence":6},{"trial_n":88,"n_dots":3.05,"target":"left","response":"left","rt":343.40000000037,"correct":true,"confidence":5},{"trial_n":89,"n_dots":3.05,"target":"right","response":"right","rt":273,"correct":true,"confidence":6},{"trial_n":90,"n_dots":2.95,"target":"right","response":"right","rt":297,"correct":true,"confidence":6},{"trial_n":91,"n_dots":2.95,"target":"left","response":"right","rt":309.69999999925,"correct":false,"confidence":6},{"trial_n":92,"n_dots":3.05,"target":"right","response":"right","rt":333.30000000075,"correct":true,"confidence":4},{"trial_n":93,"n_dots":3.05,"target":"right","response":"right","rt":279.40000000037,"correct":true,"confidence":3},{"trial_n":94,"n_dots":2.95,"target":"right","response":"right","rt":1104,"correct":true,"confidence":3},{"trial_n":95,"n_dots":2.95,"target":"right","response":"right","rt":304.5,"correct":true,"confidence":3},{"trial_n":96,"n_dots":2.85,"target":"right","response":"left","rt":1215.0999999996,"correct":false,"confidence":3},{"trial_n":97,"n_dots":2.95,"target":"left","response":"left","rt":1024.0999999996,"correct":true,"confidence":3},{"trial_n":98,"n_dots":2.95,"target":"right","response":"right","rt":347.80000000075,"correct":true,"confidence":3},{"trial_n":99,"n_dots":2.85,"target":"right","response":"right","rt":468.40000000037,"correct":true,"confidence":3},{"trial_n":100,"n_dots":2.85,"target":"right","response":"left","rt":2267.2000000011,"correct":false,"confidence":3},{"trial_n":101,"n_dots":2.95,"target":"left","response":"left","rt":3122.6000000015,"correct":true,"confidence":3},{"trial_n":102,"n_dots":2.95,"target":"left","response":"left","rt":18661.9,"correct":true,"confidence":3},{"trial_n":103,"n_dots":2.85,"target":"left","response":"left","rt":854.30000000075,"correct":true,"confidence":2},{"trial_n":104,"n_dots":2.85,"target":"left","response":"right","rt":300.70000000112,"correct":false,"confidence":3},{"trial_n":105,"n_dots":2.95,"target":"left","response":"left","rt":601,"correct":true,"confidence":3},{"trial_n":106,"n_dots":2.95,"target":"left","response":"left","rt":775.59999999963,"correct":true,"confidence":3},{"trial_n":107,"n_dots":2.85,"target":"right","response":"right","rt":420.79999999888,"correct":true,"confidence":4},{"trial_n":108,"n_dots":2.85,"target":"left","response":"right","rt":247.20000000112,"correct":false,"confidence":4},{"trial_n":109,"n_dots":2.95,"target":"left","response":"right","rt":346.80000000075,"correct":false,"confidence":4},{"trial_n":110,"n_dots":3.05,"target":"right","response":"right","rt":361.39999999851,"correct":true,"confidence":4},{"trial_n":111,"n_dots":3.05,"target":"right","response":"left","rt":312.09999999963,"correct":false,"confidence":3},{"trial_n":112,"n_dots":3.15,"target":"right","response":"right","rt":274.90000000037,"correct":true,"confidence":3},{"trial_n":113,"n_dots":3.15,"target":"right","response":"left","rt":299.5,"correct":false,"confidence":3},{"trial_n":114,"n_dots":3.25,"target":"right","response":"right","rt":283.30000000075,"correct":true,"confidence":3},{"trial_n":115,"n_dots":3.25,"target":"left","response":"right","rt":279.79999999888,"correct":false,"confidence":3},{"trial_n":116,"n_dots":3.35,"target":"left","response":"left","rt":322.5,"correct":true,"confidence":4},{"trial_n":117,"n_dots":3.35,"target":"right","response":"right","rt":150.30000000075,"correct":true,"confidence":4},{"trial_n":118,"n_dots":3.25,"target":"right","response":"right","rt":302.79999999888,"correct":true,"confidence":4},{"trial_n":119,"n_dots":3.25,"target":"left","response":"right","rt":428.90000000037,"correct":false,"confidence":3},{"trial_n":120,"n_dots":3.35,"target":"left","response":"left","rt":512.59999999963,"correct":true,"confidence":3},{"trial_n":121,"n_dots":3.35,"target":"right","response":"right","rt":333.30000000075,"correct":true,"confidence":4},{"trial_n":122,"n_dots":3.25,"target":"right","response":"right","rt":7.3000000007451,"correct":true,"confidence":4},{"trial_n":123,"n_dots":3.25,"target":"left","response":"left","rt":331.80000000075,"correct":true,"confidence":4},{"trial_n":124,"n_dots":3.15,"target":"right","response":"right","rt":373.30000000075,"correct":true,"confidence":4},{"trial_n":125,"n_dots":3.15,"target":"right","response":"right","rt":1027.5,"correct":true,"confidence":4},{"trial_n":126,"n_dots":3.05,"target":"right","response":"right","rt":264.79999999888,"correct":true,"confidence":4},{"trial_n":127,"n_dots":3.05,"target":"left","response":"right","rt":696,"correct":false,"confidence":4},{"trial_n":128,"n_dots":3.15,"target":"left","response":"right","rt":906.19999999925,"correct":false,"confidence":3},{"trial_n":129,"n_dots":3.25,"target":"right","response":"right","rt":319,"correct":true,"confidence":3},{"trial_n":130,"n_dots":3.25,"target":"right","response":"right","rt":523.79999999888,"correct":true,"confidence":3},{"trial_n":131,"n_dots":3.15,"target":"right","response":"left","rt":623.70000000112,"correct":false,"confidence":3},{"trial_n":132,"n_dots":3.25,"target":"left","response":"right","rt":385.59999999963,"correct":false,"confidence":3},{"trial_n":133,"n_dots":3.35,"target":"right","response":"right","rt":411.90000000037,"correct":true,"confidence":3},{"trial_n":134,"n_dots":3.35,"target":"right","response":"right","rt":795.5,"correct":true,"confidence":3},{"trial_n":135,"n_dots":3.25,"target":"left","response":"left","rt":693.30000000075,"correct":true,"confidence":3},{"trial_n":136,"n_dots":3.25,"target":"right","response":"right","rt":597.59999999963,"correct":true,"confidence":3},{"trial_n":137,"n_dots":3.15,"target":"right","response":"left","rt":1464.5999999996,"correct":false,"confidence":3},{"trial_n":138,"n_dots":3.25,"target":"right","response":"right","rt":1322.3000000007,"correct":true,"confidence":2},{"trial_n":139,"n_dots":3.25,"target":"right","response":"right","rt":506.90000000037,"correct":true,"confidence":3},{"trial_n":140,"n_dots":3.15,"target":"left","response":"left","rt":563.79999999888,"correct":true,"confidence":3},{"trial_n":141,"n_dots":3.15,"target":"left","response":"left","rt":650.80000000075,"correct":true,"confidence":2},{"trial_n":142,"n_dots":3.05,"target":"left","response":"right","rt":309.5,"correct":false,"confidence":3},{"trial_n":143,"n_dots":3.15,"target":"right","response":"right","rt":280,"correct":true,"confidence":3},{"trial_n":144,"n_dots":3.15,"target":"right","response":"right","rt":300.20000000112,"correct":true,"confidence":3},{"trial_n":145,"n_dots":3.05,"target":"right","response":"right","rt":359.80000000075,"correct":true,"confidence":4},{"trial_n":146,"n_dots":3.05,"target":"right","response":"right","rt":303.80000000075,"correct":true,"confidence":3},{"trial_n":147,"n_dots":2.95,"target":"right","response":"right","rt":1141.7999999989,"correct":true,"confidence":3},{"trial_n":148,"n_dots":2.95,"target":"left","response":"left","rt":462.90000000037,"correct":true,"confidence":2},{"trial_n":149,"n_dots":2.85,"target":"right","response":"left","rt":1003.5,"correct":false,"confidence":2},{"trial_n":150,"n_dots":2.95,"target":"left","response":"right","rt":1089.5999999996,"correct":false,"confidence":2},{"trial_n":151,"n_dots":3.05,"target":"left","response":"left","rt":617.5,"correct":true,"confidence":3},{"trial_n":152,"n_dots":3.05,"target":"left","response":"right","rt":559,"correct":false,"confidence":3},{"trial_n":153,"n_dots":3.15,"target":"right","response":"right","rt":222.59999999776,"correct":true,"confidence":5},{"trial_n":154,"n_dots":3.15,"target":"left","response":"left","rt":651.90000000224,"correct":true,"confidence":3},{"trial_n":155,"n_dots":3.05,"target":"right","response":"right","rt":304.40000000224,"correct":true,"confidence":5},{"trial_n":156,"n_dots":3.05,"target":"left","response":"right","rt":486.30000000075,"correct":false,"confidence":3},{"trial_n":157,"n_dots":3.15,"target":"left","response":"left","rt":380.10000000149,"correct":true,"confidence":3},{"trial_n":158,"n_dots":3.15,"target":"left","response":"left","rt":398,"correct":true,"confidence":3},{"trial_n":159,"n_dots":3.05,"target":"right","response":"right","rt":869.5,"correct":true,"confidence":3},{"trial_n":160,"n_dots":3.05,"target":"left","response":"left","rt":374,"correct":true,"confidence":3},{"trial_n":161,"n_dots":2.95,"target":"left","response":"left","rt":319.19999999925,"correct":true,"confidence":3},{"trial_n":162,"n_dots":2.95,"target":"left","response":"left","rt":240.40000000224,"correct":true,"confidence":4},{"trial_n":163,"n_dots":2.85,"target":"right","response":"right","rt":271.30000000075,"correct":true,"confidence":3},{"trial_n":164,"n_dots":2.85,"target":"left","response":"left","rt":245.70000000298,"correct":true,"confidence":4},{"trial_n":165,"n_dots":2.75,"target":"left","response":"left","rt":974.39999999851,"correct":true,"confidence":3},{"trial_n":166,"n_dots":2.75,"target":"left","response":"left","rt":523,"correct":true,"confidence":3},{"trial_n":167,"n_dots":2.65,"target":"right","response":"right","rt":264.60000000149,"correct":true,"confidence":3},{"trial_n":168,"n_dots":2.65,"target":"right","response":"right","rt":575.89999999851,"correct":true,"confidence":2},{"trial_n":169,"n_dots":2.55,"target":"right","response":"right","rt":611.60000000149,"correct":true,"confidence":2},{"trial_n":170,"n_dots":2.55,"target":"right","response":"left","rt":889.70000000298,"correct":false,"confidence":2},{"trial_n":171,"n_dots":2.65,"target":"right","response":"left","rt":641.5,"correct":false,"confidence":2},{"trial_n":172,"n_dots":2.75,"target":"left","response":"left","rt":765.5,"correct":true,"confidence":2},{"trial_n":173,"n_dots":2.75,"target":"right","response":"right","rt":688.80000000075,"correct":true,"confidence":3},{"trial_n":174,"n_dots":2.65,"target":"left","response":"right","rt":2487.200000003,"correct":false,"confidence":2},{"trial_n":175,"n_dots":2.75,"target":"right","response":"right","rt":477.19999999925,"correct":true,"confidence":2},{"trial_n":176,"n_dots":2.75,"target":"right","response":"left","rt":482.69999999925,"correct":false,"confidence":2},{"trial_n":177,"n_dots":2.85,"target":"left","response":"right","rt":591.10000000149,"correct":false,"confidence":2},{"trial_n":178,"n_dots":2.95,"target":"right","response":"right","rt":189,"correct":true,"confidence":2},{"trial_n":179,"n_dots":2.95,"target":"right","response":"left","rt":567.79999999702,"correct":false,"confidence":2},{"trial_n":180,"n_dots":3.05,"target":"right","response":"right","rt":526.5,"correct":true,"confidence":3},{"trial_n":181,"n_dots":3.05,"target":"right","response":"left","rt":622.79999999702,"correct":false,"confidence":2},{"trial_n":182,"n_dots":3.15,"target":"left","response":"right","rt":353.60000000149,"correct":false,"confidence":2},{"trial_n":183,"n_dots":3.25,"target":"right","response":"right","rt":167.70000000298,"correct":true,"confidence":2},{"trial_n":184,"n_dots":3.25,"target":"right","response":"right","rt":276.70000000298,"correct":true,"confidence":2},{"trial_n":185,"n_dots":3.15,"target":"right","response":"right","rt":843.5,"correct":true,"confidence":2},{"trial_n":186,"n_dots":3.15,"target":"right","response":"left","rt":626.20000000298,"correct":false,"confidence":2},{"trial_n":187,"n_dots":3.25,"target":"left","response":"right","rt":289.89999999851,"correct":false,"confidence":2},{"trial_n":188,"n_dots":3.35,"target":"left","response":"right","rt":608,"correct":false,"confidence":2},{"trial_n":189,"n_dots":3.45,"target":"left","response":"left","rt":563.30000000075,"correct":true,"confidence":2},{"trial_n":190,"n_dots":3.45,"target":"right","response":"right","rt":28.199999999255,"correct":true,"confidence":3},{"trial_n":191,"n_dots":3.35,"target":"right","response":"right","rt":568,"correct":true,"confidence":3},{"trial_n":192,"n_dots":3.35,"target":"left","response":"left","rt":362.80000000075,"correct":true,"confidence":4},{"trial_n":193,"n_dots":3.25,"target":"left","response":"left","rt":293,"correct":true,"confidence":4},{"trial_n":194,"n_dots":3.25,"target":"right","response":"right","rt":218.89999999851,"correct":true,"confidence":3}]