[{"trial_n":1,"n_dots":4.25,"target":"left","response":"right","rt":878,"correct":false,"confidence":-1},{"trial_n":2,"n_dots":4.25,"target":"left","response":"right","rt":449,"correct":false,"confidence":-1},{"trial_n":3,"n_dots":4.65,"target":"right","response":"right","rt":355,"correct":true,"confidence":-1},{"trial_n":4,"n_dots":4.65,"target":"right","response":"right","rt":387,"correct":true,"confidence":-1},{"trial_n":5,"n_dots":4.25,"target":"right","response":"right","rt":406,"correct":true,"confidence":-1},{"trial_n":6,"n_dots":4.25,"target":"right","response":"right","rt":667,"correct":true,"confidence":-1},{"trial_n":7,"n_dots":3.85,"target":"left","response":"left","rt":537,"correct":true,"confidence":-1},{"trial_n":8,"n_dots":3.85,"target":"right","response":"right","rt":308,"correct":true,"confidence":-1},{"trial_n":9,"n_dots":3.65,"target":"right","response":"right","rt":305,"correct":true,"confidence":-1},{"trial_n":10,"n_dots":3.65,"target":"right","response":"left","rt":1286,"correct":false,"confidence":-1},{"trial_n":11,"n_dots":3.85,"target":"left","response":"left","rt":384,"correct":true,"confidence":-1},{"trial_n":12,"n_dots":3.85,"target":"left","response":"left","rt":619,"correct":true,"confidence":-1},{"trial_n":13,"n_dots":3.75,"target":"left","response":"left","rt":498,"correct":true,"confidence":-1},{"trial_n":14,"n_dots":3.75,"target":"left","response":"left","rt":894,"correct":true,"confidence":-1},{"trial_n":15,"n_dots":3.65,"target":"right","response":"right","rt":294,"correct":true,"confidence":-1},{"trial_n":16,"n_dots":3.65,"target":"right","response":"right","rt":333,"correct":true,"confidence":-1},{"trial_n":17,"n_dots":3.55,"target":"right","response":"right","rt":465,"correct":true,"confidence":-1},{"trial_n":18,"n_dots":3.55,"target":"left","response":"left","rt":415,"correct":true,"confidence":-1},{"trial_n":19,"n_dots":3.45,"target":"right","response":"right","rt":251,"correct":true,"confidence":-1},{"trial_n":20,"n_dots":3.45,"target":"left","response":"left","rt":650,"correct":true,"confidence":-1},{"trial_n":21,"n_dots":3.35,"target":"left","response":"left","rt":519,"correct":true,"confidence":-1},{"trial_n":22,"n_dots":3.35,"target":"right","response":"right","rt":358,"correct":true,"confidence":-1},{"trial_n":23,"n_dots":3.25,"target":"left","response":"left","rt":408,"correct":true,"confidence":-1},{"trial_n":24,"n_dots":3.25,"target":"right","response":"right","rt":341,"correct":true,"confidence":-1},{"trial_n":25,"n_dots":3.15,"target":"right","response":"right","rt":333,"correct":true,"confidence":-1},{"trial_n":26,"n_dots":3.15,"target":"left","response":"left","rt":1276,"correct":true,"confidence":-1},{"trial_n":27,"n_dots":3.05,"target":"right","response":"left","rt":572,"correct":false,"confidence":3},{"trial_n":28,"n_dots":3.15,"target":"left","response":"left","rt":513,"correct":true,"confidence":4},{"trial_n":29,"n_dots":3.15,"target":"right","response":"right","rt":448,"correct":true,"confidence":5},{"trial_n":30,"n_dots":3.05,"target":"right","response":"right","rt":623,"correct":true,"confidence":4},{"trial_n":31,"n_dots":3.05,"target":"left","response":"left","rt":460,"correct":true,"confidence":3},{"trial_n":32,"n_dots":2.95,"target":"right","response":"right","rt":424,"correct":true,"confidence":5},{"trial_n":33,"n_dots":2.95,"target":"left","response":"left","rt":494,"correct":true,"confidence":5},{"trial_n":34,"n_dots":2.85,"target":"left","response":"left","rt":483,"correct":true,"confidence":5},{"trial_n":35,"n_dots":2.85,"target":"left","response":"left","rt":473,"correct":true,"confidence":6},{"trial_n":36,"n_dots":2.75,"target":"right","response":"left","rt":502,"correct":false,"confidence":3},{"trial_n":37,"n_dots":2.85,"target":"left","response":"left","rt":458,"correct":true,"confidence":5},{"trial_n":38,"n_dots":2.85,"target":"right","response":"left","rt":555,"correct":false,"confidence":2},{"trial_n":39,"n_dots":2.95,"target":"right","response":"right","rt":601,"correct":true,"confidence":5},{"trial_n":40,"n_dots":2.95,"target":"right","response":"left","rt":1703,"correct":false,"confidence":1},{"trial_n":41,"n_dots":3.05,"target":"left","response":"left","rt":551,"correct":true,"confidence":4},{"trial_n":42,"n_dots":3.05,"target":"left","response":"left","rt":431,"correct":true,"confidence":5},{"trial_n":43,"n_dots":2.95,"target":"left","response":"right","rt":569,"correct":false,"confidence":3},{"trial_n":44,"n_dots":3.05,"target":"right","response":"left","rt":532,"correct":false,"confidence":4},{"trial_n":45,"n_dots":3.15,"target":"left","response":"left","rt":500,"correct":true,"confidence":5},{"trial_n":46,"n_dots":3.15,"target":"left","response":"left","rt":671,"correct":true,"confidence":4},{"trial_n":47,"n_dots":3.05,"target":"right","response":"left","rt":1781,"correct":false,"confidence":4},{"trial_n":48,"n_dots":3.15,"target":"right","response":"right","rt":5718,"correct":true,"confidence":4},{"trial_n":49,"n_dots":3.15,"target":"right","response":"left","rt":1043,"correct":false,"confidence":5},{"trial_n":50,"n_dots":3.25,"target":"right","response":"right","rt":668,"correct":true,"confidence":5},{"trial_n":51,"n_dots":3.25,"target":"right","response":"right","rt":724,"correct":true,"confidence":4},{"trial_n":52,"n_dots":3.15,"target":"left","response":"left","rt":454,"correct":true,"confidence":6},{"trial_n":53,"n_dots":3.15,"target":"right","response":"right","rt":493,"correct":true,"confidence":4},{"trial_n":54,"n_dots":3.05,"target":"left","response":"right","rt":816,"correct":false,"confidence":4},{"trial_n":55,"n_dots":3.15,"target":"right","response":"right","rt":636,"correct":true,"confidence":5},{"trial_n":56,"n_dots":3.15,"target":"right","response":"right","rt":3305,"correct":true,"confidence":3},{"trial_n":57,"n_dots":3.05,"target":"right","response":"right","rt":667,"correct":true,"confidence":4},{"trial_n":58,"n_dots":3.05,"target":"right","response":"right","rt":514,"correct":true,"confidence":4},{"trial_n":59,"n_dots":2.95,"target":"left","response":"left","rt":450,"correct":true,"confidence":5},{"trial_n":60,"n_dots":2.95,"target":"left","response":"left","rt":709,"correct":true,"confidence":5},{"trial_n":61,"n_dots":2.85,"target":"right","response":"left","rt":708,"correct":false,"confidence":5},{"trial_n":62,"n_dots":2.95,"target":"left","response":"left","rt":377,"correct":true,"confidence":6},{"trial_n":63,"n_dots":2.95,"target":"left","response":"right","rt":559,"correct":false,"confidence":4},{"trial_n":64,"n_dots":3.05,"target":"left","response":"left","rt":460,"correct":true,"confidence":5},{"trial_n":65,"n_dots":3.05,"target":"right","response":"right","rt":555,"correct":true,"confidence":5},{"trial_n":66,"n_dots":2.95,"target":"right","response":"left","rt":930,"correct":false,"confidence":4},{"trial_n":67,"n_dots":3.05,"target":"left","response":"left","rt":422,"correct":true,"confidence":6},{"trial_n":68,"n_dots":3.05,"target":"left","response":"left","rt":360,"correct":true,"confidence":5},{"trial_n":69,"n_dots":2.95,"target":"left","response":"left","rt":534,"correct":true,"confidence":4},{"trial_n":70,"n_dots":2.95,"target":"right","response":"left","rt":446,"correct":false,"confidence":5},{"trial_n":71,"n_dots":3.05,"target":"right","response":"right","rt":480,"correct":true,"confidence":4},{"trial_n":72,"n_dots":3.05,"target":"right","response":"right","rt":436,"correct":true,"confidence":5},{"trial_n":73,"n_dots":2.95,"target":"left","response":"right","rt":714,"correct":false,"confidence":5},{"trial_n":74,"n_dots":3.05,"target":"left","response":"left","rt":663,"correct":true,"confidence":3},{"trial_n":75,"n_dots":3.05,"target":"right","response":"right","rt":403,"correct":true,"confidence":5},{"trial_n":76,"n_dots":2.95,"target":"left","response":"left","rt":500,"correct":true,"confidence":4},{"trial_n":77,"n_dots":2.95,"target":"right","response":"right","rt":311,"correct":true,"confidence":6},{"trial_n":78,"n_dots":2.85,"target":"left","response":"left","rt":481,"correct":true,"confidence":5},{"trial_n":79,"n_dots":2.85,"target":"right","response":"right","rt":1555,"correct":true,"confidence":4},{"trial_n":80,"n_dots":2.75,"target":"left","response":"left","rt":386,"correct":true,"confidence":5},{"trial_n":81,"n_dots":2.75,"target":"right","response":"left","rt":292,"correct":false,"confidence":4},{"trial_n":82,"n_dots":2.85,"target":"right","response":"right","rt":439,"correct":true,"confidence":4},{"trial_n":83,"n_dots":2.85,"target":"right","response":"right","rt":1699,"correct":true,"confidence":4},{"trial_n":84,"n_dots":2.75,"target":"left","response":"left","rt":427,"correct":true,"confidence":5},{"trial_n":85,"n_dots":2.75,"target":"left","response":"left","rt":446,"correct":true,"confidence":6},{"trial_n":86,"n_dots":2.65,"target":"left","response":"left","rt":835,"correct":true,"confidence":4},{"trial_n":87,"n_dots":2.65,"target":"left","response":"right","rt":826,"correct":false,"confidence":2},{"trial_n":88,"n_dots":2.75,"target":"right","response":"right","rt":1530,"correct":true,"confidence":1},{"trial_n":89,"n_dots":2.75,"target":"right","response":"left","rt":2026,"correct":false,"confidence":2},{"trial_n":90,"n_dots":2.85,"target":"right","response":"right","rt":687,"correct":true,"confidence":3},{"trial_n":91,"n_dots":2.85,"target":"right","response":"left","rt":348,"correct":false,"confidence":5},{"trial_n":92,"n_dots":2.95,"target":"right","response":"right","rt":348,"correct":true,"confidence":4},{"trial_n":93,"n_dots":2.95,"target":"right","response":"right","rt":393,"correct":true,"confidence":5},{"trial_n":94,"n_dots":2.85,"target":"left","response":"left","rt":334,"correct":true,"confidence":4},{"trial_n":95,"n_dots":2.85,"target":"left","response":"left","rt":708,"correct":true,"confidence":4},{"trial_n":96,"n_dots":2.75,"target":"left","response":"left","rt":302,"correct":true,"confidence":5},{"trial_n":97,"n_dots":2.75,"target":"left","response":"left","rt":308,"correct":true,"confidence":6},{"trial_n":98,"n_dots":2.65,"target":"left","response":"left","rt":374,"correct":true,"confidence":5},{"trial_n":99,"n_dots":2.65,"target":"right","response":"left","rt":498,"correct":false,"confidence":4},{"trial_n":100,"n_dots":2.75,"target":"right","response":"right","rt":947,"correct":true,"confidence":4},{"trial_n":101,"n_dots":2.75,"target":"right","response":"left","rt":725,"correct":false,"confidence":3},{"trial_n":102,"n_dots":2.85,"target":"left","response":"left","rt":445,"correct":true,"confidence":4},{"trial_n":103,"n_dots":2.85,"target":"left","response":"left","rt":545,"correct":true,"confidence":5},{"trial_n":104,"n_dots":2.75,"target":"right","response":"right","rt":439,"correct":true,"confidence":6},{"trial_n":105,"n_dots":2.75,"target":"left","response":"left","rt":713,"correct":true,"confidence":3},{"trial_n":106,"n_dots":2.65,"target":"left","response":"left","rt":534,"correct":true,"confidence":4},{"trial_n":107,"n_dots":2.65,"target":"left","response":"left","rt":338,"correct":true,"confidence":5},{"trial_n":108,"n_dots":2.55,"target":"left","response":"left","rt":543,"correct":true,"confidence":4},{"trial_n":109,"n_dots":2.55,"target":"left","response":"left","rt":368,"correct":true,"confidence":5},{"trial_n":110,"n_dots":2.45,"target":"right","response":"left","rt":582,"correct":false,"confidence":6},{"trial_n":111,"n_dots":2.55,"target":"left","response":"left","rt":564,"correct":true,"confidence":4},{"trial_n":112,"n_dots":2.55,"target":"right","response":"left","rt":423,"correct":false,"confidence":3},{"trial_n":113,"n_dots":2.65,"target":"left","response":"left","rt":283,"correct":true,"confidence":5},{"trial_n":114,"n_dots":2.65,"target":"left","response":"left","rt":312,"correct":true,"confidence":4},{"trial_n":115,"n_dots":2.55,"target":"right","response":"left","rt":979,"correct":false,"confidence":2},{"trial_n":116,"n_dots":2.65,"target":"left","response":"left","rt":388,"correct":true,"confidence":3},{"trial_n":117,"n_dots":2.65,"target":"left","response":"left","rt":713,"correct":true,"confidence":4},{"trial_n":118,"n_dots":2.55,"target":"right","response":"right","rt":764,"correct":true,"confidence":2},{"trial_n":119,"n_dots":2.55,"target":"left","response":"left","rt":401,"correct":true,"confidence":5},{"trial_n":120,"n_dots":2.45,"target":"right","response":"right","rt":520,"correct":true,"confidence":4},{"trial_n":121,"n_dots":2.45,"target":"left","response":"left","rt":638,"correct":true,"confidence":5},{"trial_n":122,"n_dots":2.35,"target":"right","response":"right","rt":668,"correct":true,"confidence":3},{"trial_n":123,"n_dots":2.35,"target":"right","response":"left","rt":301,"correct":false,"confidence":4},{"trial_n":124,"n_dots":2.45,"target":"left","response":"left","rt":378,"correct":true,"confidence":5},{"trial_n":125,"n_dots":2.45,"target":"left","response":"right","rt":1357,"correct":false,"confidence":4},{"trial_n":126,"n_dots":2.55,"target":"left","response":"left","rt":409,"correct":true,"confidence":4},{"trial_n":127,"n_dots":2.55,"target":"right","response":"left","rt":418,"correct":false,"confidence":6},{"trial_n":128,"n_dots":2.65,"target":"right","response":"left","rt":593,"correct":false,"confidence":4},{"trial_n":129,"n_dots":2.75,"target":"left","response":"left","rt":423,"correct":true,"confidence":3},{"trial_n":130,"n_dots":2.75,"target":"right","response":"right","rt":344,"correct":true,"confidence":6},{"trial_n":131,"n_dots":2.65,"target":"right","response":"right","rt":414,"correct":true,"confidence":5},{"trial_n":132,"n_dots":2.65,"target":"right","response":"left","rt":847,"correct":false,"confidence":4},{"trial_n":133,"n_dots":2.75,"target":"right","response":"right","rt":505,"correct":true,"confidence":5},{"trial_n":134,"n_dots":2.75,"target":"right","response":"right","rt":380,"correct":true,"confidence":4},{"trial_n":135,"n_dots":2.65,"target":"right","response":"left","rt":1037,"correct":false,"confidence":3},{"trial_n":136,"n_dots":2.75,"target":"left","response":"right","rt":368,"correct":false,"confidence":3},{"trial_n":137,"n_dots":2.85,"target":"left","response":"left","rt":655,"correct":true,"confidence":3},{"trial_n":138,"n_dots":2.85,"target":"right","response":"left","rt":486,"correct":false,"confidence":4},{"trial_n":139,"n_dots":2.95,"target":"right","response":"right","rt":528,"correct":true,"confidence":4},{"trial_n":140,"n_dots":2.95,"target":"right","response":"right","rt":409,"correct":true,"confidence":5},{"trial_n":141,"n_dots":2.85,"target":"left","response":"left","rt":432,"correct":true,"confidence":6},{"trial_n":142,"n_dots":2.85,"target":"right","response":"right","rt":393,"correct":true,"confidence":4},{"trial_n":143,"n_dots":2.75,"target":"left","response":"left","rt":479,"correct":true,"confidence":5},{"trial_n":144,"n_dots":2.75,"target":"right","response":"left","rt":717,"correct":false,"confidence":4},{"trial_n":145,"n_dots":2.85,"target":"left","response":"left","rt":376,"correct":true,"confidence":6},{"trial_n":146,"n_dots":2.85,"target":"left","response":"left","rt":592,"correct":true,"confidence":5},{"trial_n":147,"n_dots":2.75,"target":"left","response":"left","rt":810,"correct":true,"confidence":4},{"trial_n":148,"n_dots":2.75,"target":"left","response":"left","rt":569,"correct":true,"confidence":4},{"trial_n":149,"n_dots":2.65,"target":"left","response":"left","rt":403,"correct":true,"confidence":5},{"trial_n":150,"n_dots":2.65,"target":"left","response":"right","rt":1153,"correct":false,"confidence":3},{"trial_n":151,"n_dots":2.75,"target":"left","response":"left","rt":415,"correct":true,"confidence":4},{"trial_n":152,"n_dots":2.75,"target":"right","response":"right","rt":587,"correct":true,"confidence":3},{"trial_n":153,"n_dots":2.65,"target":"left","response":"right","rt":645,"correct":false,"confidence":3},{"trial_n":154,"n_dots":2.75,"target":"right","response":"right","rt":400,"correct":true,"confidence":5},{"trial_n":155,"n_dots":2.75,"target":"left","response":"left","rt":294,"correct":true,"confidence":4},{"trial_n":156,"n_dots":2.65,"target":"left","response":"left","rt":382,"correct":true,"confidence":3},{"trial_n":157,"n_dots":2.65,"target":"right","response":"left","rt":655,"correct":false,"confidence":4},{"trial_n":158,"n_dots":2.75,"target":"left","response":"right","rt":544,"correct":false,"confidence":3},{"trial_n":159,"n_dots":2.85,"target":"left","response":"left","rt":432,"correct":true,"confidence":3},{"trial_n":160,"n_dots":2.85,"target":"left","response":"left","rt":562,"correct":true,"confidence":4},{"trial_n":161,"n_dots":2.75,"target":"right","response":"right","rt":282,"correct":true,"confidence":5},{"trial_n":162,"n_dots":2.75,"target":"left","response":"left","rt":576,"correct":true,"confidence":4},{"trial_n":163,"n_dots":2.65,"target":"right","response":"right","rt":339,"correct":true,"confidence":5},{"trial_n":164,"n_dots":2.65,"target":"right","response":"right","rt":424,"correct":true,"confidence":4},{"trial_n":165,"n_dots":2.55,"target":"right","response":"right","rt":357,"correct":true,"confidence":4},{"trial_n":166,"n_dots":2.55,"target":"right","response":"right","rt":444,"correct":true,"confidence":5},{"trial_n":167,"n_dots":2.45,"target":"right","response":"right","rt":245,"correct":true,"confidence":4},{"trial_n":168,"n_dots":2.45,"target":"left","response":"left","rt":659,"correct":true,"confidence":3},{"trial_n":169,"n_dots":2.35,"target":"left","response":"right","rt":411,"correct":false,"confidence":4},{"trial_n":170,"n_dots":2.45,"target":"right","response":"right","rt":402,"correct":true,"confidence":4},{"trial_n":171,"n_dots":2.45,"target":"right","response":"right","rt":347,"correct":true,"confidence":3},{"trial_n":172,"n_dots":2.35,"target":"right","response":"right","rt":332,"correct":true,"confidence":5},{"trial_n":173,"n_dots":2.35,"target":"right","response":"right","rt":388,"correct":true,"confidence":4},{"trial_n":174,"n_dots":2.25,"target":"right","response":"right","rt":457,"correct":true,"confidence":3},{"trial_n":175,"n_dots":2.25,"target":"left","response":"left","rt":575,"correct":true,"confidence":3},{"trial_n":176,"n_dots":2.15,"target":"right","response":"right","rt":393,"correct":true,"confidence":2},{"trial_n":177,"n_dots":2.15,"target":"left","response":"left","rt":929,"correct":true,"confidence":4},{"trial_n":178,"n_dots":2.05,"target":"left","response":"left","rt":1500,"correct":true,"confidence":2},{"trial_n":179,"n_dots":2.05,"target":"right","response":"left","rt":351,"correct":false,"confidence":3},{"trial_n":180,"n_dots":2.15,"target":"left","response":"right","rt":475,"correct":false,"confidence":3},{"trial_n":181,"n_dots":2.25,"target":"right","response":"right","rt":539,"correct":true,"confidence":3},{"trial_n":182,"n_dots":2.25,"target":"left","response":"left","rt":1328,"correct":true,"confidence":2},{"trial_n":183,"n_dots":2.15,"target":"right","response":"left","rt":1022,"correct":false,"confidence":4},{"trial_n":184,"n_dots":2.25,"target":"left","response":"left","rt":1384,"correct":true,"confidence":4},{"trial_n":185,"n_dots":2.25,"target":"left","response":"right","rt":655,"correct":false,"confidence":4},{"trial_n":186,"n_dots":2.35,"target":"right","response":"right","rt":520,"correct":true,"confidence":3},{"trial_n":187,"n_dots":2.35,"target":"left","response":"left","rt":268,"correct":true,"confidence":3},{"trial_n":188,"n_dots":2.25,"target":"left","response":"left","rt":576,"correct":true,"confidence":4},{"trial_n":189,"n_dots":2.25,"target":"right","response":"left","rt":617,"correct":false,"confidence":4},{"trial_n":190,"n_dots":2.35,"target":"right","response":"right","rt":581,"correct":true,"confidence":3},{"trial_n":191,"n_dots":2.35,"target":"left","response":"left","rt":309,"correct":true,"confidence":4},{"trial_n":192,"n_dots":2.25,"target":"left","response":"left","rt":438,"correct":true,"confidence":5},{"trial_n":193,"n_dots":2.25,"target":"left","response":"right","rt":1668,"correct":false,"confidence":6},{"trial_n":194,"n_dots":2.35,"target":"right","response":"right","rt":536,"correct":true,"confidence":5}]