[{"trial_n":1,"n_dots":4.25,"target":"right","response":"right","rt":1348.8000000007,"correct":true,"confidence":-1},{"trial_n":2,"n_dots":4.25,"target":"right","response":"right","rt":356.89999999851,"correct":true,"confidence":-1},{"trial_n":3,"n_dots":3.85,"target":"left","response":"left","rt":69.099999999627,"correct":true,"confidence":-1},{"trial_n":4,"n_dots":3.85,"target":"left","response":"left","rt":20.800000000745,"correct":true,"confidence":-1},{"trial_n":5,"n_dots":3.45,"target":"left","response":"left","rt":308.40000000037,"correct":true,"confidence":-1},{"trial_n":6,"n_dots":3.45,"target":"right","response":"right","rt":229,"correct":true,"confidence":-1},{"trial_n":7,"n_dots":3.05,"target":"left","response":"left","rt":5516.0999999996,"correct":true,"confidence":-1},{"trial_n":8,"n_dots":3.05,"target":"left","response":"left","rt":1261.0999999996,"correct":true,"confidence":-1},{"trial_n":9,"n_dots":2.85,"target":"right","response":"right","rt":355.90000000037,"correct":true,"confidence":-1},{"trial_n":10,"n_dots":2.85,"target":"left","response":"right","rt":4922.4000000004,"correct":false,"confidence":-1},{"trial_n":11,"n_dots":3.05,"target":"left","response":"left","rt":473.5,"correct":true,"confidence":-1},{"trial_n":12,"n_dots":3.05,"target":"left","response":"left","rt":1630.7000000011,"correct":true,"confidence":-1},{"trial_n":13,"n_dots":2.95,"target":"left","response":"left","rt":156.79999999888,"correct":true,"confidence":-1},{"trial_n":14,"n_dots":2.95,"target":"left","response":"left","rt":1680,"correct":true,"confidence":-1},{"trial_n":15,"n_dots":2.85,"target":"left","response":"right","rt":2822.9000000004,"correct":false,"confidence":-1},{"trial_n":16,"n_dots":2.95,"target":"right","response":"left","rt":838.80000000075,"correct":false,"confidence":-1},{"trial_n":17,"n_dots":3.05,"target":"right","response":"right","rt":584.30000000075,"correct":true,"confidence":-1},{"trial_n":18,"n_dots":3.05,"target":"right","response":"left","rt":620.20000000112,"correct":false,"confidence":-1},{"trial_n":19,"n_dots":3.15,"target":"left","response":"right","rt":374.40000000037,"correct":false,"confidence":-1},{"trial_n":20,"n_dots":3.25,"target":"left","response":"right","rt":524.09999999963,"correct":false,"confidence":-1},{"trial_n":21,"n_dots":3.35,"target":"left","response":"left","rt":21.60000000149,"correct":true,"confidence":-1},{"trial_n":22,"n_dots":3.35,"target":"left","response":"left","rt":222.20000000112,"correct":true,"confidence":-1},{"trial_n":23,"n_dots":3.25,"target":"left","response":"left","rt":325,"correct":true,"confidence":-1},{"trial_n":24,"n_dots":3.25,"target":"right","response":"left","rt":45.800000000745,"correct":false,"confidence":-1},{"trial_n":25,"n_dots":3.35,"target":"left","response":"right","rt":1025.9000000004,"correct":false,"confidence":-1},{"trial_n":26,"n_dots":3.45,"target":"left","response":"left","rt":616.60000000149,"correct":true,"confidence":-1},{"trial_n":27,"n_dots":3.45,"target":"left","response":"left","rt":2345.4000000004,"correct":true,"confidence":3},{"trial_n":28,"n_dots":3.35,"target":"right","response":"right","rt":3093.0999999996,"correct":true,"confidence":2},{"trial_n":29,"n_dots":3.35,"target":"left","response":"left","rt":2653,"correct":true,"confidence":3},{"trial_n":30,"n_dots":3.25,"target":"left","response":"left","rt":1164.1999999993,"correct":true,"confidence":4},{"trial_n":31,"n_dots":3.25,"target":"right","response":"left","rt":1844.7000000011,"correct":false,"confidence":3},{"trial_n":32,"n_dots":3.35,"target":"right","response":"left","rt":3112,"correct":false,"confidence":3},{"trial_n":33,"n_dots":3.45,"target":"right","response":"right","rt":1420,"correct":true,"confidence":3},{"trial_n":34,"n_dots":3.45,"target":"left","response":"right","rt":682.69999999925,"correct":false,"confidence":3},{"trial_n":35,"n_dots":3.55,"target":"right","response":"left","rt":979,"correct":false,"confidence":1},{"trial_n":36,"n_dots":3.65,"target":"left","response":"left","rt":1240.5,"correct":true,"confidence":1},{"trial_n":37,"n_dots":3.65,"target":"left","response":"left","rt":1104.3000000007,"correct":true,"confidence":2},{"trial_n":38,"n_dots":3.55,"target":"right","response":"left","rt":196,"correct":false,"confidence":2},{"trial_n":39,"n_dots":3.65,"target":"left","response":"left","rt":956.90000000037,"correct":true,"confidence":2},{"trial_n":40,"n_dots":3.65,"target":"right","response":"left","rt":862.59999999963,"correct":false,"confidence":3},{"trial_n":41,"n_dots":3.75,"target":"right","response":"left","rt":253.5,"correct":false,"confidence":2},{"trial_n":42,"n_dots":3.85,"target":"right","response":"right","rt":876.90000000037,"correct":true,"confidence":3},{"trial_n":43,"n_dots":3.85,"target":"left","response":"left","rt":1078.5,"correct":true,"confidence":3},{"trial_n":44,"n_dots":3.75,"target":"right","response":"left","rt":1787.6999999993,"correct":false,"confidence":2},{"trial_n":45,"n_dots":3.85,"target":"right","response":"left","rt":917.70000000112,"correct":false,"confidence":3},{"trial_n":46,"n_dots":3.95,"target":"left","response":"left","rt":681,"correct":true,"confidence":3},{"trial_n":47,"n_dots":3.95,"target":"right","response":"left","rt":1606.4000000004,"correct":false,"confidence":3},{"trial_n":48,"n_dots":4.05,"target":"right","response":"left","rt":1402.7000000011,"correct":false,"confidence":3},{"trial_n":49,"n_dots":4.15,"target":"right","response":"left","rt":234.29999999888,"correct":false,"confidence":3},{"trial_n":50,"n_dots":4.25,"target":"right","response":"right","rt":2559.9000000004,"correct":true,"confidence":4},{"trial_n":51,"n_dots":4.25,"target":"right","response":"right","rt":1345,"correct":true,"confidence":3},{"trial_n":52,"n_dots":4.15,"target":"left","response":"left","rt":1486.7999999989,"correct":true,"confidence":3},{"trial_n":53,"n_dots":4.15,"target":"right","response":"right","rt":2497.4000000004,"correct":true,"confidence":4},{"trial_n":54,"n_dots":4.05,"target":"left","response":"left","rt":816,"correct":true,"confidence":3},{"trial_n":55,"n_dots":4.05,"target":"left","response":"left","rt":728.20000000112,"correct":true,"confidence":3},{"trial_n":56,"n_dots":3.95,"target":"left","response":"left","rt":661.69999999925,"correct":true,"confidence":4},{"trial_n":57,"n_dots":3.95,"target":"left","response":"left","rt":930.90000000037,"correct":true,"confidence":4},{"trial_n":58,"n_dots":3.85,"target":"left","response":"left","rt":988.10000000149,"correct":true,"confidence":4},{"trial_n":59,"n_dots":3.85,"target":"right","response":"right","rt":1077.5,"correct":true,"confidence":4},{"trial_n":60,"n_dots":3.75,"target":"left","response":"left","rt":799.20000000112,"correct":true,"confidence":3},{"trial_n":61,"n_dots":3.75,"target":"right","response":"right","rt":2129.7000000011,"correct":true,"confidence":3},{"trial_n":62,"n_dots":3.65,"target":"right","response":"left","rt":814.29999999888,"correct":false,"confidence":3},{"trial_n":63,"n_dots":3.75,"target":"right","response":"left","rt":703.40000000037,"correct":false,"confidence":3},{"trial_n":64,"n_dots":3.85,"target":"left","response":"left","rt":693.90000000037,"correct":true,"confidence":3},{"trial_n":65,"n_dots":3.85,"target":"right","response":"right","rt":1587.5999999996,"correct":true,"confidence":3},{"trial_n":66,"n_dots":3.75,"target":"left","response":"right","rt":5012.2999999989,"correct":false,"confidence":3},{"trial_n":67,"n_dots":3.85,"target":"left","response":"right","rt":1568,"correct":false,"confidence":3},{"trial_n":68,"n_dots":3.95,"target":"right","response":"left","rt":2066.0999999996,"correct":false,"confidence":3},{"trial_n":69,"n_dots":4.05,"target":"right","response":"left","rt":986.29999999888,"correct":false,"confidence":3},{"trial_n":70,"n_dots":4.15,"target":"right","response":"right","rt":935.59999999963,"correct":true,"confidence":3},{"trial_n":71,"n_dots":4.15,"target":"right","response":"right","rt":2643.7999999989,"correct":true,"confidence":3},{"trial_n":72,"n_dots":4.05,"target":"right","response":"right","rt":3470.3000000007,"correct":true,"confidence":3},{"trial_n":73,"n_dots":4.05,"target":"left","response":"right","rt":1881.2999999989,"correct":false,"confidence":3},{"trial_n":74,"n_dots":4.15,"target":"left","response":"left","rt":3054,"correct":true,"confidence":3},{"trial_n":75,"n_dots":4.15,"target":"left","response":"right","rt":1547.7000000011,"correct":false,"confidence":3},{"trial_n":76,"n_dots":4.25,"target":"left","response":"left","rt":1041.6000000015,"correct":true,"confidence":3},{"trial_n":77,"n_dots":4.25,"target":"right","response":"left","rt":1167.6999999993,"correct":false,"confidence":3},{"trial_n":78,"n_dots":4.35,"target":"left","response":"left","rt":1185.3000000007,"correct":true,"confidence":3},{"trial_n":79,"n_dots":4.35,"target":"right","response":"right","rt":1086,"correct":true,"confidence":4},{"trial_n":80,"n_dots":4.25,"target":"left","response":"left","rt":769.20000000112,"correct":true,"confidence":3},{"trial_n":81,"n_dots":4.25,"target":"right","response":"right","rt":2794.4000000004,"correct":true,"confidence":3},{"trial_n":82,"n_dots":4.15,"target":"right","response":"right","rt":1920.7999999989,"correct":true,"confidence":3},{"trial_n":83,"n_dots":4.15,"target":"right","response":"right","rt":592.09999999963,"correct":true,"confidence":3},{"trial_n":84,"n_dots":4.05,"target":"right","response":"left","rt":2281,"correct":false,"confidence":3},{"trial_n":85,"n_dots":4.15,"target":"right","response":"right","rt":862.90000000037,"correct":true,"confidence":3},{"trial_n":86,"n_dots":4.15,"target":"left","response":"left","rt":759.30000000075,"correct":true,"confidence":3},{"trial_n":87,"n_dots":4.05,"target":"left","response":"left","rt":2677.0999999996,"correct":true,"confidence":3},{"trial_n":88,"n_dots":4.05,"target":"left","response":"left","rt":692.69999999925,"correct":true,"confidence":3},{"trial_n":89,"n_dots":3.95,"target":"right","response":"right","rt":1201.9000000004,"correct":true,"confidence":3},{"trial_n":90,"n_dots":3.95,"target":"right","response":"right","rt":534.09999999963,"correct":true,"confidence":3},{"trial_n":91,"n_dots":3.85,"target":"left","response":"right","rt":1108.8000000007,"correct":false,"confidence":3},{"trial_n":92,"n_dots":3.95,"target":"left","response":"left","rt":755.20000000112,"correct":true,"confidence":3},{"trial_n":93,"n_dots":3.95,"target":"right","response":"left","rt":1150,"correct":false,"confidence":2},{"trial_n":94,"n_dots":4.05,"target":"right","response":"right","rt":516.40000000037,"correct":true,"confidence":4},{"trial_n":95,"n_dots":4.05,"target":"left","response":"left","rt":1222.7999999989,"correct":true,"confidence":4},{"trial_n":96,"n_dots":3.95,"target":"right","response":"right","rt":582.19999999925,"correct":true,"confidence":4},{"trial_n":97,"n_dots":3.95,"target":"right","response":"left","rt":694.69999999925,"correct":false,"confidence":3},{"trial_n":98,"n_dots":4.05,"target":"left","response":"right","rt":977.5,"correct":false,"confidence":3},{"trial_n":99,"n_dots":4.15,"target":"right","response":"right","rt":867.20000000112,"correct":true,"confidence":4},{"trial_n":100,"n_dots":4.15,"target":"left","response":"left","rt":2975,"correct":true,"confidence":3},{"trial_n":101,"n_dots":4.05,"target":"right","response":"right","rt":687.30000000075,"correct":true,"confidence":3},{"trial_n":102,"n_dots":4.05,"target":"left","response":"left","rt":791.79999999888,"correct":true,"confidence":3},{"trial_n":103,"n_dots":3.95,"target":"right","response":"right","rt":473.5,"correct":true,"confidence":3},{"trial_n":104,"n_dots":3.95,"target":"right","response":"left","rt":1497.3000000007,"correct":false,"confidence":3},{"trial_n":105,"n_dots":4.05,"target":"left","response":"right","rt":695.69999999925,"correct":false,"confidence":3},{"trial_n":106,"n_dots":4.15,"target":"right","response":"right","rt":1071.9000000022,"correct":true,"confidence":4},{"trial_n":107,"n_dots":4.15,"target":"right","response":"right","rt":440.90000000224,"correct":true,"confidence":4},{"trial_n":108,"n_dots":4.05,"target":"right","response":"right","rt":610.59999999776,"correct":true,"confidence":4},{"trial_n":109,"n_dots":4.05,"target":"left","response":"left","rt":683.80000000075,"correct":true,"confidence":3},{"trial_n":110,"n_dots":3.95,"target":"left","response":"left","rt":877.40000000224,"correct":true,"confidence":3},{"trial_n":111,"n_dots":3.95,"target":"right","response":"right","rt":1790.5,"correct":true,"confidence":3},{"trial_n":112,"n_dots":3.85,"target":"right","response":"right","rt":694.5,"correct":true,"confidence":3},{"trial_n":113,"n_dots":3.85,"target":"left","response":"left","rt":739.39999999851,"correct":true,"confidence":3},{"trial_n":114,"n_dots":3.75,"target":"left","response":"right","rt":1098,"correct":false,"confidence":3},{"trial_n":115,"n_dots":3.85,"target":"left","response":"left","rt":1361.8999999985,"correct":true,"confidence":3},{"trial_n":116,"n_dots":3.85,"target":"right","response":"right","rt":1249.8999999985,"correct":true,"confidence":4},{"trial_n":117,"n_dots":3.75,"target":"right","response":"right","rt":1048.6999999993,"correct":true,"confidence":4},{"trial_n":118,"n_dots":3.75,"target":"right","response":"right","rt":886.19999999925,"correct":true,"confidence":4},{"trial_n":119,"n_dots":3.65,"target":"left","response":"left","rt":677.69999999925,"correct":true,"confidence":4},{"trial_n":120,"n_dots":3.65,"target":"right","response":"right","rt":825.70000000298,"correct":true,"confidence":4},{"trial_n":121,"n_dots":3.55,"target":"right","response":"right","rt":937.5,"correct":true,"confidence":4},{"trial_n":122,"n_dots":3.55,"target":"right","response":"right","rt":889.79999999702,"correct":true,"confidence":4},{"trial_n":123,"n_dots":3.45,"target":"left","response":"right","rt":1229.3999999985,"correct":false,"confidence":4},{"trial_n":124,"n_dots":3.55,"target":"left","response":"left","rt":654,"correct":true,"confidence":3},{"trial_n":125,"n_dots":3.55,"target":"right","response":"right","rt":766,"correct":true,"confidence":4},{"trial_n":126,"n_dots":3.45,"target":"right","response":"right","rt":744,"correct":true,"confidence":4},{"trial_n":127,"n_dots":3.45,"target":"left","response":"left","rt":1252.3000000007,"correct":true,"confidence":4},{"trial_n":128,"n_dots":3.35,"target":"right","response":"right","rt":685.59999999776,"correct":true,"confidence":4},{"trial_n":129,"n_dots":3.35,"target":"left","response":"right","rt":1431.1000000015,"correct":false,"confidence":3},{"trial_n":130,"n_dots":3.45,"target":"right","response":"left","rt":2270.5999999978,"correct":false,"confidence":3},{"trial_n":131,"n_dots":3.55,"target":"right","response":"right","rt":937.5,"correct":true,"confidence":4},{"trial_n":132,"n_dots":3.55,"target":"right","response":"right","rt":590.29999999702,"correct":true,"confidence":4},{"trial_n":133,"n_dots":3.45,"target":"right","response":"right","rt":957.89999999851,"correct":true,"confidence":4},{"trial_n":134,"n_dots":3.45,"target":"right","response":"right","rt":754.80000000075,"correct":true,"confidence":4},{"trial_n":135,"n_dots":3.35,"target":"right","response":"right","rt":1206,"correct":true,"confidence":4},{"trial_n":136,"n_dots":3.35,"target":"left","response":"left","rt":576.69999999925,"correct":true,"confidence":4},{"trial_n":137,"n_dots":3.25,"target":"right","response":"right","rt":921.69999999925,"correct":true,"confidence":4},{"trial_n":138,"n_dots":3.25,"target":"right","response":"left","rt":2249.4000000022,"correct":false,"confidence":2},{"trial_n":139,"n_dots":3.35,"target":"left","response":"left","rt":903.90000000224,"correct":true,"confidence":3},{"trial_n":140,"n_dots":3.35,"target":"right","response":"right","rt":853.39999999851,"correct":true,"confidence":3},{"trial_n":141,"n_dots":3.25,"target":"left","response":"right","rt":1842.0999999978,"correct":false,"confidence":3},{"trial_n":142,"n_dots":3.35,"target":"left","response":"left","rt":1296.3000000007,"correct":true,"confidence":3},{"trial_n":143,"n_dots":3.35,"target":"left","response":"right","rt":1188.3999999985,"correct":false,"confidence":4},{"trial_n":144,"n_dots":3.45,"target":"left","response":"left","rt":599.89999999851,"correct":true,"confidence":5},{"trial_n":145,"n_dots":3.45,"target":"left","response":"left","rt":701,"correct":true,"confidence":5},{"trial_n":146,"n_dots":3.35,"target":"right","response":"right","rt":1365.3000000007,"correct":true,"confidence":3},{"trial_n":147,"n_dots":3.35,"target":"right","response":"right","rt":1819.8000000007,"correct":true,"confidence":4},{"trial_n":148,"n_dots":3.25,"target":"right","response":"right","rt":1422.9000000022,"correct":true,"confidence":4},{"trial_n":149,"n_dots":3.25,"target":"right","response":"right","rt":777,"correct":true,"confidence":4},{"trial_n":150,"n_dots":3.15,"target":"left","response":"left","rt":1446.3000000007,"correct":true,"confidence":3},{"trial_n":151,"n_dots":3.15,"target":"left","response":"left","rt":694.79999999702,"correct":true,"confidence":4},{"trial_n":152,"n_dots":3.05,"target":"right","response":"left","rt":1003.200000003,"correct":false,"confidence":4},{"trial_n":153,"n_dots":3.15,"target":"right","response":"left","rt":558.10000000149,"correct":false,"confidence":4},{"trial_n":154,"n_dots":3.25,"target":"left","response":"left","rt":1576,"correct":true,"confidence":4},{"trial_n":155,"n_dots":3.25,"target":"left","response":"left","rt":692.69999999925,"correct":true,"confidence":4},{"trial_n":156,"n_dots":3.15,"target":"right","response":"right","rt":1412.3000000007,"correct":true,"confidence":4},{"trial_n":157,"n_dots":3.15,"target":"right","response":"right","rt":680.90000000224,"correct":true,"confidence":4},{"trial_n":158,"n_dots":3.05,"target":"right","response":"right","rt":604.79999999702,"correct":true,"confidence":4},{"trial_n":159,"n_dots":3.05,"target":"left","response":"left","rt":1474.4000000022,"correct":true,"confidence":3},{"trial_n":160,"n_dots":2.95,"target":"left","response":"left","rt":711.90000000224,"correct":true,"confidence":4},{"trial_n":161,"n_dots":2.95,"target":"left","response":"right","rt":866.60000000149,"correct":false,"confidence":4},{"trial_n":162,"n_dots":3.05,"target":"right","response":"right","rt":1002.1000000015,"correct":true,"confidence":4},{"trial_n":163,"n_dots":3.05,"target":"left","response":"left","rt":815.10000000149,"correct":true,"confidence":4},{"trial_n":164,"n_dots":2.95,"target":"left","response":"left","rt":1464.799999997,"correct":true,"confidence":4},{"trial_n":165,"n_dots":2.95,"target":"left","response":"left","rt":793.60000000149,"correct":true,"confidence":4},{"trial_n":166,"n_dots":2.85,"target":"right","response":"left","rt":906.30000000075,"correct":false,"confidence":4},{"trial_n":167,"n_dots":2.95,"target":"right","response":"left","rt":834.69999999925,"correct":false,"confidence":4},{"trial_n":168,"n_dots":3.05,"target":"left","response":"left","rt":437.90000000224,"correct":true,"confidence":4},{"trial_n":169,"n_dots":3.05,"target":"right","response":"left","rt":3625.299999997,"correct":false,"confidence":4},{"trial_n":170,"n_dots":3.15,"target":"right","response":"right","rt":2184.8999999985,"correct":true,"confidence":4},{"trial_n":171,"n_dots":3.15,"target":"left","response":"right","rt":1147.6000000015,"correct":false,"confidence":4},{"trial_n":172,"n_dots":3.25,"target":"left","response":"left","rt":698.5,"correct":true,"confidence":4},{"trial_n":173,"n_dots":3.25,"target":"left","response":"right","rt":4648.8999999985,"correct":false,"confidence":4},{"trial_n":174,"n_dots":3.35,"target":"right","response":"right","rt":951.79999999702,"correct":true,"confidence":4},{"trial_n":175,"n_dots":3.35,"target":"left","response":"left","rt":961.69999999925,"correct":true,"confidence":3},{"trial_n":176,"n_dots":3.25,"target":"left","response":"left","rt":639.89999999851,"correct":true,"confidence":4},{"trial_n":177,"n_dots":3.25,"target":"right","response":"right","rt":2419.6000000015,"correct":true,"confidence":3},{"trial_n":178,"n_dots":3.15,"target":"right","response":"right","rt":603.5,"correct":true,"confidence":4},{"trial_n":179,"n_dots":3.15,"target":"left","response":"left","rt":1227.299999997,"correct":true,"confidence":4},{"trial_n":180,"n_dots":3.05,"target":"right","response":"right","rt":874.5,"correct":true,"confidence":4},{"trial_n":181,"n_dots":3.05,"target":"left","response":"right","rt":1493,"correct":false,"confidence":4},{"trial_n":182,"n_dots":3.15,"target":"right","response":"right","rt":1583.3999999985,"correct":true,"confidence":5},{"trial_n":183,"n_dots":3.15,"target":"left","response":"left","rt":525.5,"correct":true,"confidence":4},{"trial_n":184,"n_dots":3.05,"target":"right","response":"right","rt":843.39999999851,"correct":true,"confidence":4},{"trial_n":185,"n_dots":3.05,"target":"left","response":"left","rt":1443.5999999978,"correct":true,"confidence":3},{"trial_n":186,"n_dots":2.95,"target":"left","response":"left","rt":1543.299999997,"correct":true,"confidence":3},{"trial_n":187,"n_dots":2.95,"target":"left","response":"left","rt":841.80000000075,"correct":true,"confidence":3},{"trial_n":188,"n_dots":2.85,"target":"right","response":"left","rt":1069.9000000022,"correct":false,"confidence":3},{"trial_n":189,"n_dots":2.95,"target":"right","response":"left","rt":842.59999999776,"correct":false,"confidence":3},{"trial_n":190,"n_dots":3.05,"target":"left","response":"left","rt":1049.6000000015,"correct":true,"confidence":2},{"trial_n":191,"n_dots":3.05,"target":"left","response":"left","rt":1655.3000000007,"correct":true,"confidence":2},{"trial_n":192,"n_dots":2.95,"target":"left","response":"left","rt":1667.5999999978,"correct":true,"confidence":3},{"trial_n":193,"n_dots":2.95,"target":"left","response":"left","rt":1404.5,"correct":true,"confidence":3},{"trial_n":194,"n_dots":2.85,"target":"left","response":"left","rt":687.5,"correct":true,"confidence":3}]