[{"trial_n":1,"n_dots":4.25,"target":"right","response":"right","rt":420,"correct":true,"confidence":-1},{"trial_n":2,"n_dots":4.25,"target":"left","response":"left","rt":427,"correct":true,"confidence":-1},{"trial_n":3,"n_dots":3.85,"target":"left","response":"left","rt":404,"correct":true,"confidence":-1},{"trial_n":4,"n_dots":3.85,"target":"right","response":"right","rt":67,"correct":true,"confidence":-1},{"trial_n":5,"n_dots":3.45,"target":"right","response":"right","rt":327,"correct":true,"confidence":-1},{"trial_n":6,"n_dots":3.45,"target":"right","response":"right","rt":420,"correct":true,"confidence":-1},{"trial_n":7,"n_dots":3.05,"target":"left","response":"left","rt":529,"correct":true,"confidence":-1},{"trial_n":8,"n_dots":3.05,"target":"right","response":"right","rt":457,"correct":true,"confidence":-1},{"trial_n":9,"n_dots":2.85,"target":"right","response":"left","rt":714,"correct":false,"confidence":-1},{"trial_n":10,"n_dots":3.05,"target":"right","response":"right","rt":667,"correct":true,"confidence":-1},{"trial_n":11,"n_dots":3.05,"target":"right","response":"right","rt":383,"correct":true,"confidence":-1},{"trial_n":12,"n_dots":2.85,"target":"left","response":"left","rt":464,"correct":true,"confidence":-1},{"trial_n":13,"n_dots":2.85,"target":"left","response":"right","rt":406,"correct":false,"confidence":-1},{"trial_n":14,"n_dots":2.95,"target":"left","response":"left","rt":412,"correct":true,"confidence":-1},{"trial_n":15,"n_dots":2.95,"target":"right","response":"left","rt":312,"correct":false,"confidence":-1},{"trial_n":16,"n_dots":3.05,"target":"left","response":"left","rt":369,"correct":true,"confidence":-1},{"trial_n":17,"n_dots":3.05,"target":"right","response":"left","rt":439,"correct":false,"confidence":-1},{"trial_n":18,"n_dots":3.15,"target":"left","response":"right","rt":714,"correct":false,"confidence":-1},{"trial_n":19,"n_dots":3.25,"target":"left","response":"left","rt":413,"correct":true,"confidence":-1},{"trial_n":20,"n_dots":3.25,"target":"left","response":"right","rt":1096,"correct":false,"confidence":-1},{"trial_n":21,"n_dots":3.35,"target":"right","response":"right","rt":428,"correct":true,"confidence":-1},{"trial_n":22,"n_dots":3.35,"target":"right","response":"right","rt":378,"correct":true,"confidence":-1},{"trial_n":23,"n_dots":3.25,"target":"left","response":"left","rt":603,"correct":true,"confidence":-1},{"trial_n":24,"n_dots":3.25,"target":"right","response":"right","rt":515,"correct":true,"confidence":-1},{"trial_n":25,"n_dots":3.15,"target":"left","response":"right","rt":462,"correct":false,"confidence":-1},{"trial_n":26,"n_dots":3.25,"target":"left","response":"left","rt":690,"correct":true,"confidence":-1},{"trial_n":27,"n_dots":3.25,"target":"right","response":"right","rt":122,"correct":true,"confidence":6},{"trial_n":28,"n_dots":3.15,"target":"left","response":"left","rt":661,"correct":true,"confidence":6},{"trial_n":29,"n_dots":3.15,"target":"left","response":"left","rt":923,"correct":true,"confidence":4},{"trial_n":30,"n_dots":3.05,"target":"left","response":"left","rt":1053,"correct":true,"confidence":3},{"trial_n":31,"n_dots":3.05,"target":"right","response":"right","rt":675,"correct":true,"confidence":6},{"trial_n":32,"n_dots":2.95,"target":"left","response":"left","rt":927,"correct":true,"confidence":5},{"trial_n":33,"n_dots":2.95,"target":"right","response":"right","rt":526,"correct":true,"confidence":6},{"trial_n":34,"n_dots":2.85,"target":"right","response":"right","rt":653,"correct":true,"confidence":4},{"trial_n":35,"n_dots":2.85,"target":"left","response":"left","rt":787,"correct":true,"confidence":2},{"trial_n":36,"n_dots":2.75,"target":"right","response":"right","rt":729,"correct":true,"confidence":5},{"trial_n":37,"n_dots":2.75,"target":"right","response":"left","rt":1192,"correct":false,"confidence":6},{"trial_n":38,"n_dots":2.85,"target":"right","response":"left","rt":1162,"correct":false,"confidence":2},{"trial_n":39,"n_dots":2.95,"target":"left","response":"left","rt":600,"correct":true,"confidence":5},{"trial_n":40,"n_dots":2.95,"target":"right","response":"right","rt":1195,"correct":true,"confidence":3},{"trial_n":41,"n_dots":2.85,"target":"right","response":"right","rt":1052,"correct":true,"confidence":6},{"trial_n":42,"n_dots":2.85,"target":"left","response":"left","rt":3511,"correct":true,"confidence":1},{"trial_n":43,"n_dots":2.75,"target":"right","response":"right","rt":789,"correct":true,"confidence":5},{"trial_n":44,"n_dots":2.75,"target":"left","response":"left","rt":954,"correct":true,"confidence":4},{"trial_n":45,"n_dots":2.65,"target":"left","response":"left","rt":1095,"correct":true,"confidence":4},{"trial_n":46,"n_dots":2.65,"target":"right","response":"left","rt":905,"correct":false,"confidence":4},{"trial_n":47,"n_dots":2.75,"target":"left","response":"left","rt":864,"correct":true,"confidence":6},{"trial_n":48,"n_dots":2.75,"target":"left","response":"right","rt":603,"correct":false,"confidence":2},{"trial_n":49,"n_dots":2.85,"target":"right","response":"left","rt":685,"correct":false,"confidence":2},{"trial_n":50,"n_dots":2.95,"target":"right","response":"right","rt":884,"correct":true,"confidence":5},{"trial_n":51,"n_dots":2.95,"target":"right","response":"right","rt":686,"correct":true,"confidence":5},{"trial_n":52,"n_dots":2.85,"target":"left","response":"left","rt":532,"correct":true,"confidence":6},{"trial_n":53,"n_dots":2.85,"target":"right","response":"right","rt":947,"correct":true,"confidence":2},{"trial_n":54,"n_dots":2.75,"target":"left","response":"right","rt":1119,"correct":false,"confidence":2},{"trial_n":55,"n_dots":2.85,"target":"left","response":"left","rt":459,"correct":true,"confidence":6},{"trial_n":56,"n_dots":2.85,"target":"right","response":"right","rt":1070,"correct":true,"confidence":2},{"trial_n":57,"n_dots":2.75,"target":"left","response":"right","rt":739,"correct":false,"confidence":4},{"trial_n":58,"n_dots":2.85,"target":"right","response":"right","rt":465,"correct":true,"confidence":6},{"trial_n":59,"n_dots":2.85,"target":"right","response":"right","rt":1014,"correct":true,"confidence":6},{"trial_n":60,"n_dots":2.75,"target":"left","response":"left","rt":953,"correct":true,"confidence":2},{"trial_n":61,"n_dots":2.75,"target":"right","response":"right","rt":128,"correct":true,"confidence":5},{"trial_n":62,"n_dots":2.65,"target":"right","response":"right","rt":550,"correct":true,"confidence":5},{"trial_n":63,"n_dots":2.65,"target":"left","response":"right","rt":748,"correct":false,"confidence":5},{"trial_n":64,"n_dots":2.75,"target":"left","response":"left","rt":502,"correct":true,"confidence":5},{"trial_n":65,"n_dots":2.75,"target":"left","response":"left","rt":781,"correct":true,"confidence":4},{"trial_n":66,"n_dots":2.65,"target":"right","response":"left","rt":720,"correct":false,"confidence":4},{"trial_n":67,"n_dots":2.75,"target":"left","response":"right","rt":638,"correct":false,"confidence":4},{"trial_n":68,"n_dots":2.85,"target":"left","response":"left","rt":540,"correct":true,"confidence":3},{"trial_n":69,"n_dots":2.85,"target":"left","response":"right","rt":667,"correct":false,"confidence":4},{"trial_n":70,"n_dots":2.95,"target":"right","response":"left","rt":1504,"correct":false,"confidence":1},{"trial_n":71,"n_dots":3.05,"target":"left","response":"right","rt":679,"correct":false,"confidence":1},{"trial_n":72,"n_dots":3.15,"target":"left","response":"left","rt":1564,"correct":true,"confidence":1},{"trial_n":73,"n_dots":3.15,"target":"left","response":"left","rt":562,"correct":true,"confidence":6},{"trial_n":74,"n_dots":3.05,"target":"left","response":"left","rt":739,"correct":true,"confidence":6},{"trial_n":75,"n_dots":3.05,"target":"left","response":"left","rt":652,"correct":true,"confidence":4},{"trial_n":76,"n_dots":2.95,"target":"right","response":"right","rt":541,"correct":true,"confidence":4},{"trial_n":77,"n_dots":2.95,"target":"left","response":"left","rt":435,"correct":true,"confidence":6},{"trial_n":78,"n_dots":2.85,"target":"left","response":"left","rt":547,"correct":true,"confidence":2},{"trial_n":79,"n_dots":2.85,"target":"right","response":"left","rt":567,"correct":false,"confidence":6},{"trial_n":80,"n_dots":2.95,"target":"right","response":"right","rt":421,"correct":true,"confidence":6},{"trial_n":81,"n_dots":2.95,"target":"right","response":"right","rt":722,"correct":true,"confidence":6},{"trial_n":82,"n_dots":2.85,"target":"right","response":"right","rt":420,"correct":true,"confidence":6},{"trial_n":83,"n_dots":2.85,"target":"left","response":"left","rt":588,"correct":true,"confidence":2},{"trial_n":84,"n_dots":2.75,"target":"left","response":"right","rt":1042,"correct":false,"confidence":3},{"trial_n":85,"n_dots":2.85,"target":"left","response":"left","rt":437,"correct":true,"confidence":6},{"trial_n":86,"n_dots":2.85,"target":"right","response":"right","rt":503,"correct":true,"confidence":6},{"trial_n":87,"n_dots":2.75,"target":"right","response":"right","rt":398,"correct":true,"confidence":5},{"trial_n":88,"n_dots":2.75,"target":"right","response":"right","rt":525,"correct":true,"confidence":5},{"trial_n":89,"n_dots":2.65,"target":"left","response":"left","rt":278,"correct":true,"confidence":6},{"trial_n":90,"n_dots":2.65,"target":"right","response":"left","rt":472,"correct":false,"confidence":5},{"trial_n":91,"n_dots":2.75,"target":"left","response":"right","rt":485,"correct":false,"confidence":5},{"trial_n":92,"n_dots":2.85,"target":"left","response":"left","rt":427,"correct":true,"confidence":5},{"trial_n":93,"n_dots":2.85,"target":"right","response":"left","rt":412,"correct":false,"confidence":5},{"trial_n":94,"n_dots":2.95,"target":"right","response":"right","rt":352,"correct":true,"confidence":5},{"trial_n":95,"n_dots":2.95,"target":"right","response":"right","rt":374,"correct":true,"confidence":5},{"trial_n":96,"n_dots":2.85,"target":"right","response":"right","rt":525,"correct":true,"confidence":5},{"trial_n":97,"n_dots":2.85,"target":"left","response":"left","rt":649,"correct":true,"confidence":5},{"trial_n":98,"n_dots":2.75,"target":"left","response":"left","rt":347,"correct":true,"confidence":5},{"trial_n":99,"n_dots":2.75,"target":"left","response":"left","rt":345,"correct":true,"confidence":5},{"trial_n":100,"n_dots":2.65,"target":"left","response":"left","rt":974,"correct":true,"confidence":5},{"trial_n":101,"n_dots":2.65,"target":"left","response":"left","rt":512,"correct":true,"confidence":3},{"trial_n":102,"n_dots":2.55,"target":"right","response":"right","rt":384,"correct":true,"confidence":6},{"trial_n":103,"n_dots":2.55,"target":"right","response":"right","rt":372,"correct":true,"confidence":6},{"trial_n":104,"n_dots":2.45,"target":"left","response":"right","rt":1267,"correct":false,"confidence":4},{"trial_n":105,"n_dots":2.55,"target":"right","response":"right","rt":341,"correct":true,"confidence":6},{"trial_n":106,"n_dots":2.55,"target":"left","response":"left","rt":271,"correct":true,"confidence":6},{"trial_n":107,"n_dots":2.45,"target":"right","response":"right","rt":570,"correct":true,"confidence":4},{"trial_n":108,"n_dots":2.45,"target":"right","response":"right","rt":513,"correct":true,"confidence":6},{"trial_n":109,"n_dots":2.35,"target":"right","response":"left","rt":363,"correct":false,"confidence":6},{"trial_n":110,"n_dots":2.45,"target":"left","response":"left","rt":72,"correct":true,"confidence":6},{"trial_n":111,"n_dots":2.45,"target":"right","response":"right","rt":579,"correct":true,"confidence":5},{"trial_n":112,"n_dots":2.35,"target":"left","response":"left","rt":457,"correct":true,"confidence":5},{"trial_n":113,"n_dots":2.35,"target":"right","response":"left","rt":180,"correct":false,"confidence":6},{"trial_n":114,"n_dots":2.45,"target":"left","response":"left","rt":322,"correct":true,"confidence":5},{"trial_n":115,"n_dots":2.45,"target":"left","response":"left","rt":442,"correct":true,"confidence":5},{"trial_n":116,"n_dots":2.35,"target":"right","response":"left","rt":383,"correct":false,"confidence":6},{"trial_n":117,"n_dots":2.45,"target":"left","response":"left","rt":351,"correct":true,"confidence":6},{"trial_n":118,"n_dots":2.45,"target":"left","response":"left","rt":428,"correct":true,"confidence":6},{"trial_n":119,"n_dots":2.35,"target":"right","response":"right","rt":580,"correct":true,"confidence":5},{"trial_n":120,"n_dots":2.35,"target":"left","response":"left","rt":277,"correct":true,"confidence":6},{"trial_n":121,"n_dots":2.25,"target":"right","response":"right","rt":326,"correct":true,"confidence":6},{"trial_n":122,"n_dots":2.25,"target":"left","response":"left","rt":713,"correct":true,"confidence":3},{"trial_n":123,"n_dots":2.15,"target":"right","response":"right","rt":403,"correct":true,"confidence":3},{"trial_n":124,"n_dots":2.15,"target":"left","response":"left","rt":256,"correct":true,"confidence":6},{"trial_n":125,"n_dots":2.05,"target":"left","response":"right","rt":439,"correct":false,"confidence":6},{"trial_n":126,"n_dots":2.15,"target":"left","response":"left","rt":474,"correct":true,"confidence":5},{"trial_n":127,"n_dots":2.15,"target":"left","response":"left","rt":1364,"correct":true,"confidence":1},{"trial_n":128,"n_dots":2.05,"target":"left","response":"left","rt":405,"correct":true,"confidence":6},{"trial_n":129,"n_dots":2.05,"target":"right","response":"left","rt":628,"correct":false,"confidence":4},{"trial_n":130,"n_dots":2.15,"target":"left","response":"right","rt":915,"correct":false,"confidence":3},{"trial_n":131,"n_dots":2.25,"target":"left","response":"left","rt":338,"correct":true,"confidence":6},{"trial_n":132,"n_dots":2.25,"target":"right","response":"left","rt":450,"correct":false,"confidence":4},{"trial_n":133,"n_dots":2.35,"target":"right","response":"left","rt":496,"correct":false,"confidence":4},{"trial_n":134,"n_dots":2.45,"target":"left","response":"left","rt":318,"correct":true,"confidence":6},{"trial_n":135,"n_dots":2.45,"target":"right","response":"left","rt":425,"correct":false,"confidence":3},{"trial_n":136,"n_dots":2.55,"target":"right","response":"left","rt":438,"correct":false,"confidence":5},{"trial_n":137,"n_dots":2.65,"target":"left","response":"left","rt":318,"correct":true,"confidence":6},{"trial_n":138,"n_dots":2.65,"target":"right","response":"left","rt":466,"correct":false,"confidence":4},{"trial_n":139,"n_dots":2.75,"target":"left","response":"left","rt":195,"correct":true,"confidence":6},{"trial_n":140,"n_dots":2.75,"target":"right","response":"right","rt":233,"correct":true,"confidence":6},{"trial_n":141,"n_dots":2.65,"target":"left","response":"left","rt":445,"correct":true,"confidence":6},{"trial_n":142,"n_dots":2.65,"target":"right","response":"right","rt":338,"correct":true,"confidence":6},{"trial_n":143,"n_dots":2.55,"target":"left","response":"left","rt":647,"correct":true,"confidence":5},{"trial_n":144,"n_dots":2.55,"target":"right","response":"left","rt":360,"correct":false,"confidence":5},{"trial_n":145,"n_dots":2.65,"target":"right","response":"right","rt":296,"correct":true,"confidence":6},{"trial_n":146,"n_dots":2.65,"target":"right","response":"right","rt":638,"correct":true,"confidence":4},{"trial_n":147,"n_dots":2.55,"target":"left","response":"right","rt":353,"correct":false,"confidence":6},{"trial_n":148,"n_dots":2.65,"target":"left","response":"left","rt":426,"correct":true,"confidence":5},{"trial_n":149,"n_dots":2.65,"target":"right","response":"right","rt":388,"correct":true,"confidence":6},{"trial_n":150,"n_dots":2.55,"target":"right","response":"right","rt":301,"correct":true,"confidence":6},{"trial_n":151,"n_dots":2.55,"target":"right","response":"right","rt":250,"correct":true,"confidence":6},{"trial_n":152,"n_dots":2.45,"target":"left","response":"right","rt":522,"correct":false,"confidence":5},{"trial_n":153,"n_dots":2.55,"target":"right","response":"right","rt":83,"correct":true,"confidence":6},{"trial_n":154,"n_dots":2.55,"target":"left","response":"right","rt":265,"correct":false,"confidence":6},{"trial_n":155,"n_dots":2.65,"target":"right","response":"right","rt":98,"correct":true,"confidence":5},{"trial_n":156,"n_dots":2.65,"target":"left","response":"right","rt":128,"correct":false,"confidence":5},{"trial_n":157,"n_dots":2.75,"target":"left","response":"left","rt":455,"correct":true,"confidence":6},{"trial_n":158,"n_dots":2.75,"target":"right","response":"right","rt":393,"correct":true,"confidence":5},{"trial_n":159,"n_dots":2.65,"target":"left","response":"left","rt":580,"correct":true,"confidence":5},{"trial_n":160,"n_dots":2.65,"target":"right","response":"left","rt":420,"correct":false,"confidence":4},{"trial_n":161,"n_dots":2.75,"target":"right","response":"right","rt":353,"correct":true,"confidence":6},{"trial_n":162,"n_dots":2.75,"target":"left","response":"left","rt":255,"correct":true,"confidence":6},{"trial_n":163,"n_dots":2.65,"target":"left","response":"left","rt":428,"correct":true,"confidence":5},{"trial_n":164,"n_dots":2.65,"target":"left","response":"left","rt":157,"correct":true,"confidence":6},{"trial_n":165,"n_dots":2.55,"target":"right","response":"right","rt":415,"correct":true,"confidence":6},{"trial_n":166,"n_dots":2.55,"target":"right","response":"left","rt":173,"correct":false,"confidence":6},{"trial_n":167,"n_dots":2.65,"target":"left","response":"left","rt":267,"correct":true,"confidence":6},{"trial_n":168,"n_dots":2.65,"target":"left","response":"left","rt":639,"correct":true,"confidence":2},{"trial_n":169,"n_dots":2.55,"target":"right","response":"right","rt":698,"correct":true,"confidence":3},{"trial_n":170,"n_dots":2.55,"target":"right","response":"right","rt":488,"correct":true,"confidence":3},{"trial_n":171,"n_dots":2.45,"target":"right","response":"left","rt":376,"correct":false,"confidence":5},{"trial_n":172,"n_dots":2.55,"target":"left","response":"left","rt":329,"correct":true,"confidence":4},{"trial_n":173,"n_dots":2.55,"target":"right","response":"right","rt":361,"correct":true,"confidence":6},{"trial_n":174,"n_dots":2.45,"target":"left","response":"left","rt":405,"correct":true,"confidence":5},{"trial_n":175,"n_dots":2.45,"target":"right","response":"left","rt":482,"correct":false,"confidence":2},{"trial_n":176,"n_dots":2.55,"target":"left","response":"left","rt":279,"correct":true,"confidence":3},{"trial_n":177,"n_dots":2.55,"target":"right","response":"left","rt":497,"correct":false,"confidence":3},{"trial_n":178,"n_dots":2.65,"target":"right","response":"right","rt":422,"correct":true,"confidence":4},{"trial_n":179,"n_dots":2.65,"target":"left","response":"right","rt":596,"correct":false,"confidence":3},{"trial_n":180,"n_dots":2.75,"target":"right","response":"right","rt":254,"correct":true,"confidence":5},{"trial_n":181,"n_dots":2.75,"target":"right","response":"right","rt":363,"correct":true,"confidence":5},{"trial_n":182,"n_dots":2.65,"target":"right","response":"right","rt":404,"correct":true,"confidence":3},{"trial_n":183,"n_dots":2.65,"target":"left","response":"right","rt":650,"correct":false,"confidence":4},{"trial_n":184,"n_dots":2.75,"target":"right","response":"right","rt":379,"correct":true,"confidence":4},{"trial_n":185,"n_dots":2.75,"target":"right","response":"right","rt":438,"correct":true,"confidence":4},{"trial_n":186,"n_dots":2.65,"target":"right","response":"right","rt":374,"correct":true,"confidence":4},{"trial_n":187,"n_dots":2.65,"target":"left","response":"left","rt":3943,"correct":true,"confidence":1},{"trial_n":188,"n_dots":2.55,"target":"left","response":"left","rt":429,"correct":true,"confidence":3},{"trial_n":189,"n_dots":2.55,"target":"right","response":"left","rt":427,"correct":false,"confidence":4},{"trial_n":190,"n_dots":2.65,"target":"left","response":"left","rt":404,"correct":true,"confidence":2},{"trial_n":191,"n_dots":2.65,"target":"right","response":"left","rt":285,"correct":false,"confidence":3},{"trial_n":192,"n_dots":2.75,"target":"right","response":"right","rt":375,"correct":true,"confidence":3},{"trial_n":193,"n_dots":2.75,"target":"left","response":"left","rt":142,"correct":true,"confidence":4},{"trial_n":194,"n_dots":2.65,"target":"left","response":"left","rt":4,"correct":true,"confidence":5}]