[{"trial_n":1,"n_dots":4.25,"target":"right","response":"left","rt":3477,"correct":false,"confidence":-1},{"trial_n":2,"n_dots":4.25,"target":"left","response":"left","rt":418,"correct":true,"confidence":-1},{"trial_n":3,"n_dots":4.25,"target":"left","response":"right","rt":635,"correct":false,"confidence":-1},{"trial_n":4,"n_dots":4.65,"target":"right","response":"right","rt":13402,"correct":true,"confidence":-1},{"trial_n":5,"n_dots":4.65,"target":"left","response":"left","rt":553,"correct":true,"confidence":-1},{"trial_n":6,"n_dots":4.25,"target":"right","response":"right","rt":400,"correct":true,"confidence":-1},{"trial_n":7,"n_dots":4.25,"target":"right","response":"right","rt":555,"correct":true,"confidence":-1},{"trial_n":8,"n_dots":4.05,"target":"right","response":"right","rt":976,"correct":true,"confidence":-1},{"trial_n":9,"n_dots":4.05,"target":"right","response":"right","rt":283,"correct":true,"confidence":-1},{"trial_n":10,"n_dots":3.85,"target":"left","response":"left","rt":276,"correct":true,"confidence":-1},{"trial_n":11,"n_dots":3.85,"target":"left","response":"left","rt":304,"correct":true,"confidence":-1},{"trial_n":12,"n_dots":3.65,"target":"left","response":"left","rt":320,"correct":true,"confidence":-1},{"trial_n":13,"n_dots":3.65,"target":"left","response":"left","rt":231,"correct":true,"confidence":-1},{"trial_n":14,"n_dots":3.55,"target":"right","response":"right","rt":294,"correct":true,"confidence":-1},{"trial_n":15,"n_dots":3.55,"target":"right","response":"right","rt":302,"correct":true,"confidence":-1},{"trial_n":16,"n_dots":3.45,"target":"right","response":"right","rt":304,"correct":true,"confidence":-1},{"trial_n":17,"n_dots":3.45,"target":"left","response":"left","rt":233,"correct":true,"confidence":-1},{"trial_n":18,"n_dots":3.35,"target":"left","response":"left","rt":291,"correct":true,"confidence":-1},{"trial_n":19,"n_dots":3.35,"target":"right","response":"right","rt":241,"correct":true,"confidence":-1},{"trial_n":20,"n_dots":3.25,"target":"right","response":"right","rt":567,"correct":true,"confidence":-1},{"trial_n":21,"n_dots":3.25,"target":"left","response":"left","rt":72,"correct":true,"confidence":-1},{"trial_n":22,"n_dots":3.15,"target":"left","response":"right","rt":302,"correct":false,"confidence":-1},{"trial_n":23,"n_dots":3.25,"target":"left","response":"left","rt":306,"correct":true,"confidence":-1},{"trial_n":24,"n_dots":3.25,"target":"left","response":"left","rt":453,"correct":true,"confidence":-1},{"trial_n":25,"n_dots":3.15,"target":"left","response":"left","rt":361,"correct":true,"confidence":-1},{"trial_n":26,"n_dots":3.15,"target":"left","response":"left","rt":322,"correct":true,"confidence":-1},{"trial_n":27,"n_dots":3.05,"target":"left","response":"right","rt":271,"correct":false,"confidence":3},{"trial_n":28,"n_dots":3.15,"target":"right","response":"right","rt":2230,"correct":true,"confidence":5},{"trial_n":29,"n_dots":3.15,"target":"right","response":"right","rt":409,"correct":true,"confidence":5},{"trial_n":30,"n_dots":3.05,"target":"right","response":"right","rt":747,"correct":true,"confidence":3},{"trial_n":31,"n_dots":3.05,"target":"right","response":"right","rt":276,"correct":true,"confidence":3},{"trial_n":32,"n_dots":2.95,"target":"right","response":"right","rt":294,"correct":true,"confidence":4},{"trial_n":33,"n_dots":2.95,"target":"left","response":"left","rt":257,"correct":true,"confidence":6},{"trial_n":34,"n_dots":2.85,"target":"right","response":"left","rt":460,"correct":false,"confidence":2},{"trial_n":35,"n_dots":2.95,"target":"left","response":"left","rt":932,"correct":true,"confidence":2},{"trial_n":36,"n_dots":2.95,"target":"left","response":"left","rt":242,"correct":true,"confidence":2},{"trial_n":37,"n_dots":2.85,"target":"left","response":"left","rt":468,"correct":true,"confidence":6},{"trial_n":38,"n_dots":2.85,"target":"right","response":"left","rt":547,"correct":false,"confidence":1},{"trial_n":39,"n_dots":2.95,"target":"right","response":"right","rt":263,"correct":true,"confidence":1},{"trial_n":40,"n_dots":2.95,"target":"left","response":"left","rt":418,"correct":true,"confidence":5},{"trial_n":41,"n_dots":2.85,"target":"left","response":"left","rt":274,"correct":true,"confidence":3},{"trial_n":42,"n_dots":2.85,"target":"right","response":"left","rt":297,"correct":false,"confidence":3},{"trial_n":43,"n_dots":2.95,"target":"right","response":"right","rt":671,"correct":true,"confidence":1},{"trial_n":44,"n_dots":2.95,"target":"left","response":"left","rt":350,"correct":true,"confidence":6},{"trial_n":45,"n_dots":2.85,"target":"left","response":"left","rt":345,"correct":true,"confidence":5},{"trial_n":46,"n_dots":2.85,"target":"right","response":"left","rt":505,"correct":false,"confidence":5},{"trial_n":47,"n_dots":2.95,"target":"left","response":"left","rt":298,"correct":true,"confidence":3},{"trial_n":48,"n_dots":2.95,"target":"left","response":"left","rt":258,"correct":true,"confidence":4},{"trial_n":49,"n_dots":2.85,"target":"right","response":"left","rt":267,"correct":false,"confidence":4},{"trial_n":50,"n_dots":2.95,"target":"left","response":"left","rt":84,"correct":true,"confidence":3},{"trial_n":51,"n_dots":2.95,"target":"left","response":"left","rt":328,"correct":true,"confidence":4},{"trial_n":52,"n_dots":2.85,"target":"right","response":"left","rt":513,"correct":false,"confidence":4},{"trial_n":53,"n_dots":2.95,"target":"right","response":"left","rt":374,"correct":false,"confidence":3},{"trial_n":54,"n_dots":3.05,"target":"left","response":"right","rt":1343,"correct":false,"confidence":1},{"trial_n":55,"n_dots":3.15,"target":"left","response":"left","rt":411,"correct":true,"confidence":4},{"trial_n":56,"n_dots":3.15,"target":"right","response":"left","rt":363,"correct":false,"confidence":4},{"trial_n":57,"n_dots":3.25,"target":"left","response":"left","rt":492,"correct":true,"confidence":5},{"trial_n":58,"n_dots":3.25,"target":"left","response":"left","rt":478,"correct":true,"confidence":6},{"trial_n":59,"n_dots":3.15,"target":"right","response":"left","rt":476,"correct":false,"confidence":1},{"trial_n":60,"n_dots":3.25,"target":"right","response":"right","rt":444,"correct":true,"confidence":4},{"trial_n":61,"n_dots":3.25,"target":"left","response":"left","rt":489,"correct":true,"confidence":1},{"trial_n":62,"n_dots":3.15,"target":"left","response":"left","rt":354,"correct":true,"confidence":3},{"trial_n":63,"n_dots":3.15,"target":"left","response":"left","rt":351,"correct":true,"confidence":6},{"trial_n":64,"n_dots":3.05,"target":"left","response":"left","rt":430,"correct":true,"confidence":4},{"trial_n":65,"n_dots":3.05,"target":"right","response":"right","rt":399,"correct":true,"confidence":1},{"trial_n":66,"n_dots":2.95,"target":"left","response":"left","rt":312,"correct":true,"confidence":3},{"trial_n":67,"n_dots":2.95,"target":"left","response":"left","rt":580,"correct":true,"confidence":3},{"trial_n":68,"n_dots":2.85,"target":"right","response":"left","rt":1645,"correct":false,"confidence":3},{"trial_n":69,"n_dots":2.95,"target":"right","response":"left","rt":312,"correct":false,"confidence":1},{"trial_n":70,"n_dots":3.05,"target":"right","response":"right","rt":349,"correct":true,"confidence":1},{"trial_n":71,"n_dots":3.05,"target":"left","response":"left","rt":384,"correct":true,"confidence":3},{"trial_n":72,"n_dots":2.95,"target":"right","response":"left","rt":417,"correct":false,"confidence":4},{"trial_n":73,"n_dots":3.05,"target":"right","response":"left","rt":500,"correct":false,"confidence":1},{"trial_n":74,"n_dots":3.15,"target":"right","response":"left","rt":506,"correct":false,"confidence":1},{"trial_n":75,"n_dots":3.25,"target":"right","response":"left","rt":280,"correct":false,"confidence":4},{"trial_n":76,"n_dots":3.35,"target":"left","response":"left","rt":305,"correct":true,"confidence":1},{"trial_n":77,"n_dots":3.35,"target":"left","response":"left","rt":258,"correct":true,"confidence":1},{"trial_n":78,"n_dots":3.25,"target":"right","response":"left","rt":300,"correct":false,"confidence":4},{"trial_n":79,"n_dots":3.35,"target":"right","response":"left","rt":322,"correct":false,"confidence":5},{"trial_n":80,"n_dots":3.45,"target":"left","response":"left","rt":525,"correct":true,"confidence":5},{"trial_n":81,"n_dots":3.45,"target":"left","response":"left","rt":340,"correct":true,"confidence":6},{"trial_n":82,"n_dots":3.35,"target":"left","response":"left","rt":317,"correct":true,"confidence":6},{"trial_n":83,"n_dots":3.35,"target":"left","response":"left","rt":400,"correct":true,"confidence":4},{"trial_n":84,"n_dots":3.25,"target":"right","response":"left","rt":393,"correct":false,"confidence":1},{"trial_n":85,"n_dots":3.35,"target":"left","response":"left","rt":501,"correct":true,"confidence":5},{"trial_n":86,"n_dots":3.35,"target":"left","response":"left","rt":429,"correct":true,"confidence":5},{"trial_n":87,"n_dots":3.25,"target":"right","response":"left","rt":412,"correct":false,"confidence":1},{"trial_n":88,"n_dots":3.35,"target":"right","response":"left","rt":404,"correct":false,"confidence":1},{"trial_n":89,"n_dots":3.45,"target":"left","response":"left","rt":275,"correct":true,"confidence":1},{"trial_n":90,"n_dots":3.45,"target":"right","response":"right","rt":548,"correct":true,"confidence":1},{"trial_n":91,"n_dots":3.35,"target":"right","response":"left","rt":312,"correct":false,"confidence":1},{"trial_n":92,"n_dots":3.45,"target":"left","response":"left","rt":456,"correct":true,"confidence":1},{"trial_n":93,"n_dots":3.45,"target":"left","response":"left","rt":343,"correct":true,"confidence":3},{"trial_n":94,"n_dots":3.35,"target":"left","response":"left","rt":349,"correct":true,"confidence":4},{"trial_n":95,"n_dots":3.35,"target":"right","response":"right","rt":345,"correct":true,"confidence":1},{"trial_n":96,"n_dots":3.25,"target":"right","response":"right","rt":315,"correct":true,"confidence":4},{"trial_n":97,"n_dots":3.25,"target":"left","response":"left","rt":382,"correct":true,"confidence":4},{"trial_n":98,"n_dots":3.15,"target":"left","response":"left","rt":862,"correct":true,"confidence":1},{"trial_n":99,"n_dots":3.15,"target":"right","response":"right","rt":267,"correct":true,"confidence":1},{"trial_n":100,"n_dots":3.05,"target":"left","response":"left","rt":300,"correct":true,"confidence":4},{"trial_n":101,"n_dots":3.05,"target":"left","response":"left","rt":234,"correct":true,"confidence":4},{"trial_n":102,"n_dots":2.95,"target":"left","response":"left","rt":298,"correct":true,"confidence":4},{"trial_n":103,"n_dots":2.95,"target":"right","response":"right","rt":417,"correct":true,"confidence":1},{"trial_n":104,"n_dots":2.85,"target":"left","response":"left","rt":294,"correct":true,"confidence":4},{"trial_n":105,"n_dots":2.85,"target":"left","response":"left","rt":479,"correct":true,"confidence":3},{"trial_n":106,"n_dots":2.75,"target":"right","response":"left","rt":632,"correct":false,"confidence":1},{"trial_n":107,"n_dots":2.85,"target":"right","response":"right","rt":239,"correct":true,"confidence":1},{"trial_n":108,"n_dots":2.85,"target":"left","response":"right","rt":446,"correct":false,"confidence":1},{"trial_n":109,"n_dots":2.95,"target":"right","response":"left","rt":92,"correct":false,"confidence":1},{"trial_n":110,"n_dots":3.05,"target":"right","response":"right","rt":340,"correct":true,"confidence":1},{"trial_n":111,"n_dots":3.05,"target":"left","response":"left","rt":427,"correct":true,"confidence":1},{"trial_n":112,"n_dots":2.95,"target":"right","response":"left","rt":307,"correct":false,"confidence":4},{"trial_n":113,"n_dots":3.05,"target":"right","response":"left","rt":285,"correct":false,"confidence":5},{"trial_n":114,"n_dots":3.15,"target":"left","response":"left","rt":346,"correct":true,"confidence":4},{"trial_n":115,"n_dots":3.15,"target":"left","response":"left","rt":321,"correct":true,"confidence":6},{"trial_n":116,"n_dots":3.05,"target":"left","response":"left","rt":307,"correct":true,"confidence":6},{"trial_n":117,"n_dots":3.05,"target":"right","response":"left","rt":284,"correct":false,"confidence":5},{"trial_n":118,"n_dots":3.15,"target":"left","response":"left","rt":167,"correct":true,"confidence":4},{"trial_n":119,"n_dots":3.15,"target":"left","response":"left","rt":290,"correct":true,"confidence":4},{"trial_n":120,"n_dots":3.05,"target":"right","response":"right","rt":433,"correct":true,"confidence":1},{"trial_n":121,"n_dots":3.05,"target":"left","response":"left","rt":302,"correct":true,"confidence":5},{"trial_n":122,"n_dots":2.95,"target":"right","response":"left","rt":441,"correct":false,"confidence":4},{"trial_n":123,"n_dots":3.05,"target":"right","response":"left","rt":342,"correct":false,"confidence":4},{"trial_n":124,"n_dots":3.15,"target":"right","response":"left","rt":943,"correct":false,"confidence":4},{"trial_n":125,"n_dots":3.25,"target":"right","response":"left","rt":366,"correct":false,"confidence":5},{"trial_n":126,"n_dots":3.35,"target":"left","response":"left","rt":295,"correct":true,"confidence":6},{"trial_n":127,"n_dots":3.35,"target":"right","response":"right","rt":160,"correct":true,"confidence":2},{"trial_n":128,"n_dots":3.25,"target":"left","response":"left","rt":369,"correct":true,"confidence":1},{"trial_n":129,"n_dots":3.25,"target":"right","response":"left","rt":657,"correct":false,"confidence":4},{"trial_n":130,"n_dots":3.35,"target":"left","response":"left","rt":216,"correct":true,"confidence":5},{"trial_n":131,"n_dots":3.35,"target":"right","response":"right","rt":654,"correct":true,"confidence":4},{"trial_n":132,"n_dots":3.25,"target":"left","response":"right","rt":496,"correct":false,"confidence":1},{"trial_n":133,"n_dots":3.35,"target":"right","response":"right","rt":1366,"correct":true,"confidence":4},{"trial_n":134,"n_dots":3.35,"target":"right","response":"left","rt":537,"correct":false,"confidence":4},{"trial_n":135,"n_dots":3.45,"target":"right","response":"right","rt":270,"correct":true,"confidence":4},{"trial_n":136,"n_dots":3.45,"target":"right","response":"right","rt":372,"correct":true,"confidence":1},{"trial_n":137,"n_dots":3.35,"target":"left","response":"left","rt":407,"correct":true,"confidence":1},{"trial_n":138,"n_dots":3.35,"target":"right","response":"right","rt":61,"correct":true,"confidence":4},{"trial_n":139,"n_dots":3.25,"target":"right","response":"right","rt":488,"correct":true,"confidence":1},{"trial_n":140,"n_dots":3.25,"target":"left","response":"left","rt":356,"correct":true,"confidence":1},{"trial_n":141,"n_dots":3.15,"target":"right","response":"right","rt":348,"correct":true,"confidence":1},{"trial_n":142,"n_dots":3.15,"target":"right","response":"right","rt":404,"correct":true,"confidence":4},{"trial_n":143,"n_dots":3.05,"target":"left","response":"left","rt":82,"correct":true,"confidence":4},{"trial_n":144,"n_dots":3.05,"target":"left","response":"left","rt":339,"correct":true,"confidence":5},{"trial_n":145,"n_dots":2.95,"target":"left","response":"left","rt":566,"correct":true,"confidence":4},{"trial_n":146,"n_dots":2.95,"target":"left","response":"left","rt":286,"correct":true,"confidence":4},{"trial_n":147,"n_dots":2.85,"target":"right","response":"right","rt":491,"correct":true,"confidence":1},{"trial_n":148,"n_dots":2.85,"target":"right","response":"right","rt":259,"correct":true,"confidence":4},{"trial_n":149,"n_dots":2.75,"target":"right","response":"left","rt":400,"correct":false,"confidence":1},{"trial_n":150,"n_dots":2.85,"target":"left","response":"left","rt":558,"correct":true,"confidence":1},{"trial_n":151,"n_dots":2.85,"target":"left","response":"left","rt":477,"correct":true,"confidence":1},{"trial_n":152,"n_dots":2.75,"target":"left","response":"left","rt":440,"correct":true,"confidence":1},{"trial_n":153,"n_dots":2.75,"target":"right","response":"left","rt":283,"correct":false,"confidence":1},{"trial_n":154,"n_dots":2.85,"target":"right","response":"right","rt":632,"correct":true,"confidence":1},{"trial_n":155,"n_dots":2.85,"target":"left","response":"left","rt":298,"correct":true,"confidence":1},{"trial_n":156,"n_dots":2.75,"target":"right","response":"right","rt":172,"correct":true,"confidence":1},{"trial_n":157,"n_dots":2.75,"target":"right","response":"left","rt":6,"correct":false,"confidence":4},{"trial_n":158,"n_dots":2.85,"target":"right","response":"right","rt":126,"correct":true,"confidence":4},{"trial_n":159,"n_dots":2.85,"target":"left","response":"left","rt":350,"correct":true,"confidence":4},{"trial_n":160,"n_dots":2.75,"target":"right","response":"left","rt":358,"correct":false,"confidence":1},{"trial_n":161,"n_dots":2.85,"target":"left","response":"left","rt":269,"correct":true,"confidence":4},{"trial_n":162,"n_dots":2.85,"target":"right","response":"left","rt":332,"correct":false,"confidence":4},{"trial_n":163,"n_dots":2.95,"target":"left","response":"left","rt":38,"correct":true,"confidence":1},{"trial_n":164,"n_dots":2.95,"target":"right","response":"left","rt":424,"correct":false,"confidence":1},{"trial_n":165,"n_dots":3.05,"target":"right","response":"left","rt":555,"correct":false,"confidence":1},{"trial_n":166,"n_dots":3.15,"target":"left","response":"left","rt":450,"correct":true,"confidence":4},{"trial_n":167,"n_dots":3.15,"target":"left","response":"left","rt":249,"correct":true,"confidence":4},{"trial_n":168,"n_dots":3.05,"target":"left","response":"left","rt":313,"correct":true,"confidence":6},{"trial_n":169,"n_dots":3.05,"target":"right","response":"left","rt":315,"correct":false,"confidence":6},{"trial_n":170,"n_dots":3.15,"target":"right","response":"left","rt":293,"correct":false,"confidence":4},{"trial_n":171,"n_dots":3.25,"target":"left","response":"left","rt":309,"correct":true,"confidence":5},{"trial_n":172,"n_dots":3.25,"target":"right","response":"left","rt":161,"correct":false,"confidence":5},{"trial_n":173,"n_dots":3.35,"target":"left","response":"left","rt":304,"correct":true,"confidence":1},{"trial_n":174,"n_dots":3.35,"target":"right","response":"right","rt":282,"correct":true,"confidence":4},{"trial_n":175,"n_dots":3.25,"target":"left","response":"left","rt":252,"correct":true,"confidence":5},{"trial_n":176,"n_dots":3.25,"target":"left","response":"left","rt":313,"correct":true,"confidence":5},{"trial_n":177,"n_dots":3.15,"target":"left","response":"left","rt":331,"correct":true,"confidence":5},{"trial_n":178,"n_dots":3.15,"target":"right","response":"right","rt":207,"correct":true,"confidence":5},{"trial_n":179,"n_dots":3.05,"target":"right","response":"left","rt":323,"correct":false,"confidence":5},{"trial_n":180,"n_dots":3.15,"target":"right","response":"right","rt":391,"correct":true,"confidence":5},{"trial_n":181,"n_dots":3.15,"target":"left","response":"left","rt":351,"correct":true,"confidence":5},{"trial_n":182,"n_dots":3.05,"target":"right","response":"left","rt":613,"correct":false,"confidence":1},{"trial_n":183,"n_dots":3.15,"target":"left","response":"right","rt":480,"correct":false,"confidence":1},{"trial_n":184,"n_dots":3.25,"target":"right","response":"right","rt":1346,"correct":true,"confidence":4},{"trial_n":185,"n_dots":3.25,"target":"right","response":"left","rt":339,"correct":false,"confidence":4},{"trial_n":186,"n_dots":3.35,"target":"right","response":"right","rt":277,"correct":true,"confidence":4},{"trial_n":187,"n_dots":3.35,"target":"left","response":"left","rt":301,"correct":true,"confidence":4},{"trial_n":188,"n_dots":3.25,"target":"right","response":"right","rt":129,"correct":true,"confidence":5},{"trial_n":189,"n_dots":3.25,"target":"right","response":"right","rt":431,"correct":true,"confidence":5},{"trial_n":190,"n_dots":3.15,"target":"left","response":"left","rt":262,"correct":true,"confidence":5},{"trial_n":191,"n_dots":3.15,"target":"left","response":"left","rt":483,"correct":true,"confidence":1},{"trial_n":192,"n_dots":3.05,"target":"right","response":"right","rt":454,"correct":true,"confidence":5},{"trial_n":193,"n_dots":3.05,"target":"left","response":"left","rt":408,"correct":true,"confidence":1},{"trial_n":194,"n_dots":2.95,"target":"right","response":"right","rt":338,"correct":true,"confidence":1}]