[{"trial_n":1,"n_dots":4.25,"target":"right","response":"left","rt":2505.9999999999,"correct":false,"confidence":-1},{"trial_n":2,"n_dots":4.25,"target":"right","response":"right","rt":858,"correct":true,"confidence":-1},{"trial_n":3,"n_dots":4.25,"target":"right","response":"left","rt":812,"correct":false,"confidence":-1},{"trial_n":4,"n_dots":4.65,"target":"left","response":"left","rt":370,"correct":true,"confidence":-1},{"trial_n":5,"n_dots":4.65,"target":"right","response":"right","rt":404.99999999994,"correct":true,"confidence":-1},{"trial_n":6,"n_dots":4.25,"target":"right","response":"right","rt":411,"correct":true,"confidence":-1},{"trial_n":7,"n_dots":4.25,"target":"right","response":"left","rt":593,"correct":false,"confidence":-1},{"trial_n":8,"n_dots":4.45,"target":"right","response":"left","rt":19905,"correct":false,"confidence":-1},{"trial_n":9,"n_dots":4.65,"target":"left","response":"left","rt":401,"correct":true,"confidence":-1},{"trial_n":10,"n_dots":4.65,"target":"left","response":"left","rt":67,"correct":true,"confidence":-1},{"trial_n":11,"n_dots":4.45,"target":"right","response":"right","rt":573,"correct":true,"confidence":-1},{"trial_n":12,"n_dots":4.45,"target":"right","response":"right","rt":339,"correct":true,"confidence":-1},{"trial_n":13,"n_dots":4.35,"target":"left","response":"left","rt":392,"correct":true,"confidence":-1},{"trial_n":14,"n_dots":4.35,"target":"left","response":"left","rt":327,"correct":true,"confidence":-1},{"trial_n":15,"n_dots":4.25,"target":"right","response":"right","rt":324.99999999994,"correct":true,"confidence":-1},{"trial_n":16,"n_dots":4.25,"target":"right","response":"right","rt":582,"correct":true,"confidence":-1},{"trial_n":17,"n_dots":4.15,"target":"left","response":"left","rt":314,"correct":true,"confidence":-1},{"trial_n":18,"n_dots":4.15,"target":"left","response":"left","rt":355,"correct":true,"confidence":-1},{"trial_n":19,"n_dots":4.05,"target":"left","response":"left","rt":355,"correct":true,"confidence":-1},{"trial_n":20,"n_dots":4.05,"target":"left","response":"left","rt":288,"correct":true,"confidence":-1},{"trial_n":21,"n_dots":3.95,"target":"left","response":"left","rt":53.999999999942,"correct":true,"confidence":-1},{"trial_n":22,"n_dots":3.95,"target":"right","response":"right","rt":193.00000000006,"correct":true,"confidence":-1},{"trial_n":23,"n_dots":3.85,"target":"right","response":"right","rt":80,"correct":true,"confidence":-1},{"trial_n":24,"n_dots":3.85,"target":"right","response":"right","rt":56,"correct":true,"confidence":-1},{"trial_n":25,"n_dots":3.75,"target":"right","response":"right","rt":60,"correct":true,"confidence":-1},{"trial_n":26,"n_dots":3.75,"target":"right","response":"right","rt":511,"correct":true,"confidence":-1},{"trial_n":27,"n_dots":3.65,"target":"left","response":"left","rt":385.00000000006,"correct":true,"confidence":6},{"trial_n":28,"n_dots":3.65,"target":"left","response":"left","rt":471,"correct":true,"confidence":6},{"trial_n":29,"n_dots":3.55,"target":"left","response":"left","rt":392,"correct":true,"confidence":6},{"trial_n":30,"n_dots":3.55,"target":"left","response":"left","rt":383.99999999994,"correct":true,"confidence":6},{"trial_n":31,"n_dots":3.45,"target":"left","response":"left","rt":356,"correct":true,"confidence":5},{"trial_n":32,"n_dots":3.45,"target":"left","response":"left","rt":393,"correct":true,"confidence":5},{"trial_n":33,"n_dots":3.35,"target":"left","response":"left","rt":335,"correct":true,"confidence":5},{"trial_n":34,"n_dots":3.35,"target":"right","response":"left","rt":384,"correct":false,"confidence":6},{"trial_n":35,"n_dots":3.45,"target":"left","response":"left","rt":427,"correct":true,"confidence":6},{"trial_n":36,"n_dots":3.45,"target":"left","response":"left","rt":555.99999999994,"correct":true,"confidence":6},{"trial_n":37,"n_dots":3.35,"target":"right","response":"left","rt":815,"correct":false,"confidence":3},{"trial_n":38,"n_dots":3.45,"target":"left","response":"left","rt":253,"correct":true,"confidence":3},{"trial_n":39,"n_dots":3.45,"target":"right","response":"right","rt":395,"correct":true,"confidence":4},{"trial_n":40,"n_dots":3.35,"target":"right","response":"right","rt":354,"correct":true,"confidence":4},{"trial_n":41,"n_dots":3.35,"target":"left","response":"left","rt":1207,"correct":true,"confidence":5},{"trial_n":42,"n_dots":3.25,"target":"left","response":"left","rt":292,"correct":true,"confidence":6},{"trial_n":43,"n_dots":3.25,"target":"left","response":"left","rt":377.99999999994,"correct":true,"confidence":6},{"trial_n":44,"n_dots":3.15,"target":"left","response":"left","rt":408.99999999994,"correct":true,"confidence":5},{"trial_n":45,"n_dots":3.15,"target":"right","response":"right","rt":491,"correct":true,"confidence":3},{"trial_n":46,"n_dots":3.05,"target":"left","response":"left","rt":269,"correct":true,"confidence":5},{"trial_n":47,"n_dots":3.05,"target":"left","response":"left","rt":301,"correct":true,"confidence":5},{"trial_n":48,"n_dots":2.95,"target":"right","response":"left","rt":420,"correct":false,"confidence":3},{"trial_n":49,"n_dots":3.05,"target":"right","response":"left","rt":330,"correct":false,"confidence":5},{"trial_n":50,"n_dots":3.15,"target":"right","response":"right","rt":358,"correct":true,"confidence":5},{"trial_n":51,"n_dots":3.15,"target":"right","response":"right","rt":414.00000000012,"correct":true,"confidence":2},{"trial_n":52,"n_dots":3.05,"target":"left","response":"right","rt":683.99999999994,"correct":false,"confidence":1},{"trial_n":53,"n_dots":3.15,"target":"left","response":"left","rt":363.99999999988,"correct":true,"confidence":2},{"trial_n":54,"n_dots":3.15,"target":"left","response":"left","rt":365,"correct":true,"confidence":3},{"trial_n":55,"n_dots":3.05,"target":"right","response":"right","rt":518,"correct":true,"confidence":3},{"trial_n":56,"n_dots":3.05,"target":"left","response":"left","rt":373,"correct":true,"confidence":2},{"trial_n":57,"n_dots":2.95,"target":"left","response":"left","rt":403,"correct":true,"confidence":3},{"trial_n":58,"n_dots":2.95,"target":"right","response":"right","rt":408,"correct":true,"confidence":3},{"trial_n":59,"n_dots":2.85,"target":"left","response":"left","rt":623,"correct":true,"confidence":3},{"trial_n":60,"n_dots":2.85,"target":"left","response":"left","rt":477,"correct":true,"confidence":2},{"trial_n":61,"n_dots":2.75,"target":"right","response":"left","rt":373,"correct":false,"confidence":2},{"trial_n":62,"n_dots":2.85,"target":"right","response":"right","rt":484.00000000012,"correct":true,"confidence":2},{"trial_n":63,"n_dots":2.85,"target":"right","response":"right","rt":376,"correct":true,"confidence":4},{"trial_n":64,"n_dots":2.75,"target":"right","response":"right","rt":315,"correct":true,"confidence":4},{"trial_n":65,"n_dots":2.75,"target":"right","response":"right","rt":455,"correct":true,"confidence":4},{"trial_n":66,"n_dots":2.65,"target":"left","response":"right","rt":807,"correct":false,"confidence":2},{"trial_n":67,"n_dots":2.75,"target":"left","response":"left","rt":542,"correct":true,"confidence":3},{"trial_n":68,"n_dots":2.75,"target":"right","response":"right","rt":942,"correct":true,"confidence":3},{"trial_n":69,"n_dots":2.65,"target":"right","response":"left","rt":765.00000000012,"correct":false,"confidence":3},{"trial_n":70,"n_dots":2.75,"target":"right","response":"right","rt":494,"correct":true,"confidence":4},{"trial_n":71,"n_dots":2.75,"target":"left","response":"left","rt":453,"correct":true,"confidence":4},{"trial_n":72,"n_dots":2.65,"target":"right","response":"left","rt":462,"correct":false,"confidence":2},{"trial_n":73,"n_dots":2.75,"target":"left","response":"left","rt":423,"correct":true,"confidence":5},{"trial_n":74,"n_dots":2.75,"target":"left","response":"left","rt":312,"correct":true,"confidence":5},{"trial_n":75,"n_dots":2.65,"target":"right","response":"right","rt":838,"correct":true,"confidence":2},{"trial_n":76,"n_dots":2.65,"target":"right","response":"right","rt":575,"correct":true,"confidence":2},{"trial_n":77,"n_dots":2.55,"target":"right","response":"right","rt":474,"correct":true,"confidence":2},{"trial_n":78,"n_dots":2.55,"target":"right","response":"right","rt":365,"correct":true,"confidence":1},{"trial_n":79,"n_dots":2.45,"target":"right","response":"left","rt":488.00000000012,"correct":false,"confidence":2},{"trial_n":80,"n_dots":2.55,"target":"right","response":"left","rt":299,"correct":false,"confidence":2},{"trial_n":81,"n_dots":2.65,"target":"left","response":"left","rt":341,"correct":true,"confidence":2},{"trial_n":82,"n_dots":2.65,"target":"right","response":"left","rt":1317.0000000001,"correct":false,"confidence":2},{"trial_n":83,"n_dots":2.75,"target":"left","response":"left","rt":1809,"correct":true,"confidence":4},{"trial_n":84,"n_dots":2.75,"target":"left","response":"left","rt":341,"correct":true,"confidence":5},{"trial_n":85,"n_dots":2.65,"target":"left","response":"left","rt":330,"correct":true,"confidence":5},{"trial_n":86,"n_dots":2.65,"target":"right","response":"left","rt":321,"correct":false,"confidence":2},{"trial_n":87,"n_dots":2.75,"target":"left","response":"left","rt":1521,"correct":true,"confidence":2},{"trial_n":88,"n_dots":2.75,"target":"left","response":"left","rt":366,"correct":true,"confidence":5},{"trial_n":89,"n_dots":2.65,"target":"left","response":"left","rt":363,"correct":true,"confidence":5},{"trial_n":90,"n_dots":2.65,"target":"left","response":"left","rt":325,"correct":true,"confidence":5},{"trial_n":91,"n_dots":2.55,"target":"right","response":"right","rt":349,"correct":true,"confidence":2},{"trial_n":92,"n_dots":2.55,"target":"right","response":"right","rt":486.00000000012,"correct":true,"confidence":3},{"trial_n":93,"n_dots":2.45,"target":"right","response":"left","rt":1225,"correct":false,"confidence":2},{"trial_n":94,"n_dots":2.55,"target":"right","response":"right","rt":401,"correct":true,"confidence":3},{"trial_n":95,"n_dots":2.55,"target":"right","response":"right","rt":291.99999999988,"correct":true,"confidence":2},{"trial_n":96,"n_dots":2.45,"target":"right","response":"right","rt":363,"correct":true,"confidence":4},{"trial_n":97,"n_dots":2.45,"target":"right","response":"right","rt":292,"correct":true,"confidence":4},{"trial_n":98,"n_dots":2.35,"target":"right","response":"left","rt":1070,"correct":false,"confidence":4},{"trial_n":99,"n_dots":2.45,"target":"right","response":"right","rt":432.99999999988,"correct":true,"confidence":3},{"trial_n":100,"n_dots":2.45,"target":"right","response":"left","rt":550.00000000012,"correct":false,"confidence":4},{"trial_n":101,"n_dots":2.55,"target":"right","response":"left","rt":310,"correct":false,"confidence":4},{"trial_n":102,"n_dots":2.65,"target":"right","response":"left","rt":249,"correct":false,"confidence":4},{"trial_n":103,"n_dots":2.75,"target":"left","response":"left","rt":319,"correct":true,"confidence":2},{"trial_n":104,"n_dots":2.75,"target":"right","response":"left","rt":436,"correct":false,"confidence":1},{"trial_n":105,"n_dots":2.85,"target":"left","response":"left","rt":279,"correct":true,"confidence":2},{"trial_n":106,"n_dots":2.85,"target":"left","response":"left","rt":321,"correct":true,"confidence":2},{"trial_n":107,"n_dots":2.75,"target":"left","response":"right","rt":387,"correct":false,"confidence":2},{"trial_n":108,"n_dots":2.85,"target":"right","response":"left","rt":279.99999999988,"correct":false,"confidence":3},{"trial_n":109,"n_dots":2.95,"target":"right","response":"right","rt":329.00000000012,"correct":true,"confidence":2},{"trial_n":110,"n_dots":2.95,"target":"left","response":"left","rt":305,"correct":true,"confidence":3},{"trial_n":111,"n_dots":2.85,"target":"right","response":"left","rt":485,"correct":false,"confidence":3},{"trial_n":112,"n_dots":2.95,"target":"right","response":"right","rt":324,"correct":true,"confidence":3},{"trial_n":113,"n_dots":2.95,"target":"left","response":"left","rt":702,"correct":true,"confidence":3},{"trial_n":114,"n_dots":2.85,"target":"left","response":"left","rt":976,"correct":true,"confidence":3},{"trial_n":115,"n_dots":2.85,"target":"left","response":"left","rt":443,"correct":true,"confidence":3},{"trial_n":116,"n_dots":2.75,"target":"right","response":"left","rt":1058.9999999999,"correct":false,"confidence":2},{"trial_n":117,"n_dots":2.85,"target":"right","response":"left","rt":366,"correct":false,"confidence":4},{"trial_n":118,"n_dots":2.95,"target":"right","response":"left","rt":362,"correct":false,"confidence":4},{"trial_n":119,"n_dots":3.05,"target":"left","response":"left","rt":345,"correct":true,"confidence":5},{"trial_n":120,"n_dots":3.05,"target":"left","response":"left","rt":361,"correct":true,"confidence":6},{"trial_n":121,"n_dots":2.95,"target":"left","response":"left","rt":435,"correct":true,"confidence":3},{"trial_n":122,"n_dots":2.95,"target":"left","response":"left","rt":356,"correct":true,"confidence":4},{"trial_n":123,"n_dots":2.85,"target":"left","response":"left","rt":331.00000000012,"correct":true,"confidence":4},{"trial_n":124,"n_dots":2.85,"target":"left","response":"left","rt":343,"correct":true,"confidence":4},{"trial_n":125,"n_dots":2.75,"target":"right","response":"left","rt":91,"correct":false,"confidence":2},{"trial_n":126,"n_dots":2.85,"target":"left","response":"left","rt":179,"correct":true,"confidence":3},{"trial_n":127,"n_dots":2.85,"target":"right","response":"left","rt":329,"correct":false,"confidence":1},{"trial_n":128,"n_dots":2.95,"target":"left","response":"left","rt":308.99999999988,"correct":true,"confidence":2},{"trial_n":129,"n_dots":2.95,"target":"left","response":"left","rt":436,"correct":true,"confidence":2},{"trial_n":130,"n_dots":2.85,"target":"left","response":"left","rt":359,"correct":true,"confidence":4},{"trial_n":131,"n_dots":2.85,"target":"right","response":"left","rt":376,"correct":false,"confidence":2},{"trial_n":132,"n_dots":2.95,"target":"right","response":"left","rt":363,"correct":false,"confidence":1},{"trial_n":133,"n_dots":3.05,"target":"left","response":"left","rt":354,"correct":true,"confidence":6},{"trial_n":134,"n_dots":3.05,"target":"right","response":"right","rt":405,"correct":true,"confidence":4},{"trial_n":135,"n_dots":2.95,"target":"left","response":"left","rt":117,"correct":true,"confidence":5},{"trial_n":136,"n_dots":2.95,"target":"left","response":"left","rt":406,"correct":true,"confidence":6},{"trial_n":137,"n_dots":2.85,"target":"left","response":"left","rt":462,"correct":true,"confidence":4},{"trial_n":138,"n_dots":2.85,"target":"right","response":"left","rt":309,"correct":false,"confidence":4},{"trial_n":139,"n_dots":2.95,"target":"right","response":"left","rt":578,"correct":false,"confidence":4},{"trial_n":140,"n_dots":3.05,"target":"right","response":"left","rt":148,"correct":false,"confidence":4},{"trial_n":141,"n_dots":3.15,"target":"left","response":"left","rt":408,"correct":true,"confidence":4},{"trial_n":142,"n_dots":3.15,"target":"left","response":"left","rt":415,"correct":true,"confidence":3},{"trial_n":143,"n_dots":3.05,"target":"left","response":"left","rt":229.99999999988,"correct":true,"confidence":2},{"trial_n":144,"n_dots":3.05,"target":"left","response":"left","rt":317,"correct":true,"confidence":3},{"trial_n":145,"n_dots":2.95,"target":"right","response":"left","rt":397,"correct":false,"confidence":2},{"trial_n":146,"n_dots":3.05,"target":"left","response":"left","rt":398,"correct":true,"confidence":2},{"trial_n":147,"n_dots":3.05,"target":"left","response":"left","rt":203,"correct":true,"confidence":3},{"trial_n":148,"n_dots":2.95,"target":"left","response":"left","rt":268,"correct":true,"confidence":4},{"trial_n":149,"n_dots":2.95,"target":"right","response":"right","rt":633,"correct":true,"confidence":3},{"trial_n":150,"n_dots":2.85,"target":"left","response":"left","rt":113,"correct":true,"confidence":3},{"trial_n":151,"n_dots":2.85,"target":"right","response":"left","rt":931,"correct":false,"confidence":3},{"trial_n":152,"n_dots":2.95,"target":"right","response":"right","rt":392,"correct":true,"confidence":3},{"trial_n":153,"n_dots":2.95,"target":"left","response":"right","rt":948.00000000012,"correct":false,"confidence":3},{"trial_n":154,"n_dots":3.05,"target":"left","response":"left","rt":1446,"correct":true,"confidence":1},{"trial_n":155,"n_dots":3.05,"target":"right","response":"right","rt":560.99999999988,"correct":true,"confidence":3},{"trial_n":156,"n_dots":2.95,"target":"right","response":"right","rt":492.99999999988,"correct":true,"confidence":4},{"trial_n":157,"n_dots":2.95,"target":"right","response":"right","rt":335,"correct":true,"confidence":4},{"trial_n":158,"n_dots":2.85,"target":"left","response":"left","rt":307,"correct":true,"confidence":5},{"trial_n":159,"n_dots":2.85,"target":"left","response":"left","rt":313,"correct":true,"confidence":6},{"trial_n":160,"n_dots":2.75,"target":"right","response":"right","rt":374,"correct":true,"confidence":6},{"trial_n":161,"n_dots":2.75,"target":"left","response":"left","rt":211.00000000012,"correct":true,"confidence":6},{"trial_n":162,"n_dots":2.65,"target":"left","response":"left","rt":448,"correct":true,"confidence":3},{"trial_n":163,"n_dots":2.65,"target":"right","response":"left","rt":128,"correct":false,"confidence":4},{"trial_n":164,"n_dots":2.75,"target":"left","response":"left","rt":61,"correct":true,"confidence":3},{"trial_n":165,"n_dots":2.75,"target":"right","response":"left","rt":301,"correct":false,"confidence":2},{"trial_n":166,"n_dots":2.85,"target":"right","response":"left","rt":191,"correct":false,"confidence":2},{"trial_n":167,"n_dots":2.95,"target":"right","response":"left","rt":435,"correct":false,"confidence":1},{"trial_n":168,"n_dots":3.05,"target":"right","response":"right","rt":355,"correct":true,"confidence":3},{"trial_n":169,"n_dots":3.05,"target":"left","response":"left","rt":151,"correct":true,"confidence":3},{"trial_n":170,"n_dots":2.95,"target":"right","response":"left","rt":278,"correct":false,"confidence":3},{"trial_n":171,"n_dots":3.05,"target":"right","response":"right","rt":219.99999999988,"correct":true,"confidence":3},{"trial_n":172,"n_dots":3.05,"target":"left","response":"left","rt":43,"correct":true,"confidence":3},{"trial_n":173,"n_dots":2.95,"target":"left","response":"left","rt":789.99999999988,"correct":true,"confidence":4},{"trial_n":174,"n_dots":2.95,"target":"right","response":"right","rt":196,"correct":true,"confidence":3},{"trial_n":175,"n_dots":2.85,"target":"left","response":"left","rt":1182,"correct":true,"confidence":2},{"trial_n":176,"n_dots":2.85,"target":"left","response":"left","rt":979,"correct":true,"confidence":3},{"trial_n":177,"n_dots":2.75,"target":"left","response":"right","rt":1338,"correct":false,"confidence":3},{"trial_n":178,"n_dots":2.85,"target":"right","response":"right","rt":586,"correct":true,"confidence":3},{"trial_n":179,"n_dots":2.85,"target":"left","response":"left","rt":658,"correct":true,"confidence":5},{"trial_n":180,"n_dots":2.75,"target":"left","response":"left","rt":358,"correct":true,"confidence":6},{"trial_n":181,"n_dots":2.75,"target":"right","response":"left","rt":344,"correct":false,"confidence":4},{"trial_n":182,"n_dots":2.85,"target":"left","response":"left","rt":278,"correct":true,"confidence":6},{"trial_n":183,"n_dots":2.85,"target":"left","response":"left","rt":468.99999999988,"correct":true,"confidence":3},{"trial_n":184,"n_dots":2.75,"target":"left","response":"left","rt":288,"correct":true,"confidence":3},{"trial_n":185,"n_dots":2.75,"target":"right","response":"left","rt":448,"correct":false,"confidence":2},{"trial_n":186,"n_dots":2.85,"target":"left","response":"left","rt":691,"correct":true,"confidence":2},{"trial_n":187,"n_dots":2.85,"target":"right","response":"left","rt":584.00000000012,"correct":false,"confidence":3},{"trial_n":188,"n_dots":2.95,"target":"right","response":"left","rt":382,"correct":false,"confidence":3},{"trial_n":189,"n_dots":3.05,"target":"right","response":"left","rt":243,"correct":false,"confidence":2},{"trial_n":190,"n_dots":3.15,"target":"left","response":"left","rt":554.00000000012,"correct":true,"confidence":2},{"trial_n":191,"n_dots":3.15,"target":"left","response":"left","rt":557,"correct":true,"confidence":3},{"trial_n":192,"n_dots":3.05,"target":"right","response":"left","rt":304,"correct":false,"confidence":2},{"trial_n":193,"n_dots":3.15,"target":"right","response":"left","rt":547,"correct":false,"confidence":2},{"trial_n":194,"n_dots":3.25,"target":"right","response":"right","rt":403,"correct":true,"confidence":1}]