[{"trial_n":1,"n_dots":4.25,"target":"right","response":"right","rt":3883.3999999762,"correct":true,"confidence":-1},{"trial_n":2,"n_dots":4.25,"target":"left","response":"left","rt":448.29999995232,"correct":true,"confidence":-1},{"trial_n":3,"n_dots":3.85,"target":"left","response":"left","rt":144.5,"correct":true,"confidence":-1},{"trial_n":4,"n_dots":3.85,"target":"left","response":"left","rt":69.300000071526,"correct":true,"confidence":-1},{"trial_n":5,"n_dots":3.45,"target":"left","response":"left","rt":457.70000004768,"correct":true,"confidence":-1},{"trial_n":6,"n_dots":3.45,"target":"right","response":"right","rt":193.40000009537,"correct":true,"confidence":-1},{"trial_n":7,"n_dots":3.05,"target":"right","response":"right","rt":23.799999952316,"correct":true,"confidence":-1},{"trial_n":8,"n_dots":3.05,"target":"left","response":"left","rt":363.39999997616,"correct":true,"confidence":-1},{"trial_n":9,"n_dots":2.85,"target":"left","response":"left","rt":363.20000004768,"correct":true,"confidence":-1},{"trial_n":10,"n_dots":2.85,"target":"left","response":"left","rt":385.60000002384,"correct":true,"confidence":-1},{"trial_n":11,"n_dots":2.65,"target":"left","response":"right","rt":464.39999997616,"correct":false,"confidence":-1},{"trial_n":12,"n_dots":2.85,"target":"left","response":"left","rt":324.30000007153,"correct":true,"confidence":-1},{"trial_n":13,"n_dots":2.85,"target":"right","response":"left","rt":375.29999995232,"correct":false,"confidence":-1},{"trial_n":14,"n_dots":2.95,"target":"right","response":"right","rt":332.30000007153,"correct":true,"confidence":-1},{"trial_n":15,"n_dots":2.95,"target":"left","response":"left","rt":383.30000007153,"correct":true,"confidence":-1},{"trial_n":16,"n_dots":2.85,"target":"left","response":"left","rt":99.799999952316,"correct":true,"confidence":-1},{"trial_n":17,"n_dots":2.85,"target":"left","response":"right","rt":468,"correct":false,"confidence":-1},{"trial_n":18,"n_dots":2.95,"target":"right","response":"right","rt":342.19999992847,"correct":true,"confidence":-1},{"trial_n":19,"n_dots":2.95,"target":"left","response":"left","rt":317.19999992847,"correct":true,"confidence":-1},{"trial_n":20,"n_dots":2.85,"target":"right","response":"right","rt":142.29999995232,"correct":true,"confidence":-1},{"trial_n":21,"n_dots":2.85,"target":"left","response":"right","rt":991,"correct":false,"confidence":-1},{"trial_n":22,"n_dots":2.95,"target":"right","response":"right","rt":363.89999997616,"correct":true,"confidence":-1},{"trial_n":23,"n_dots":2.95,"target":"left","response":"left","rt":320.59999990463,"correct":true,"confidence":-1},{"trial_n":24,"n_dots":2.85,"target":"left","response":"left","rt":284.60000002384,"correct":true,"confidence":-1},{"trial_n":25,"n_dots":2.85,"target":"left","response":"right","rt":26.600000023842,"correct":false,"confidence":-1},{"trial_n":26,"n_dots":2.95,"target":"left","response":"left","rt":345.10000002384,"correct":true,"confidence":-1},{"trial_n":27,"n_dots":2.95,"target":"right","response":"right","rt":324.80000007153,"correct":true,"confidence":3},{"trial_n":28,"n_dots":2.85,"target":"right","response":"left","rt":507.70000004768,"correct":false,"confidence":5},{"trial_n":29,"n_dots":2.95,"target":"right","response":"left","rt":505,"correct":false,"confidence":5},{"trial_n":30,"n_dots":3.05,"target":"right","response":"left","rt":368.10000002384,"correct":false,"confidence":6},{"trial_n":31,"n_dots":3.15,"target":"left","response":"left","rt":523.5,"correct":true,"confidence":5},{"trial_n":32,"n_dots":3.15,"target":"right","response":"left","rt":590.10000002384,"correct":false,"confidence":4},{"trial_n":33,"n_dots":3.25,"target":"left","response":"left","rt":384.5,"correct":true,"confidence":6},{"trial_n":34,"n_dots":3.25,"target":"right","response":"left","rt":370,"correct":false,"confidence":5},{"trial_n":35,"n_dots":3.35,"target":"left","response":"left","rt":357.60000002384,"correct":true,"confidence":6},{"trial_n":36,"n_dots":3.35,"target":"left","response":"left","rt":470.10000002384,"correct":true,"confidence":6},{"trial_n":37,"n_dots":3.25,"target":"left","response":"left","rt":385,"correct":true,"confidence":6},{"trial_n":38,"n_dots":3.25,"target":"left","response":"left","rt":383.60000002384,"correct":true,"confidence":6},{"trial_n":39,"n_dots":3.15,"target":"left","response":"left","rt":467.40000009537,"correct":true,"confidence":6},{"trial_n":40,"n_dots":3.15,"target":"right","response":"left","rt":470.5,"correct":false,"confidence":5},{"trial_n":41,"n_dots":3.25,"target":"right","response":"left","rt":481.60000002384,"correct":false,"confidence":4},{"trial_n":42,"n_dots":3.35,"target":"right","response":"left","rt":400.10000002384,"correct":false,"confidence":5},{"trial_n":43,"n_dots":3.45,"target":"left","response":"left","rt":585,"correct":true,"confidence":5},{"trial_n":44,"n_dots":3.45,"target":"right","response":"left","rt":508.29999995232,"correct":false,"confidence":5},{"trial_n":45,"n_dots":3.55,"target":"right","response":"right","rt":308.39999997616,"correct":true,"confidence":5},{"trial_n":46,"n_dots":3.55,"target":"left","response":"left","rt":334.19999992847,"correct":true,"confidence":4},{"trial_n":47,"n_dots":3.45,"target":"left","response":"left","rt":154.69999992847,"correct":true,"confidence":4},{"trial_n":48,"n_dots":3.45,"target":"right","response":"right","rt":459.39999997616,"correct":true,"confidence":4},{"trial_n":49,"n_dots":3.35,"target":"left","response":"left","rt":383.69999992847,"correct":true,"confidence":6},{"trial_n":50,"n_dots":3.35,"target":"right","response":"left","rt":481.90000009537,"correct":false,"confidence":5},{"trial_n":51,"n_dots":3.45,"target":"left","response":"left","rt":365.30000007153,"correct":true,"confidence":5},{"trial_n":52,"n_dots":3.45,"target":"right","response":"right","rt":378.30000007153,"correct":true,"confidence":4},{"trial_n":53,"n_dots":3.35,"target":"right","response":"left","rt":433.89999997616,"correct":false,"confidence":3},{"trial_n":54,"n_dots":3.45,"target":"left","response":"left","rt":383.39999997616,"correct":true,"confidence":5},{"trial_n":55,"n_dots":3.45,"target":"left","response":"right","rt":412.60000002384,"correct":false,"confidence":4},{"trial_n":56,"n_dots":3.55,"target":"right","response":"left","rt":396.79999995232,"correct":false,"confidence":3},{"trial_n":57,"n_dots":3.65,"target":"left","response":"left","rt":334.79999995232,"correct":true,"confidence":6},{"trial_n":58,"n_dots":3.65,"target":"left","response":"left","rt":351.60000002384,"correct":true,"confidence":6},{"trial_n":59,"n_dots":3.55,"target":"right","response":"right","rt":513,"correct":true,"confidence":4},{"trial_n":60,"n_dots":3.55,"target":"left","response":"left","rt":446,"correct":true,"confidence":4},{"trial_n":61,"n_dots":3.45,"target":"right","response":"right","rt":574.29999995232,"correct":true,"confidence":5},{"trial_n":62,"n_dots":3.45,"target":"left","response":"right","rt":366.10000002384,"correct":false,"confidence":4},{"trial_n":63,"n_dots":3.55,"target":"right","response":"right","rt":462.19999992847,"correct":true,"confidence":4},{"trial_n":64,"n_dots":3.55,"target":"left","response":"left","rt":363,"correct":true,"confidence":5},{"trial_n":65,"n_dots":3.45,"target":"left","response":"left","rt":322.09999990463,"correct":true,"confidence":5},{"trial_n":66,"n_dots":3.45,"target":"left","response":"left","rt":391.80000007153,"correct":true,"confidence":6},{"trial_n":67,"n_dots":3.35,"target":"left","response":"left","rt":418.79999995232,"correct":true,"confidence":6},{"trial_n":68,"n_dots":3.35,"target":"left","response":"left","rt":405.5,"correct":true,"confidence":6},{"trial_n":69,"n_dots":3.25,"target":"left","response":"left","rt":578.80000007153,"correct":true,"confidence":4},{"trial_n":70,"n_dots":3.25,"target":"right","response":"left","rt":387.90000009537,"correct":false,"confidence":4},{"trial_n":71,"n_dots":3.35,"target":"right","response":"left","rt":242.5,"correct":false,"confidence":5},{"trial_n":72,"n_dots":3.45,"target":"right","response":"right","rt":360.89999997616,"correct":true,"confidence":5},{"trial_n":73,"n_dots":3.45,"target":"right","response":"left","rt":472.89999997616,"correct":false,"confidence":4},{"trial_n":74,"n_dots":3.55,"target":"right","response":"right","rt":435.5,"correct":true,"confidence":4},{"trial_n":75,"n_dots":3.55,"target":"left","response":"right","rt":1267.5,"correct":false,"confidence":4},{"trial_n":76,"n_dots":3.65,"target":"right","response":"left","rt":462.80000007153,"correct":false,"confidence":4},{"trial_n":77,"n_dots":3.75,"target":"right","response":"right","rt":800,"correct":true,"confidence":5},{"trial_n":78,"n_dots":3.75,"target":"right","response":"right","rt":177.10000002384,"correct":true,"confidence":5},{"trial_n":79,"n_dots":3.65,"target":"right","response":"right","rt":317.10000002384,"correct":true,"confidence":6},{"trial_n":80,"n_dots":3.65,"target":"right","response":"right","rt":364.89999997616,"correct":true,"confidence":5},{"trial_n":81,"n_dots":3.55,"target":"left","response":"left","rt":96.799999952316,"correct":true,"confidence":5},{"trial_n":82,"n_dots":3.55,"target":"right","response":"right","rt":16.200000047684,"correct":true,"confidence":5},{"trial_n":83,"n_dots":3.45,"target":"right","response":"left","rt":359.20000004768,"correct":false,"confidence":4},{"trial_n":84,"n_dots":3.55,"target":"left","response":"left","rt":431.79999995232,"correct":true,"confidence":6},{"trial_n":85,"n_dots":3.55,"target":"right","response":"left","rt":384.29999995232,"correct":false,"confidence":5},{"trial_n":86,"n_dots":3.65,"target":"left","response":"left","rt":385.89999997616,"correct":true,"confidence":5},{"trial_n":87,"n_dots":3.65,"target":"right","response":"left","rt":258.70000004768,"correct":false,"confidence":4},{"trial_n":88,"n_dots":3.75,"target":"right","response":"left","rt":250.10000002384,"correct":false,"confidence":5},{"trial_n":89,"n_dots":3.85,"target":"left","response":"left","rt":283.29999995232,"correct":true,"confidence":5},{"trial_n":90,"n_dots":3.85,"target":"right","response":"right","rt":200.20000004768,"correct":true,"confidence":5},{"trial_n":91,"n_dots":3.75,"target":"right","response":"right","rt":376.39999997616,"correct":true,"confidence":5},{"trial_n":92,"n_dots":3.75,"target":"right","response":"left","rt":401.89999997616,"correct":false,"confidence":4},{"trial_n":93,"n_dots":3.85,"target":"left","response":"left","rt":68,"correct":true,"confidence":6},{"trial_n":94,"n_dots":3.85,"target":"left","response":"left","rt":375.60000002384,"correct":true,"confidence":6},{"trial_n":95,"n_dots":3.75,"target":"left","response":"left","rt":326.89999997616,"correct":true,"confidence":6},{"trial_n":96,"n_dots":3.75,"target":"right","response":"right","rt":402.89999997616,"correct":true,"confidence":5},{"trial_n":97,"n_dots":3.65,"target":"right","response":"right","rt":552.19999992847,"correct":true,"confidence":5},{"trial_n":98,"n_dots":3.65,"target":"right","response":"right","rt":23.799999952316,"correct":true,"confidence":4},{"trial_n":99,"n_dots":3.55,"target":"right","response":"right","rt":355.29999995232,"correct":true,"confidence":6},{"trial_n":100,"n_dots":3.55,"target":"left","response":"left","rt":141.70000004768,"correct":true,"confidence":6},{"trial_n":101,"n_dots":3.45,"target":"right","response":"right","rt":443.5,"correct":true,"confidence":6},{"trial_n":102,"n_dots":3.45,"target":"left","response":"left","rt":182.10000002384,"correct":true,"confidence":5},{"trial_n":103,"n_dots":3.35,"target":"right","response":"right","rt":315.89999997616,"correct":true,"confidence":6},{"trial_n":104,"n_dots":3.35,"target":"left","response":"left","rt":328.10000002384,"correct":true,"confidence":6},{"trial_n":105,"n_dots":3.25,"target":"right","response":"right","rt":62.5,"correct":true,"confidence":5},{"trial_n":106,"n_dots":3.25,"target":"right","response":"left","rt":241,"correct":false,"confidence":4},{"trial_n":107,"n_dots":3.35,"target":"left","response":"left","rt":272.79999995232,"correct":true,"confidence":6},{"trial_n":108,"n_dots":3.35,"target":"right","response":"right","rt":217.5,"correct":true,"confidence":6},{"trial_n":109,"n_dots":3.25,"target":"left","response":"left","rt":438.60000002384,"correct":true,"confidence":6},{"trial_n":110,"n_dots":3.25,"target":"left","response":"left","rt":131.69999992847,"correct":true,"confidence":6},{"trial_n":111,"n_dots":3.15,"target":"left","response":"left","rt":748,"correct":true,"confidence":4},{"trial_n":112,"n_dots":3.15,"target":"right","response":"right","rt":86,"correct":true,"confidence":4},{"trial_n":113,"n_dots":3.05,"target":"left","response":"left","rt":65.600000023842,"correct":true,"confidence":6},{"trial_n":114,"n_dots":3.05,"target":"right","response":"left","rt":43.5,"correct":false,"confidence":6},{"trial_n":115,"n_dots":3.15,"target":"right","response":"left","rt":231.80000007153,"correct":false,"confidence":5},{"trial_n":116,"n_dots":3.25,"target":"left","response":"left","rt":51.100000023842,"correct":true,"confidence":6},{"trial_n":117,"n_dots":3.25,"target":"left","response":"left","rt":86,"correct":true,"confidence":1},{"trial_n":118,"n_dots":3.15,"target":"left","response":"left","rt":758.5,"correct":true,"confidence":5},{"trial_n":119,"n_dots":3.15,"target":"left","response":"left","rt":551.19999992847,"correct":true,"confidence":5},{"trial_n":120,"n_dots":3.05,"target":"right","response":"right","rt":340.60000002384,"correct":true,"confidence":5},{"trial_n":121,"n_dots":3.05,"target":"left","response":"left","rt":32.600000023842,"correct":true,"confidence":6},{"trial_n":122,"n_dots":2.95,"target":"left","response":"left","rt":379.5,"correct":true,"confidence":5},{"trial_n":123,"n_dots":2.95,"target":"left","response":"left","rt":352.60000002384,"correct":true,"confidence":5},{"trial_n":124,"n_dots":2.85,"target":"right","response":"right","rt":152.70000004768,"correct":true,"confidence":4},{"trial_n":125,"n_dots":2.85,"target":"left","response":"left","rt":177.30000007153,"correct":true,"confidence":4},{"trial_n":126,"n_dots":2.75,"target":"left","response":"left","rt":205.5,"correct":true,"confidence":5},{"trial_n":127,"n_dots":2.75,"target":"left","response":"right","rt":318.79999995232,"correct":false,"confidence":4},{"trial_n":128,"n_dots":2.85,"target":"left","response":"left","rt":513.60000002384,"correct":true,"confidence":4},{"trial_n":129,"n_dots":2.85,"target":"right","response":"left","rt":433.60000002384,"correct":false,"confidence":5},{"trial_n":130,"n_dots":2.95,"target":"left","response":"left","rt":260.70000004768,"correct":true,"confidence":5},{"trial_n":131,"n_dots":2.95,"target":"left","response":"left","rt":340.30000007153,"correct":true,"confidence":6},{"trial_n":132,"n_dots":2.85,"target":"left","response":"right","rt":512.19999992847,"correct":false,"confidence":5},{"trial_n":133,"n_dots":2.95,"target":"right","response":"left","rt":633.39999997616,"correct":false,"confidence":4},{"trial_n":134,"n_dots":3.05,"target":"right","response":"right","rt":434.60000002384,"correct":true,"confidence":5},{"trial_n":135,"n_dots":3.05,"target":"right","response":"right","rt":983.10000002384,"correct":true,"confidence":4},{"trial_n":136,"n_dots":2.95,"target":"right","response":"right","rt":2460.1999999285,"correct":true,"confidence":5},{"trial_n":137,"n_dots":2.95,"target":"left","response":"right","rt":389.90000009537,"correct":false,"confidence":5},{"trial_n":138,"n_dots":3.05,"target":"right","response":"right","rt":444.5,"correct":true,"confidence":4},{"trial_n":139,"n_dots":3.05,"target":"right","response":"right","rt":256.79999995232,"correct":true,"confidence":4},{"trial_n":140,"n_dots":2.95,"target":"right","response":"right","rt":250.40000009537,"correct":true,"confidence":5},{"trial_n":141,"n_dots":2.95,"target":"left","response":"left","rt":309.79999995232,"correct":true,"confidence":5},{"trial_n":142,"n_dots":2.85,"target":"left","response":"left","rt":374.60000002384,"correct":true,"confidence":5},{"trial_n":143,"n_dots":2.85,"target":"left","response":"right","rt":327.39999997616,"correct":false,"confidence":5},{"trial_n":144,"n_dots":2.95,"target":"right","response":"right","rt":223.10000002384,"correct":true,"confidence":5},{"trial_n":145,"n_dots":2.95,"target":"right","response":"right","rt":43.700000047684,"correct":true,"confidence":4},{"trial_n":146,"n_dots":2.85,"target":"right","response":"left","rt":296.79999995232,"correct":false,"confidence":5},{"trial_n":147,"n_dots":2.95,"target":"right","response":"right","rt":208.69999992847,"correct":true,"confidence":5},{"trial_n":148,"n_dots":2.95,"target":"right","response":"right","rt":232.39999997616,"correct":true,"confidence":6},{"trial_n":149,"n_dots":2.85,"target":"left","response":"left","rt":354.20000004768,"correct":true,"confidence":5},{"trial_n":150,"n_dots":2.85,"target":"right","response":"right","rt":271.60000002384,"correct":true,"confidence":6},{"trial_n":151,"n_dots":2.75,"target":"right","response":"right","rt":478,"correct":true,"confidence":5},{"trial_n":152,"n_dots":2.75,"target":"right","response":"left","rt":372,"correct":false,"confidence":6},{"trial_n":153,"n_dots":2.85,"target":"left","response":"right","rt":1271,"correct":false,"confidence":5},{"trial_n":154,"n_dots":2.95,"target":"right","response":"right","rt":538.89999997616,"correct":true,"confidence":4},{"trial_n":155,"n_dots":2.95,"target":"left","response":"left","rt":331.60000002384,"correct":true,"confidence":6},{"trial_n":156,"n_dots":2.85,"target":"right","response":"right","rt":369.90000009537,"correct":true,"confidence":5},{"trial_n":157,"n_dots":2.85,"target":"left","response":"right","rt":95.399999976158,"correct":false,"confidence":5},{"trial_n":158,"n_dots":2.95,"target":"right","response":"right","rt":319.5,"correct":true,"confidence":4},{"trial_n":159,"n_dots":2.95,"target":"right","response":"right","rt":525.39999997616,"correct":true,"confidence":5},{"trial_n":160,"n_dots":2.85,"target":"left","response":"left","rt":244.19999992847,"correct":true,"confidence":5},{"trial_n":161,"n_dots":2.85,"target":"right","response":"right","rt":338.70000004768,"correct":true,"confidence":5},{"trial_n":162,"n_dots":2.75,"target":"left","response":"left","rt":413.89999997616,"correct":true,"confidence":5},{"trial_n":163,"n_dots":2.75,"target":"left","response":"left","rt":249.5,"correct":true,"confidence":4},{"trial_n":164,"n_dots":2.65,"target":"left","response":"left","rt":409.10000002384,"correct":true,"confidence":6},{"trial_n":165,"n_dots":2.65,"target":"right","response":"left","rt":633.30000007153,"correct":false,"confidence":5},{"trial_n":166,"n_dots":2.75,"target":"left","response":"left","rt":355.20000004768,"correct":true,"confidence":5},{"trial_n":167,"n_dots":2.75,"target":"left","response":"left","rt":384.69999992847,"correct":true,"confidence":6},{"trial_n":168,"n_dots":2.65,"target":"right","response":"right","rt":236.29999995232,"correct":true,"confidence":5},{"trial_n":169,"n_dots":2.65,"target":"right","response":"right","rt":326.79999995232,"correct":true,"confidence":5},{"trial_n":170,"n_dots":2.55,"target":"left","response":"right","rt":395.30000007153,"correct":false,"confidence":5},{"trial_n":171,"n_dots":2.65,"target":"left","response":"left","rt":427.70000004768,"correct":true,"confidence":5},{"trial_n":172,"n_dots":2.65,"target":"left","response":"left","rt":360.70000004768,"correct":true,"confidence":6},{"trial_n":173,"n_dots":2.55,"target":"left","response":"left","rt":196.20000004768,"correct":true,"confidence":5},{"trial_n":174,"n_dots":2.55,"target":"left","response":"left","rt":402.5,"correct":true,"confidence":5},{"trial_n":175,"n_dots":2.45,"target":"right","response":"left","rt":175.30000007153,"correct":false,"confidence":5},{"trial_n":176,"n_dots":2.55,"target":"right","response":"right","rt":643.59999990463,"correct":true,"confidence":5},{"trial_n":177,"n_dots":2.55,"target":"right","response":"left","rt":354.79999995232,"correct":false,"confidence":6},{"trial_n":178,"n_dots":2.65,"target":"right","response":"right","rt":358.30000007153,"correct":true,"confidence":5},{"trial_n":179,"n_dots":2.65,"target":"right","response":"left","rt":375.10000002384,"correct":false,"confidence":5},{"trial_n":180,"n_dots":2.75,"target":"right","response":"right","rt":179.20000004768,"correct":true,"confidence":5},{"trial_n":181,"n_dots":2.75,"target":"left","response":"left","rt":211.69999992847,"correct":true,"confidence":6},{"trial_n":182,"n_dots":2.65,"target":"right","response":"left","rt":408.70000004768,"correct":false,"confidence":5},{"trial_n":183,"n_dots":2.75,"target":"right","response":"right","rt":278.29999995232,"correct":true,"confidence":5},{"trial_n":184,"n_dots":2.75,"target":"right","response":"left","rt":197.20000004768,"correct":false,"confidence":6},{"trial_n":185,"n_dots":2.85,"target":"left","response":"left","rt":28.5,"correct":true,"confidence":5},{"trial_n":186,"n_dots":2.85,"target":"right","response":"left","rt":391.19999992847,"correct":false,"confidence":4},{"trial_n":187,"n_dots":2.95,"target":"right","response":"right","rt":485.89999997616,"correct":true,"confidence":5},{"trial_n":188,"n_dots":2.95,"target":"left","response":"left","rt":277.70000004768,"correct":true,"confidence":5},{"trial_n":189,"n_dots":2.85,"target":"left","response":"left","rt":204.39999997616,"correct":true,"confidence":5},{"trial_n":190,"n_dots":2.85,"target":"right","response":"right","rt":185.39999997616,"correct":true,"confidence":5},{"trial_n":191,"n_dots":2.75,"target":"left","response":"left","rt":3.5,"correct":true,"confidence":6},{"trial_n":192,"n_dots":2.75,"target":"right","response":"left","rt":146.29999995232,"correct":false,"confidence":5},{"trial_n":193,"n_dots":2.85,"target":"right","response":"right","rt":447.39999997616,"correct":true,"confidence":4},{"trial_n":194,"n_dots":2.85,"target":"left","response":"right","rt":337.5,"correct":false,"confidence":4}]