[{"trial_n":1,"n_dots":4.25,"target":"left","response":"left","rt":2907.6000000238,"correct":true,"confidence":-1},{"trial_n":2,"n_dots":4.25,"target":"right","response":"right","rt":532.5,"correct":true,"confidence":-1},{"trial_n":3,"n_dots":3.85,"target":"left","response":"right","rt":791,"correct":false,"confidence":-1},{"trial_n":4,"n_dots":4.25,"target":"right","response":"right","rt":324.39999997616,"correct":true,"confidence":-1},{"trial_n":5,"n_dots":4.25,"target":"left","response":"left","rt":281.5,"correct":true,"confidence":-1},{"trial_n":6,"n_dots":3.85,"target":"left","response":"left","rt":359.20000004768,"correct":true,"confidence":-1},{"trial_n":7,"n_dots":3.85,"target":"right","response":"right","rt":98.600000023842,"correct":true,"confidence":-1},{"trial_n":8,"n_dots":3.65,"target":"right","response":"right","rt":259.59999990463,"correct":true,"confidence":-1},{"trial_n":9,"n_dots":3.65,"target":"left","response":"left","rt":154.09999990463,"correct":true,"confidence":-1},{"trial_n":10,"n_dots":3.45,"target":"right","response":"right","rt":178.89999997616,"correct":true,"confidence":-1},{"trial_n":11,"n_dots":3.45,"target":"left","response":"left","rt":273,"correct":true,"confidence":-1},{"trial_n":12,"n_dots":3.25,"target":"left","response":"left","rt":434.39999997616,"correct":true,"confidence":-1},{"trial_n":13,"n_dots":3.25,"target":"left","response":"left","rt":327.29999995232,"correct":true,"confidence":-1},{"trial_n":14,"n_dots":3.15,"target":"left","response":"left","rt":535.10000002384,"correct":true,"confidence":-1},{"trial_n":15,"n_dots":3.15,"target":"left","response":"left","rt":379.90000009537,"correct":true,"confidence":-1},{"trial_n":16,"n_dots":3.05,"target":"left","response":"left","rt":290.70000004768,"correct":true,"confidence":-1},{"trial_n":17,"n_dots":3.05,"target":"left","response":"right","rt":245.20000004768,"correct":false,"confidence":-1},{"trial_n":18,"n_dots":3.15,"target":"left","response":"left","rt":239.59999990463,"correct":true,"confidence":-1},{"trial_n":19,"n_dots":3.15,"target":"left","response":"left","rt":298.10000002384,"correct":true,"confidence":-1},{"trial_n":20,"n_dots":3.05,"target":"right","response":"right","rt":245.29999995232,"correct":true,"confidence":-1},{"trial_n":21,"n_dots":3.05,"target":"right","response":"right","rt":676.89999997616,"correct":true,"confidence":-1},{"trial_n":22,"n_dots":2.95,"target":"left","response":"right","rt":329.70000004768,"correct":false,"confidence":-1},{"trial_n":23,"n_dots":3.05,"target":"right","response":"right","rt":278.79999995232,"correct":true,"confidence":-1},{"trial_n":24,"n_dots":3.05,"target":"left","response":"left","rt":264,"correct":true,"confidence":-1},{"trial_n":25,"n_dots":2.95,"target":"left","response":"right","rt":521,"correct":false,"confidence":-1},{"trial_n":26,"n_dots":3.05,"target":"right","response":"right","rt":379.89999997616,"correct":true,"confidence":-1},{"trial_n":27,"n_dots":3.05,"target":"left","response":"left","rt":298.80000007153,"correct":true,"confidence":2},{"trial_n":28,"n_dots":2.95,"target":"right","response":"right","rt":162.89999997616,"correct":true,"confidence":3},{"trial_n":29,"n_dots":2.95,"target":"left","response":"right","rt":334.39999997616,"correct":false,"confidence":1},{"trial_n":30,"n_dots":3.05,"target":"right","response":"right","rt":369,"correct":true,"confidence":3},{"trial_n":31,"n_dots":3.05,"target":"left","response":"left","rt":11.799999952316,"correct":true,"confidence":4},{"trial_n":32,"n_dots":2.95,"target":"right","response":"right","rt":208.20000004768,"correct":true,"confidence":5},{"trial_n":33,"n_dots":2.95,"target":"right","response":"right","rt":83.399999976158,"correct":true,"confidence":5},{"trial_n":34,"n_dots":2.85,"target":"right","response":"right","rt":642,"correct":true,"confidence":4},{"trial_n":35,"n_dots":2.85,"target":"left","response":"right","rt":2128.1999999285,"correct":false,"confidence":3},{"trial_n":36,"n_dots":2.95,"target":"left","response":"left","rt":365.40000009537,"correct":true,"confidence":2},{"trial_n":37,"n_dots":2.95,"target":"right","response":"right","rt":266.10000002384,"correct":true,"confidence":1},{"trial_n":38,"n_dots":2.85,"target":"right","response":"right","rt":596.80000007153,"correct":true,"confidence":5},{"trial_n":39,"n_dots":2.85,"target":"right","response":"right","rt":158.70000004768,"correct":true,"confidence":4},{"trial_n":40,"n_dots":2.75,"target":"right","response":"right","rt":296.70000004768,"correct":true,"confidence":3},{"trial_n":41,"n_dots":2.75,"target":"right","response":"right","rt":2351.7000000477,"correct":true,"confidence":4},{"trial_n":42,"n_dots":2.65,"target":"left","response":"right","rt":244.39999997616,"correct":false,"confidence":3},{"trial_n":43,"n_dots":2.75,"target":"left","response":"left","rt":319.69999992847,"correct":true,"confidence":1},{"trial_n":44,"n_dots":2.75,"target":"left","response":"right","rt":292.69999992847,"correct":false,"confidence":1},{"trial_n":45,"n_dots":2.85,"target":"left","response":"right","rt":229.69999992847,"correct":false,"confidence":4},{"trial_n":46,"n_dots":2.95,"target":"right","response":"right","rt":457.89999997616,"correct":true,"confidence":1},{"trial_n":47,"n_dots":2.95,"target":"left","response":"left","rt":83.600000023842,"correct":true,"confidence":3},{"trial_n":48,"n_dots":2.85,"target":"right","response":"right","rt":709.89999997616,"correct":true,"confidence":1},{"trial_n":49,"n_dots":2.85,"target":"left","response":"left","rt":112.59999990463,"correct":true,"confidence":3},{"trial_n":50,"n_dots":2.75,"target":"right","response":"right","rt":101.10000002384,"correct":true,"confidence":4},{"trial_n":51,"n_dots":2.75,"target":"left","response":"left","rt":249.70000004768,"correct":true,"confidence":3},{"trial_n":52,"n_dots":2.65,"target":"left","response":"right","rt":258.09999990463,"correct":false,"confidence":3},{"trial_n":53,"n_dots":2.75,"target":"left","response":"left","rt":459.30000007153,"correct":true,"confidence":3},{"trial_n":54,"n_dots":2.75,"target":"left","response":"right","rt":309,"correct":false,"confidence":4},{"trial_n":55,"n_dots":2.85,"target":"left","response":"left","rt":470.59999990463,"correct":true,"confidence":4},{"trial_n":56,"n_dots":2.85,"target":"left","response":"right","rt":115.5,"correct":false,"confidence":4},{"trial_n":57,"n_dots":2.95,"target":"right","response":"right","rt":113.69999992847,"correct":true,"confidence":1},{"trial_n":58,"n_dots":2.95,"target":"right","response":"left","rt":1399.3999999762,"correct":false,"confidence":1},{"trial_n":59,"n_dots":3.05,"target":"left","response":"left","rt":392.79999995232,"correct":true,"confidence":5},{"trial_n":60,"n_dots":3.05,"target":"left","response":"left","rt":216.5,"correct":true,"confidence":3},{"trial_n":61,"n_dots":2.95,"target":"left","response":"right","rt":158.5,"correct":false,"confidence":4},{"trial_n":62,"n_dots":3.05,"target":"right","response":"right","rt":140.20000004768,"correct":true,"confidence":3},{"trial_n":63,"n_dots":3.05,"target":"right","response":"right","rt":178.30000007153,"correct":true,"confidence":1},{"trial_n":64,"n_dots":2.95,"target":"right","response":"right","rt":218.39999997616,"correct":true,"confidence":5},{"trial_n":65,"n_dots":2.95,"target":"left","response":"left","rt":352,"correct":true,"confidence":4},{"trial_n":66,"n_dots":2.85,"target":"right","response":"right","rt":95.199999928474,"correct":true,"confidence":4},{"trial_n":67,"n_dots":2.85,"target":"left","response":"left","rt":465.60000002384,"correct":true,"confidence":1},{"trial_n":68,"n_dots":2.75,"target":"right","response":"right","rt":189.40000009537,"correct":true,"confidence":4},{"trial_n":69,"n_dots":2.75,"target":"left","response":"left","rt":90.5,"correct":true,"confidence":6},{"trial_n":70,"n_dots":2.65,"target":"right","response":"right","rt":656.90000009537,"correct":true,"confidence":5},{"trial_n":71,"n_dots":2.65,"target":"left","response":"left","rt":1302.7999999523,"correct":true,"confidence":1},{"trial_n":72,"n_dots":2.55,"target":"left","response":"right","rt":305.39999997616,"correct":false,"confidence":4},{"trial_n":73,"n_dots":2.65,"target":"right","response":"left","rt":287.5,"correct":false,"confidence":3},{"trial_n":74,"n_dots":2.75,"target":"right","response":"right","rt":180.29999995232,"correct":true,"confidence":4},{"trial_n":75,"n_dots":2.75,"target":"left","response":"left","rt":378.5,"correct":true,"confidence":1},{"trial_n":76,"n_dots":2.65,"target":"right","response":"right","rt":90,"correct":true,"confidence":4},{"trial_n":77,"n_dots":2.65,"target":"right","response":"right","rt":221.39999997616,"correct":true,"confidence":3},{"trial_n":78,"n_dots":2.55,"target":"left","response":"left","rt":209.29999995232,"correct":true,"confidence":4},{"trial_n":79,"n_dots":2.55,"target":"left","response":"left","rt":117,"correct":true,"confidence":4},{"trial_n":80,"n_dots":2.45,"target":"right","response":"right","rt":262,"correct":true,"confidence":6},{"trial_n":81,"n_dots":2.45,"target":"right","response":"right","rt":154.5,"correct":true,"confidence":1},{"trial_n":82,"n_dots":2.35,"target":"left","response":"left","rt":240.69999992847,"correct":true,"confidence":1},{"trial_n":83,"n_dots":2.35,"target":"right","response":"right","rt":32.5,"correct":true,"confidence":4},{"trial_n":84,"n_dots":2.25,"target":"right","response":"left","rt":205,"correct":false,"confidence":4},{"trial_n":85,"n_dots":2.35,"target":"left","response":"left","rt":91.100000023842,"correct":true,"confidence":1},{"trial_n":86,"n_dots":2.35,"target":"left","response":"left","rt":114.69999992847,"correct":true,"confidence":4},{"trial_n":87,"n_dots":2.25,"target":"right","response":"right","rt":449.90000009537,"correct":true,"confidence":1},{"trial_n":88,"n_dots":2.25,"target":"left","response":"left","rt":228.39999997616,"correct":true,"confidence":5},{"trial_n":89,"n_dots":2.15,"target":"right","response":"left","rt":232.20000004768,"correct":false,"confidence":4},{"trial_n":90,"n_dots":2.25,"target":"right","response":"right","rt":66.700000047684,"correct":true,"confidence":4},{"trial_n":91,"n_dots":2.25,"target":"right","response":"right","rt":163.79999995232,"correct":true,"confidence":4},{"trial_n":92,"n_dots":2.15,"target":"left","response":"left","rt":234.19999992847,"correct":true,"confidence":4},{"trial_n":93,"n_dots":2.15,"target":"left","response":"right","rt":662.70000004768,"correct":false,"confidence":5},{"trial_n":94,"n_dots":2.25,"target":"right","response":"left","rt":473.89999997616,"correct":false,"confidence":5},{"trial_n":95,"n_dots":2.35,"target":"left","response":"right","rt":89.899999976158,"correct":false,"confidence":1},{"trial_n":96,"n_dots":2.45,"target":"right","response":"right","rt":109.5,"correct":true,"confidence":4},{"trial_n":97,"n_dots":2.45,"target":"right","response":"right","rt":154.89999997616,"correct":true,"confidence":4},{"trial_n":98,"n_dots":2.35,"target":"right","response":"right","rt":113.80000007153,"correct":true,"confidence":2},{"trial_n":99,"n_dots":2.35,"target":"left","response":"right","rt":530.5,"correct":false,"confidence":4},{"trial_n":100,"n_dots":2.45,"target":"right","response":"right","rt":199.80000007153,"correct":true,"confidence":4},{"trial_n":101,"n_dots":2.45,"target":"left","response":"right","rt":290,"correct":false,"confidence":1},{"trial_n":102,"n_dots":2.55,"target":"right","response":"right","rt":325.20000004768,"correct":true,"confidence":1},{"trial_n":103,"n_dots":2.55,"target":"right","response":"right","rt":4,"correct":true,"confidence":6},{"trial_n":104,"n_dots":2.45,"target":"left","response":"right","rt":281.39999997616,"correct":false,"confidence":5},{"trial_n":105,"n_dots":2.55,"target":"right","response":"right","rt":137.60000002384,"correct":true,"confidence":4},{"trial_n":106,"n_dots":2.55,"target":"right","response":"right","rt":114.29999995232,"correct":true,"confidence":5},{"trial_n":107,"n_dots":2.45,"target":"left","response":"left","rt":62.199999928474,"correct":true,"confidence":5},{"trial_n":108,"n_dots":2.45,"target":"right","response":"left","rt":306.09999990463,"correct":false,"confidence":4},{"trial_n":109,"n_dots":2.55,"target":"right","response":"right","rt":148.79999995232,"correct":true,"confidence":3},{"trial_n":110,"n_dots":2.55,"target":"left","response":"left","rt":39.200000047684,"correct":true,"confidence":1},{"trial_n":111,"n_dots":2.45,"target":"right","response":"left","rt":544.39999997616,"correct":false,"confidence":1},{"trial_n":112,"n_dots":2.55,"target":"left","response":"right","rt":227.19999992847,"correct":false,"confidence":1},{"trial_n":113,"n_dots":2.65,"target":"right","response":"left","rt":912,"correct":false,"confidence":5},{"trial_n":114,"n_dots":2.75,"target":"left","response":"left","rt":82.200000047684,"correct":true,"confidence":1},{"trial_n":115,"n_dots":2.75,"target":"left","response":"right","rt":171.5,"correct":false,"confidence":3},{"trial_n":116,"n_dots":2.85,"target":"right","response":"left","rt":121.59999990463,"correct":false,"confidence":3},{"trial_n":117,"n_dots":2.95,"target":"right","response":"right","rt":7.7000000476837,"correct":true,"confidence":3},{"trial_n":118,"n_dots":2.95,"target":"right","response":"right","rt":36.5,"correct":true,"confidence":4},{"trial_n":119,"n_dots":2.85,"target":"right","response":"right","rt":135.60000002384,"correct":true,"confidence":5},{"trial_n":120,"n_dots":2.85,"target":"left","response":"left","rt":136.5,"correct":true,"confidence":4},{"trial_n":121,"n_dots":2.75,"target":"right","response":"right","rt":41.5,"correct":true,"confidence":5},{"trial_n":122,"n_dots":2.75,"target":"left","response":"left","rt":1167,"correct":true,"confidence":1},{"trial_n":123,"n_dots":2.65,"target":"left","response":"right","rt":187.10000002384,"correct":false,"confidence":4},{"trial_n":124,"n_dots":2.75,"target":"right","response":"right","rt":53.200000047684,"correct":true,"confidence":4},{"trial_n":125,"n_dots":2.75,"target":"right","response":"right","rt":468.10000002384,"correct":true,"confidence":4},{"trial_n":126,"n_dots":2.65,"target":"left","response":"left","rt":349.5,"correct":true,"confidence":1},{"trial_n":127,"n_dots":2.65,"target":"left","response":"left","rt":280.39999997616,"correct":true,"confidence":1},{"trial_n":128,"n_dots":2.55,"target":"right","response":"right","rt":1185.8999999762,"correct":true,"confidence":6},{"trial_n":129,"n_dots":2.55,"target":"right","response":"left","rt":92.100000023842,"correct":false,"confidence":2},{"trial_n":130,"n_dots":2.65,"target":"right","response":"left","rt":176.59999990463,"correct":false,"confidence":5},{"trial_n":131,"n_dots":2.75,"target":"right","response":"left","rt":381.40000009537,"correct":false,"confidence":4},{"trial_n":132,"n_dots":2.85,"target":"left","response":"left","rt":6.1000000238419,"correct":true,"confidence":5},{"trial_n":133,"n_dots":2.85,"target":"left","response":"left","rt":118.20000004768,"correct":true,"confidence":4},{"trial_n":134,"n_dots":2.75,"target":"left","response":"left","rt":219.09999990463,"correct":true,"confidence":4},{"trial_n":135,"n_dots":2.75,"target":"left","response":"right","rt":770,"correct":false,"confidence":3},{"trial_n":136,"n_dots":2.85,"target":"right","response":"right","rt":637.29999995232,"correct":true,"confidence":2},{"trial_n":137,"n_dots":2.85,"target":"right","response":"right","rt":731.39999997616,"correct":true,"confidence":2},{"trial_n":138,"n_dots":2.75,"target":"left","response":"left","rt":167.60000002384,"correct":true,"confidence":2},{"trial_n":139,"n_dots":2.75,"target":"left","response":"right","rt":963.5,"correct":false,"confidence":3},{"trial_n":140,"n_dots":2.85,"target":"right","response":"right","rt":263.20000004768,"correct":true,"confidence":5},{"trial_n":141,"n_dots":2.85,"target":"right","response":"right","rt":451.60000002384,"correct":true,"confidence":6},{"trial_n":142,"n_dots":2.75,"target":"left","response":"left","rt":60.100000023842,"correct":true,"confidence":5},{"trial_n":143,"n_dots":2.75,"target":"right","response":"right","rt":104.89999997616,"correct":true,"confidence":6},{"trial_n":144,"n_dots":2.65,"target":"right","response":"right","rt":403,"correct":true,"confidence":5},{"trial_n":145,"n_dots":2.65,"target":"left","response":"right","rt":427.69999992847,"correct":false,"confidence":5},{"trial_n":146,"n_dots":2.75,"target":"right","response":"left","rt":278.09999990463,"correct":false,"confidence":5},{"trial_n":147,"n_dots":2.85,"target":"right","response":"right","rt":637.60000002384,"correct":true,"confidence":4},{"trial_n":148,"n_dots":2.85,"target":"right","response":"right","rt":747.89999997616,"correct":true,"confidence":2},{"trial_n":149,"n_dots":2.75,"target":"right","response":"right","rt":267,"correct":true,"confidence":3},{"trial_n":150,"n_dots":2.75,"target":"left","response":"left","rt":261.29999995232,"correct":true,"confidence":4},{"trial_n":151,"n_dots":2.65,"target":"left","response":"right","rt":600.89999997616,"correct":false,"confidence":6},{"trial_n":152,"n_dots":2.75,"target":"left","response":"left","rt":159.79999995232,"correct":true,"confidence":2},{"trial_n":153,"n_dots":2.75,"target":"right","response":"right","rt":383.60000002384,"correct":true,"confidence":6},{"trial_n":154,"n_dots":2.65,"target":"left","response":"right","rt":510.20000004768,"correct":false,"confidence":2},{"trial_n":155,"n_dots":2.75,"target":"left","response":"left","rt":670.79999995232,"correct":true,"confidence":4},{"trial_n":156,"n_dots":2.75,"target":"left","response":"right","rt":497.5,"correct":false,"confidence":3},{"trial_n":157,"n_dots":2.85,"target":"left","response":"left","rt":217.40000009537,"correct":true,"confidence":2},{"trial_n":158,"n_dots":2.85,"target":"right","response":"right","rt":202.40000009537,"correct":true,"confidence":6},{"trial_n":159,"n_dots":2.75,"target":"right","response":"right","rt":269.70000004768,"correct":true,"confidence":6},{"trial_n":160,"n_dots":2.75,"target":"right","response":"right","rt":614.69999992847,"correct":true,"confidence":4},{"trial_n":161,"n_dots":2.65,"target":"right","response":"right","rt":27.600000023842,"correct":true,"confidence":4},{"trial_n":162,"n_dots":2.65,"target":"left","response":"left","rt":152.69999992847,"correct":true,"confidence":2},{"trial_n":163,"n_dots":2.55,"target":"right","response":"right","rt":554.60000002384,"correct":true,"confidence":2},{"trial_n":164,"n_dots":2.55,"target":"right","response":"left","rt":589.59999990463,"correct":false,"confidence":2},{"trial_n":165,"n_dots":2.65,"target":"right","response":"right","rt":34.300000071526,"correct":true,"confidence":3},{"trial_n":166,"n_dots":2.65,"target":"left","response":"left","rt":40.700000047684,"correct":true,"confidence":5},{"trial_n":167,"n_dots":2.55,"target":"left","response":"left","rt":369.5,"correct":true,"confidence":3},{"trial_n":168,"n_dots":2.55,"target":"left","response":"right","rt":743.10000002384,"correct":false,"confidence":5},{"trial_n":169,"n_dots":2.65,"target":"left","response":"left","rt":225.39999997616,"correct":true,"confidence":6},{"trial_n":170,"n_dots":2.65,"target":"right","response":"left","rt":328.69999992847,"correct":false,"confidence":2},{"trial_n":171,"n_dots":2.75,"target":"right","response":"right","rt":438.79999995232,"correct":true,"confidence":1},{"trial_n":172,"n_dots":2.75,"target":"right","response":"right","rt":625.10000002384,"correct":true,"confidence":1},{"trial_n":173,"n_dots":2.65,"target":"right","response":"right","rt":699.29999995232,"correct":true,"confidence":3},{"trial_n":174,"n_dots":2.65,"target":"right","response":"right","rt":655.70000004768,"correct":true,"confidence":4},{"trial_n":175,"n_dots":2.55,"target":"left","response":"left","rt":328.5,"correct":true,"confidence":2},{"trial_n":176,"n_dots":2.55,"target":"right","response":"right","rt":342.70000004768,"correct":true,"confidence":3},{"trial_n":177,"n_dots":2.45,"target":"left","response":"right","rt":1001.5,"correct":false,"confidence":3},{"trial_n":178,"n_dots":2.55,"target":"left","response":"right","rt":237.29999995232,"correct":false,"confidence":2},{"trial_n":179,"n_dots":2.65,"target":"left","response":"left","rt":54.899999976158,"correct":true,"confidence":1},{"trial_n":180,"n_dots":2.65,"target":"left","response":"left","rt":1308,"correct":true,"confidence":2},{"trial_n":181,"n_dots":2.55,"target":"left","response":"right","rt":173.79999995232,"correct":false,"confidence":3},{"trial_n":182,"n_dots":2.65,"target":"right","response":"left","rt":174.19999992847,"correct":false,"confidence":3},{"trial_n":183,"n_dots":2.75,"target":"left","response":"left","rt":70,"correct":true,"confidence":4},{"trial_n":184,"n_dots":2.75,"target":"left","response":"left","rt":286.30000007153,"correct":true,"confidence":3},{"trial_n":185,"n_dots":2.65,"target":"right","response":"left","rt":5836.8999999762,"correct":false,"confidence":1},{"trial_n":186,"n_dots":2.75,"target":"left","response":"left","rt":311.10000002384,"correct":true,"confidence":1},{"trial_n":187,"n_dots":2.75,"target":"right","response":"right","rt":1844.8999999762,"correct":true,"confidence":3},{"trial_n":188,"n_dots":2.65,"target":"right","response":"right","rt":183.89999997616,"correct":true,"confidence":3},{"trial_n":189,"n_dots":2.65,"target":"right","response":"left","rt":22.600000023842,"correct":false,"confidence":3},{"trial_n":190,"n_dots":2.75,"target":"right","response":"left","rt":412,"correct":false,"confidence":3},{"trial_n":191,"n_dots":2.85,"target":"left","response":"left","rt":222.30000007153,"correct":true,"confidence":1},{"trial_n":192,"n_dots":2.85,"target":"left","response":"left","rt":282.70000004768,"correct":true,"confidence":5},{"trial_n":193,"n_dots":2.75,"target":"left","response":"right","rt":391.29999995232,"correct":false,"confidence":1},{"trial_n":194,"n_dots":2.85,"target":"right","response":"left","rt":438.60000002384,"correct":false,"confidence":4}]