[{"trial_n":1,"n_dots":4.25,"target":"right","response":"right","rt":5153.6000000238,"correct":true,"confidence":-1},{"trial_n":2,"n_dots":4.25,"target":"right","response":"right","rt":542.89999997616,"correct":true,"confidence":-1},{"trial_n":3,"n_dots":3.85,"target":"right","response":"right","rt":602.39999997616,"correct":true,"confidence":-1},{"trial_n":4,"n_dots":3.85,"target":"right","response":"right","rt":1065.3999999762,"correct":true,"confidence":-1},{"trial_n":5,"n_dots":3.45,"target":"left","response":"right","rt":362.39999997616,"correct":false,"confidence":-1},{"trial_n":6,"n_dots":3.85,"target":"left","response":"left","rt":1042.5,"correct":true,"confidence":-1},{"trial_n":7,"n_dots":3.85,"target":"right","response":"right","rt":393.70000004768,"correct":true,"confidence":-1},{"trial_n":8,"n_dots":3.65,"target":"right","response":"right","rt":2872.6999999881,"correct":true,"confidence":-1},{"trial_n":9,"n_dots":3.65,"target":"right","response":"right","rt":349.30000001192,"correct":true,"confidence":-1},{"trial_n":10,"n_dots":3.45,"target":"left","response":"right","rt":489.10000002384,"correct":false,"confidence":-1},{"trial_n":11,"n_dots":3.65,"target":"right","response":"right","rt":595.29999995232,"correct":true,"confidence":-1},{"trial_n":12,"n_dots":3.65,"target":"left","response":"right","rt":198.29999995232,"correct":false,"confidence":-1},{"trial_n":13,"n_dots":3.75,"target":"left","response":"right","rt":893,"correct":false,"confidence":-1},{"trial_n":14,"n_dots":3.85,"target":"left","response":"left","rt":348.39999997616,"correct":true,"confidence":-1},{"trial_n":15,"n_dots":3.85,"target":"right","response":"right","rt":21.699999988079,"correct":true,"confidence":-1},{"trial_n":16,"n_dots":3.75,"target":"left","response":"left","rt":202.5,"correct":true,"confidence":-1},{"trial_n":17,"n_dots":3.75,"target":"left","response":"left","rt":259,"correct":true,"confidence":-1},{"trial_n":18,"n_dots":3.65,"target":"right","response":"right","rt":428.09999996424,"correct":true,"confidence":-1},{"trial_n":19,"n_dots":3.65,"target":"left","response":"left","rt":97.399999976158,"correct":true,"confidence":-1},{"trial_n":20,"n_dots":3.55,"target":"right","response":"right","rt":147.69999998808,"correct":true,"confidence":-1},{"trial_n":21,"n_dots":3.55,"target":"left","response":"left","rt":441.39999997616,"correct":true,"confidence":-1},{"trial_n":22,"n_dots":3.45,"target":"left","response":"right","rt":245.29999995232,"correct":false,"confidence":-1},{"trial_n":23,"n_dots":3.55,"target":"right","response":"left","rt":1015,"correct":false,"confidence":-1},{"trial_n":24,"n_dots":3.65,"target":"left","response":"left","rt":350.29999995232,"correct":true,"confidence":-1},{"trial_n":25,"n_dots":3.65,"target":"left","response":"left","rt":222.5,"correct":true,"confidence":-1},{"trial_n":26,"n_dots":3.55,"target":"left","response":"right","rt":717.5,"correct":false,"confidence":-1},{"trial_n":27,"n_dots":3.65,"target":"left","response":"left","rt":1124.6000000238,"correct":true,"confidence":6},{"trial_n":28,"n_dots":3.65,"target":"right","response":"right","rt":302.79999995232,"correct":true,"confidence":6},{"trial_n":29,"n_dots":3.55,"target":"left","response":"left","rt":944.69999998808,"correct":true,"confidence":2},{"trial_n":30,"n_dots":3.55,"target":"left","response":"left","rt":510.10000002384,"correct":true,"confidence":6},{"trial_n":31,"n_dots":3.45,"target":"right","response":"right","rt":124.39999997616,"correct":true,"confidence":6},{"trial_n":32,"n_dots":3.45,"target":"left","response":"left","rt":251.69999998808,"correct":true,"confidence":6},{"trial_n":33,"n_dots":3.35,"target":"right","response":"right","rt":302.30000001192,"correct":true,"confidence":5},{"trial_n":34,"n_dots":3.35,"target":"right","response":"right","rt":215.30000001192,"correct":true,"confidence":6},{"trial_n":35,"n_dots":3.25,"target":"right","response":"right","rt":543.30000001192,"correct":true,"confidence":6},{"trial_n":36,"n_dots":3.25,"target":"left","response":"right","rt":597.10000002384,"correct":false,"confidence":6},{"trial_n":37,"n_dots":3.35,"target":"right","response":"left","rt":475.10000002384,"correct":false,"confidence":5},{"trial_n":38,"n_dots":3.45,"target":"left","response":"left","rt":29.199999988079,"correct":true,"confidence":6},{"trial_n":39,"n_dots":3.45,"target":"right","response":"right","rt":525.70000004768,"correct":true,"confidence":6},{"trial_n":40,"n_dots":3.35,"target":"left","response":"left","rt":150.69999998808,"correct":true,"confidence":6},{"trial_n":41,"n_dots":3.35,"target":"right","response":"right","rt":651.80000001192,"correct":true,"confidence":6},{"trial_n":42,"n_dots":3.25,"target":"right","response":"right","rt":588.09999996424,"correct":true,"confidence":6},{"trial_n":43,"n_dots":3.25,"target":"right","response":"right","rt":422.10000002384,"correct":true,"confidence":6},{"trial_n":44,"n_dots":3.15,"target":"right","response":"right","rt":386.19999998808,"correct":true,"confidence":6},{"trial_n":45,"n_dots":3.15,"target":"left","response":"left","rt":153,"correct":true,"confidence":6},{"trial_n":46,"n_dots":3.05,"target":"left","response":"right","rt":20163.199999988,"correct":false,"confidence":3},{"trial_n":47,"n_dots":3.15,"target":"right","response":"right","rt":4.6000000238419,"correct":true,"confidence":5},{"trial_n":48,"n_dots":3.15,"target":"left","response":"left","rt":612.19999998808,"correct":true,"confidence":5},{"trial_n":49,"n_dots":3.05,"target":"left","response":"left","rt":606.69999998808,"correct":true,"confidence":5},{"trial_n":50,"n_dots":3.05,"target":"left","response":"left","rt":795,"correct":true,"confidence":6},{"trial_n":51,"n_dots":2.95,"target":"right","response":"left","rt":647.30000001192,"correct":false,"confidence":5},{"trial_n":52,"n_dots":3.05,"target":"right","response":"right","rt":149.10000002384,"correct":true,"confidence":6},{"trial_n":53,"n_dots":3.05,"target":"right","response":"right","rt":147.69999998808,"correct":true,"confidence":6},{"trial_n":54,"n_dots":2.95,"target":"left","response":"left","rt":221.19999998808,"correct":true,"confidence":5},{"trial_n":55,"n_dots":2.95,"target":"right","response":"right","rt":606.09999996424,"correct":true,"confidence":5},{"trial_n":56,"n_dots":2.85,"target":"right","response":"right","rt":763.29999995232,"correct":true,"confidence":5},{"trial_n":57,"n_dots":2.85,"target":"right","response":"right","rt":469.39999997616,"correct":true,"confidence":5},{"trial_n":58,"n_dots":2.75,"target":"left","response":"left","rt":298.59999996424,"correct":true,"confidence":5},{"trial_n":59,"n_dots":2.75,"target":"right","response":"right","rt":3352.7999999523,"correct":true,"confidence":6},{"trial_n":60,"n_dots":2.65,"target":"right","response":"right","rt":670.90000003576,"correct":true,"confidence":6},{"trial_n":61,"n_dots":2.65,"target":"right","response":"left","rt":546.09999996424,"correct":false,"confidence":5},{"trial_n":62,"n_dots":2.75,"target":"left","response":"left","rt":560.79999995232,"correct":true,"confidence":6},{"trial_n":63,"n_dots":2.75,"target":"left","response":"right","rt":468.20000004768,"correct":false,"confidence":6},{"trial_n":64,"n_dots":2.85,"target":"right","response":"right","rt":432.89999997616,"correct":true,"confidence":6},{"trial_n":65,"n_dots":2.85,"target":"right","response":"right","rt":411.10000002384,"correct":true,"confidence":6},{"trial_n":66,"n_dots":2.75,"target":"left","response":"left","rt":523.89999997616,"correct":true,"confidence":6},{"trial_n":67,"n_dots":2.75,"target":"left","response":"left","rt":109.10000002384,"correct":true,"confidence":6},{"trial_n":68,"n_dots":2.65,"target":"right","response":"right","rt":385.69999998808,"correct":true,"confidence":6},{"trial_n":69,"n_dots":2.65,"target":"left","response":"left","rt":1231.5,"correct":true,"confidence":5},{"trial_n":70,"n_dots":2.55,"target":"right","response":"left","rt":428.5,"correct":false,"confidence":3},{"trial_n":71,"n_dots":2.65,"target":"right","response":"right","rt":868.90000003576,"correct":true,"confidence":4},{"trial_n":72,"n_dots":2.65,"target":"right","response":"left","rt":566.69999998808,"correct":false,"confidence":4},{"trial_n":73,"n_dots":2.75,"target":"left","response":"right","rt":392.19999998808,"correct":false,"confidence":3},{"trial_n":74,"n_dots":2.85,"target":"right","response":"right","rt":547.60000002384,"correct":true,"confidence":6},{"trial_n":75,"n_dots":2.85,"target":"right","response":"left","rt":454.90000003576,"correct":false,"confidence":4},{"trial_n":76,"n_dots":2.95,"target":"right","response":"right","rt":208,"correct":true,"confidence":6},{"trial_n":77,"n_dots":2.95,"target":"left","response":"right","rt":576,"correct":false,"confidence":6},{"trial_n":78,"n_dots":3.05,"target":"right","response":"left","rt":551,"correct":false,"confidence":3},{"trial_n":79,"n_dots":3.15,"target":"left","response":"right","rt":471.40000003576,"correct":false,"confidence":6},{"trial_n":80,"n_dots":3.25,"target":"left","response":"left","rt":598.19999998808,"correct":true,"confidence":6},{"trial_n":81,"n_dots":3.25,"target":"left","response":"right","rt":47.600000023842,"correct":false,"confidence":5},{"trial_n":82,"n_dots":3.35,"target":"left","response":"right","rt":148.10000002384,"correct":false,"confidence":5},{"trial_n":83,"n_dots":3.45,"target":"left","response":"left","rt":339.19999998808,"correct":true,"confidence":5},{"trial_n":84,"n_dots":3.45,"target":"left","response":"left","rt":100.5,"correct":true,"confidence":5},{"trial_n":85,"n_dots":3.35,"target":"right","response":"right","rt":140.30000001192,"correct":true,"confidence":5},{"trial_n":86,"n_dots":3.35,"target":"right","response":"right","rt":219.30000001192,"correct":true,"confidence":5},{"trial_n":87,"n_dots":3.25,"target":"left","response":"right","rt":129.10000002384,"correct":false,"confidence":6},{"trial_n":88,"n_dots":3.35,"target":"left","response":"left","rt":173.10000002384,"correct":true,"confidence":6},{"trial_n":89,"n_dots":3.35,"target":"left","response":"left","rt":457.89999997616,"correct":true,"confidence":5},{"trial_n":90,"n_dots":3.25,"target":"left","response":"left","rt":398.19999998808,"correct":true,"confidence":5},{"trial_n":91,"n_dots":3.25,"target":"right","response":"right","rt":288.39999997616,"correct":true,"confidence":5},{"trial_n":92,"n_dots":3.15,"target":"left","response":"left","rt":29.800000011921,"correct":true,"confidence":5},{"trial_n":93,"n_dots":3.15,"target":"left","response":"right","rt":384.70000004768,"correct":false,"confidence":5},{"trial_n":94,"n_dots":3.25,"target":"right","response":"right","rt":75.099999964237,"correct":true,"confidence":1},{"trial_n":95,"n_dots":3.25,"target":"right","response":"right","rt":632.09999996424,"correct":true,"confidence":6},{"trial_n":96,"n_dots":3.15,"target":"left","response":"left","rt":365.09999996424,"correct":true,"confidence":5},{"trial_n":97,"n_dots":3.15,"target":"left","response":"right","rt":266.19999998808,"correct":false,"confidence":4},{"trial_n":98,"n_dots":3.25,"target":"right","response":"left","rt":513.80000001192,"correct":false,"confidence":4},{"trial_n":99,"n_dots":3.35,"target":"right","response":"right","rt":459.09999996424,"correct":true,"confidence":6},{"trial_n":100,"n_dots":3.35,"target":"left","response":"left","rt":431,"correct":true,"confidence":6},{"trial_n":101,"n_dots":3.25,"target":"right","response":"right","rt":878.69999998808,"correct":true,"confidence":6},{"trial_n":102,"n_dots":3.25,"target":"left","response":"left","rt":178.80000001192,"correct":true,"confidence":6},{"trial_n":103,"n_dots":3.15,"target":"right","response":"right","rt":394.19999998808,"correct":true,"confidence":1},{"trial_n":104,"n_dots":3.15,"target":"left","response":"left","rt":769.59999996424,"correct":true,"confidence":6},{"trial_n":105,"n_dots":3.05,"target":"right","response":"right","rt":522.89999997616,"correct":true,"confidence":1},{"trial_n":106,"n_dots":3.05,"target":"right","response":"right","rt":319.59999996424,"correct":true,"confidence":6},{"trial_n":107,"n_dots":2.95,"target":"left","response":"left","rt":176.89999997616,"correct":true,"confidence":6},{"trial_n":108,"n_dots":2.95,"target":"left","response":"left","rt":936,"correct":true,"confidence":3},{"trial_n":109,"n_dots":2.85,"target":"left","response":"left","rt":307.19999998808,"correct":true,"confidence":6},{"trial_n":110,"n_dots":2.85,"target":"right","response":"right","rt":430.39999997616,"correct":true,"confidence":3},{"trial_n":111,"n_dots":2.75,"target":"right","response":"right","rt":768.69999998808,"correct":true,"confidence":4},{"trial_n":112,"n_dots":2.75,"target":"right","response":"right","rt":3458.8000000119,"correct":true,"confidence":1},{"trial_n":113,"n_dots":2.65,"target":"left","response":"right","rt":2036,"correct":false,"confidence":4},{"trial_n":114,"n_dots":2.75,"target":"left","response":"left","rt":155.70000004768,"correct":true,"confidence":6},{"trial_n":115,"n_dots":2.75,"target":"left","response":"right","rt":169.20000004768,"correct":false,"confidence":6},{"trial_n":116,"n_dots":2.85,"target":"left","response":"left","rt":112.5,"correct":true,"confidence":6},{"trial_n":117,"n_dots":2.85,"target":"right","response":"right","rt":36.5,"correct":true,"confidence":6},{"trial_n":118,"n_dots":2.75,"target":"left","response":"right","rt":1172.5,"correct":false,"confidence":4},{"trial_n":119,"n_dots":2.85,"target":"left","response":"left","rt":537,"correct":true,"confidence":6},{"trial_n":120,"n_dots":2.85,"target":"right","response":"right","rt":119.30000001192,"correct":true,"confidence":5},{"trial_n":121,"n_dots":2.75,"target":"left","response":"right","rt":201.60000002384,"correct":false,"confidence":6},{"trial_n":122,"n_dots":2.85,"target":"left","response":"right","rt":567.20000004768,"correct":false,"confidence":6},{"trial_n":123,"n_dots":2.95,"target":"right","response":"left","rt":444.69999998808,"correct":false,"confidence":5},{"trial_n":124,"n_dots":3.05,"target":"left","response":"right","rt":530.30000001192,"correct":false,"confidence":6},{"trial_n":125,"n_dots":3.15,"target":"right","response":"right","rt":436.30000001192,"correct":true,"confidence":6},{"trial_n":126,"n_dots":3.15,"target":"left","response":"right","rt":664.10000002384,"correct":false,"confidence":6},{"trial_n":127,"n_dots":3.25,"target":"left","response":"right","rt":426.10000002384,"correct":false,"confidence":6},{"trial_n":128,"n_dots":3.35,"target":"right","response":"right","rt":492.70000004768,"correct":true,"confidence":6},{"trial_n":129,"n_dots":3.35,"target":"right","response":"right","rt":140.19999998808,"correct":true,"confidence":6},{"trial_n":130,"n_dots":3.25,"target":"left","response":"right","rt":421.5,"correct":false,"confidence":6},{"trial_n":131,"n_dots":3.35,"target":"right","response":"right","rt":401.30000001192,"correct":true,"confidence":5},{"trial_n":132,"n_dots":3.35,"target":"left","response":"left","rt":423.5,"correct":true,"confidence":1},{"trial_n":133,"n_dots":3.25,"target":"left","response":"right","rt":47,"correct":false,"confidence":5},{"trial_n":134,"n_dots":3.35,"target":"right","response":"right","rt":484.10000002384,"correct":true,"confidence":1},{"trial_n":135,"n_dots":3.35,"target":"right","response":"right","rt":53.100000023842,"correct":true,"confidence":6},{"trial_n":136,"n_dots":3.25,"target":"right","response":"right","rt":1762.1000000238,"correct":true,"confidence":3},{"trial_n":137,"n_dots":3.25,"target":"right","response":"right","rt":254.70000004768,"correct":true,"confidence":6},{"trial_n":138,"n_dots":3.15,"target":"right","response":"left","rt":296,"correct":false,"confidence":1},{"trial_n":139,"n_dots":3.25,"target":"left","response":"left","rt":100.39999997616,"correct":true,"confidence":6},{"trial_n":140,"n_dots":3.25,"target":"right","response":"right","rt":127.10000002384,"correct":true,"confidence":6},{"trial_n":141,"n_dots":3.15,"target":"left","response":"left","rt":811.90000003576,"correct":true,"confidence":6},{"trial_n":142,"n_dots":3.15,"target":"left","response":"left","rt":557.70000004768,"correct":true,"confidence":6},{"trial_n":143,"n_dots":3.05,"target":"left","response":"left","rt":629.10000002384,"correct":true,"confidence":6},{"trial_n":144,"n_dots":3.05,"target":"left","response":"left","rt":431.20000004768,"correct":true,"confidence":6},{"trial_n":145,"n_dots":2.95,"target":"right","response":"right","rt":140.19999998808,"correct":true,"confidence":6},{"trial_n":146,"n_dots":2.95,"target":"right","response":"right","rt":121,"correct":true,"confidence":6},{"trial_n":147,"n_dots":2.85,"target":"right","response":"left","rt":317.19999998808,"correct":false,"confidence":6},{"trial_n":148,"n_dots":2.95,"target":"left","response":"left","rt":595.10000002384,"correct":true,"confidence":5},{"trial_n":149,"n_dots":2.95,"target":"left","response":"left","rt":430.90000003576,"correct":true,"confidence":6},{"trial_n":150,"n_dots":2.85,"target":"left","response":"left","rt":703.69999998808,"correct":true,"confidence":6},{"trial_n":151,"n_dots":2.85,"target":"left","response":"left","rt":115.10000002384,"correct":true,"confidence":6},{"trial_n":152,"n_dots":2.75,"target":"right","response":"right","rt":1.6000000238419,"correct":true,"confidence":6},{"trial_n":153,"n_dots":2.75,"target":"left","response":"left","rt":389.89999997616,"correct":true,"confidence":5},{"trial_n":154,"n_dots":2.65,"target":"left","response":"right","rt":29.100000023842,"correct":false,"confidence":1},{"trial_n":155,"n_dots":2.75,"target":"right","response":"left","rt":271.40000003576,"correct":false,"confidence":4},{"trial_n":156,"n_dots":2.85,"target":"left","response":"left","rt":207.60000002384,"correct":true,"confidence":5},{"trial_n":157,"n_dots":2.85,"target":"left","response":"left","rt":665.5,"correct":true,"confidence":6},{"trial_n":158,"n_dots":2.75,"target":"right","response":"right","rt":145.5,"correct":true,"confidence":6},{"trial_n":159,"n_dots":2.75,"target":"right","response":"left","rt":385.39999997616,"correct":false,"confidence":6},{"trial_n":160,"n_dots":2.85,"target":"left","response":"left","rt":574.30000001192,"correct":true,"confidence":6},{"trial_n":161,"n_dots":2.85,"target":"right","response":"right","rt":2.9000000357628,"correct":true,"confidence":6},{"trial_n":162,"n_dots":2.75,"target":"left","response":"left","rt":3.5,"correct":true,"confidence":6},{"trial_n":163,"n_dots":2.75,"target":"left","response":"left","rt":64.100000023842,"correct":true,"confidence":6},{"trial_n":164,"n_dots":2.65,"target":"left","response":"left","rt":423.40000003576,"correct":true,"confidence":6},{"trial_n":165,"n_dots":2.65,"target":"right","response":"left","rt":151.80000001192,"correct":false,"confidence":6},{"trial_n":166,"n_dots":2.75,"target":"left","response":"right","rt":214.80000001192,"correct":false,"confidence":6},{"trial_n":167,"n_dots":2.85,"target":"right","response":"right","rt":696.29999995232,"correct":true,"confidence":6},{"trial_n":168,"n_dots":2.85,"target":"right","response":"right","rt":217.20000004768,"correct":true,"confidence":1},{"trial_n":169,"n_dots":2.75,"target":"left","response":"right","rt":828.89999997616,"correct":false,"confidence":6},{"trial_n":170,"n_dots":2.85,"target":"right","response":"left","rt":109.39999997616,"correct":false,"confidence":1},{"trial_n":171,"n_dots":2.95,"target":"left","response":"left","rt":782.5,"correct":true,"confidence":6},{"trial_n":172,"n_dots":2.95,"target":"left","response":"right","rt":557.39999997616,"correct":false,"confidence":6},{"trial_n":173,"n_dots":3.05,"target":"right","response":"right","rt":317.30000001192,"correct":true,"confidence":6},{"trial_n":174,"n_dots":3.05,"target":"right","response":"left","rt":494,"correct":false,"confidence":6},{"trial_n":175,"n_dots":3.15,"target":"right","response":"left","rt":451,"correct":false,"confidence":6},{"trial_n":176,"n_dots":3.25,"target":"left","response":"left","rt":268.90000003576,"correct":true,"confidence":5},{"trial_n":177,"n_dots":3.25,"target":"right","response":"right","rt":134.19999998808,"correct":true,"confidence":6},{"trial_n":178,"n_dots":3.15,"target":"right","response":"right","rt":312,"correct":true,"confidence":5},{"trial_n":179,"n_dots":3.15,"target":"left","response":"left","rt":569.69999998808,"correct":true,"confidence":6},{"trial_n":180,"n_dots":3.05,"target":"right","response":"left","rt":186.89999997616,"correct":false,"confidence":6},{"trial_n":181,"n_dots":3.15,"target":"left","response":"left","rt":78.799999952316,"correct":true,"confidence":5},{"trial_n":182,"n_dots":3.15,"target":"right","response":"right","rt":151,"correct":true,"confidence":6},{"trial_n":183,"n_dots":3.05,"target":"right","response":"left","rt":649.69999998808,"correct":false,"confidence":6},{"trial_n":184,"n_dots":3.15,"target":"left","response":"right","rt":541.19999998808,"correct":false,"confidence":6},{"trial_n":185,"n_dots":3.25,"target":"left","response":"left","rt":161.30000001192,"correct":true,"confidence":6},{"trial_n":186,"n_dots":3.25,"target":"right","response":"right","rt":9.3999999761581,"correct":true,"confidence":6},{"trial_n":187,"n_dots":3.15,"target":"right","response":"right","rt":306.19999998808,"correct":true,"confidence":6},{"trial_n":188,"n_dots":3.15,"target":"left","response":"left","rt":544.79999995232,"correct":true,"confidence":6},{"trial_n":189,"n_dots":3.05,"target":"right","response":"right","rt":572.5,"correct":true,"confidence":6},{"trial_n":190,"n_dots":3.05,"target":"right","response":"right","rt":534.89999997616,"correct":true,"confidence":6},{"trial_n":191,"n_dots":2.95,"target":"right","response":"right","rt":857.10000002384,"correct":true,"confidence":6},{"trial_n":192,"n_dots":2.95,"target":"right","response":"left","rt":110.69999998808,"correct":false,"confidence":6},{"trial_n":193,"n_dots":3.05,"target":"left","response":"right","rt":805.09999996424,"correct":false,"confidence":6},{"trial_n":194,"n_dots":3.15,"target":"right","response":"left","rt":538.80000001192,"correct":false,"confidence":6}]