[{"trial_n":1,"n_dots":4.25,"target":"right","response":"left","rt":22483,"correct":false,"confidence":-1},{"trial_n":2,"n_dots":4.25,"target":"right","response":"right","rt":3381,"correct":true,"confidence":-1},{"trial_n":3,"n_dots":4.25,"target":"left","response":"left","rt":862,"correct":true,"confidence":-1},{"trial_n":4,"n_dots":3.85,"target":"left","response":"right","rt":2567,"correct":false,"confidence":-1},{"trial_n":5,"n_dots":4.25,"target":"left","response":"left","rt":648,"correct":true,"confidence":-1},{"trial_n":6,"n_dots":4.25,"target":"right","response":"left","rt":510,"correct":false,"confidence":-1},{"trial_n":7,"n_dots":4.65,"target":"left","response":"left","rt":505,"correct":true,"confidence":-1},{"trial_n":8,"n_dots":4.65,"target":"right","response":"right","rt":643,"correct":true,"confidence":-1},{"trial_n":9,"n_dots":4.45,"target":"right","response":"right","rt":667,"correct":true,"confidence":-1},{"trial_n":10,"n_dots":4.45,"target":"left","response":"left","rt":460,"correct":true,"confidence":-1},{"trial_n":11,"n_dots":4.25,"target":"right","response":"right","rt":644,"correct":true,"confidence":-1},{"trial_n":12,"n_dots":4.25,"target":"left","response":"left","rt":200,"correct":true,"confidence":-1},{"trial_n":13,"n_dots":4.15,"target":"right","response":"right","rt":686,"correct":true,"confidence":-1},{"trial_n":14,"n_dots":4.15,"target":"left","response":"left","rt":297,"correct":true,"confidence":-1},{"trial_n":15,"n_dots":4.05,"target":"right","response":"left","rt":705,"correct":false,"confidence":-1},{"trial_n":16,"n_dots":4.15,"target":"left","response":"left","rt":624,"correct":true,"confidence":-1},{"trial_n":17,"n_dots":4.15,"target":"right","response":"right","rt":1767,"correct":true,"confidence":-1},{"trial_n":18,"n_dots":4.05,"target":"left","response":"left","rt":634,"correct":true,"confidence":-1},{"trial_n":19,"n_dots":4.05,"target":"right","response":"right","rt":652,"correct":true,"confidence":-1},{"trial_n":20,"n_dots":3.95,"target":"right","response":"right","rt":1164,"correct":true,"confidence":-1},{"trial_n":21,"n_dots":3.95,"target":"right","response":"right","rt":669,"correct":true,"confidence":-1},{"trial_n":22,"n_dots":3.85,"target":"left","response":"left","rt":610,"correct":true,"confidence":-1},{"trial_n":23,"n_dots":3.85,"target":"right","response":"right","rt":735,"correct":true,"confidence":-1},{"trial_n":24,"n_dots":3.75,"target":"left","response":"left","rt":743,"correct":true,"confidence":-1},{"trial_n":25,"n_dots":3.75,"target":"left","response":"right","rt":596,"correct":false,"confidence":-1},{"trial_n":26,"n_dots":3.85,"target":"left","response":"right","rt":740,"correct":false,"confidence":-1},{"trial_n":27,"n_dots":3.95,"target":"left","response":"left","rt":624,"correct":true,"confidence":4},{"trial_n":28,"n_dots":3.95,"target":"left","response":"left","rt":1255,"correct":true,"confidence":3},{"trial_n":29,"n_dots":3.85,"target":"right","response":"right","rt":1758,"correct":true,"confidence":2},{"trial_n":30,"n_dots":3.85,"target":"right","response":"right","rt":3724,"correct":true,"confidence":2},{"trial_n":31,"n_dots":3.75,"target":"left","response":"left","rt":706,"correct":true,"confidence":4},{"trial_n":32,"n_dots":3.75,"target":"right","response":"right","rt":874,"correct":true,"confidence":4},{"trial_n":33,"n_dots":3.65,"target":"left","response":"left","rt":1777,"correct":true,"confidence":3},{"trial_n":34,"n_dots":3.65,"target":"right","response":"left","rt":2164,"correct":false,"confidence":2},{"trial_n":35,"n_dots":3.75,"target":"left","response":"left","rt":716,"correct":true,"confidence":5},{"trial_n":36,"n_dots":3.75,"target":"left","response":"left","rt":631,"correct":true,"confidence":5},{"trial_n":37,"n_dots":3.65,"target":"right","response":"right","rt":4012,"correct":true,"confidence":3},{"trial_n":38,"n_dots":3.65,"target":"left","response":"left","rt":499,"correct":true,"confidence":5},{"trial_n":39,"n_dots":3.55,"target":"left","response":"left","rt":816,"correct":true,"confidence":5},{"trial_n":40,"n_dots":3.55,"target":"right","response":"right","rt":944,"correct":true,"confidence":3},{"trial_n":41,"n_dots":3.45,"target":"left","response":"left","rt":6730,"correct":true,"confidence":2},{"trial_n":42,"n_dots":3.45,"target":"right","response":"right","rt":620,"correct":true,"confidence":4},{"trial_n":43,"n_dots":3.35,"target":"right","response":"right","rt":801,"correct":true,"confidence":4},{"trial_n":44,"n_dots":3.35,"target":"left","response":"left","rt":1772,"correct":true,"confidence":3},{"trial_n":45,"n_dots":3.25,"target":"left","response":"left","rt":531,"correct":true,"confidence":4},{"trial_n":46,"n_dots":3.25,"target":"right","response":"right","rt":2919,"correct":true,"confidence":2},{"trial_n":47,"n_dots":3.15,"target":"right","response":"right","rt":4204,"correct":true,"confidence":2},{"trial_n":48,"n_dots":3.15,"target":"left","response":"right","rt":3891,"correct":false,"confidence":1},{"trial_n":49,"n_dots":3.25,"target":"left","response":"left","rt":688,"correct":true,"confidence":3},{"trial_n":50,"n_dots":3.25,"target":"right","response":"right","rt":2096,"correct":true,"confidence":1},{"trial_n":51,"n_dots":3.15,"target":"right","response":"right","rt":2470,"correct":true,"confidence":3},{"trial_n":52,"n_dots":3.15,"target":"left","response":"left","rt":1003,"correct":true,"confidence":4},{"trial_n":53,"n_dots":3.05,"target":"right","response":"right","rt":4366,"correct":true,"confidence":2},{"trial_n":54,"n_dots":3.05,"target":"right","response":"left","rt":1177,"correct":false,"confidence":4},{"trial_n":55,"n_dots":3.15,"target":"right","response":"right","rt":973,"correct":true,"confidence":4},{"trial_n":56,"n_dots":3.15,"target":"right","response":"right","rt":830,"correct":true,"confidence":2},{"trial_n":57,"n_dots":3.05,"target":"right","response":"right","rt":2280,"correct":true,"confidence":2},{"trial_n":58,"n_dots":3.05,"target":"left","response":"left","rt":821,"correct":true,"confidence":4},{"trial_n":59,"n_dots":2.95,"target":"left","response":"left","rt":815,"correct":true,"confidence":4},{"trial_n":60,"n_dots":2.95,"target":"left","response":"right","rt":2316,"correct":false,"confidence":4},{"trial_n":61,"n_dots":3.05,"target":"left","response":"left","rt":752,"correct":true,"confidence":4},{"trial_n":62,"n_dots":3.05,"target":"left","response":"left","rt":674,"correct":true,"confidence":5},{"trial_n":63,"n_dots":2.95,"target":"left","response":"left","rt":733,"correct":true,"confidence":4},{"trial_n":64,"n_dots":2.95,"target":"right","response":"left","rt":764,"correct":false,"confidence":3},{"trial_n":65,"n_dots":3.05,"target":"left","response":"left","rt":687,"correct":true,"confidence":3},{"trial_n":66,"n_dots":3.05,"target":"right","response":"left","rt":725,"correct":false,"confidence":4},{"trial_n":67,"n_dots":3.15,"target":"right","response":"right","rt":4068,"correct":true,"confidence":2},{"trial_n":68,"n_dots":3.15,"target":"right","response":"right","rt":1127,"correct":true,"confidence":3},{"trial_n":69,"n_dots":3.05,"target":"right","response":"right","rt":1132,"correct":true,"confidence":4},{"trial_n":70,"n_dots":3.05,"target":"left","response":"left","rt":807,"correct":true,"confidence":3},{"trial_n":71,"n_dots":2.95,"target":"right","response":"right","rt":895,"correct":true,"confidence":4},{"trial_n":72,"n_dots":2.95,"target":"right","response":"right","rt":862,"correct":true,"confidence":5},{"trial_n":73,"n_dots":2.85,"target":"right","response":"right","rt":556,"correct":true,"confidence":4},{"trial_n":74,"n_dots":2.85,"target":"left","response":"right","rt":3740,"correct":false,"confidence":2},{"trial_n":75,"n_dots":2.95,"target":"right","response":"right","rt":1971,"correct":true,"confidence":3},{"trial_n":76,"n_dots":2.95,"target":"left","response":"right","rt":7809,"correct":false,"confidence":1},{"trial_n":77,"n_dots":3.05,"target":"left","response":"left","rt":2424,"correct":true,"confidence":3},{"trial_n":78,"n_dots":3.05,"target":"left","response":"right","rt":2123,"correct":false,"confidence":2},{"trial_n":79,"n_dots":3.15,"target":"left","response":"left","rt":922,"correct":true,"confidence":3},{"trial_n":80,"n_dots":3.15,"target":"left","response":"right","rt":12726,"correct":false,"confidence":2},{"trial_n":81,"n_dots":3.25,"target":"left","response":"left","rt":1432,"correct":true,"confidence":4},{"trial_n":82,"n_dots":3.25,"target":"left","response":"left","rt":772,"correct":true,"confidence":4},{"trial_n":83,"n_dots":3.15,"target":"right","response":"right","rt":5360,"correct":true,"confidence":1},{"trial_n":84,"n_dots":3.15,"target":"left","response":"left","rt":756,"correct":true,"confidence":3},{"trial_n":85,"n_dots":3.05,"target":"left","response":"left","rt":1995,"correct":true,"confidence":3},{"trial_n":86,"n_dots":3.05,"target":"left","response":"right","rt":1381,"correct":false,"confidence":3},{"trial_n":87,"n_dots":3.15,"target":"right","response":"right","rt":1402,"correct":true,"confidence":2},{"trial_n":88,"n_dots":3.15,"target":"left","response":"left","rt":6712,"correct":true,"confidence":2},{"trial_n":89,"n_dots":3.05,"target":"right","response":"right","rt":1132,"correct":true,"confidence":2},{"trial_n":90,"n_dots":3.05,"target":"left","response":"left","rt":807,"correct":true,"confidence":4},{"trial_n":91,"n_dots":2.95,"target":"right","response":"right","rt":1010,"correct":true,"confidence":4},{"trial_n":92,"n_dots":2.95,"target":"right","response":"right","rt":1013,"correct":true,"confidence":3},{"trial_n":93,"n_dots":2.85,"target":"left","response":"left","rt":1066,"correct":true,"confidence":3},{"trial_n":94,"n_dots":2.85,"target":"left","response":"left","rt":1080,"correct":true,"confidence":4},{"trial_n":95,"n_dots":2.75,"target":"right","response":"left","rt":24675,"correct":false,"confidence":1},{"trial_n":96,"n_dots":2.85,"target":"right","response":"left","rt":9489,"correct":false,"confidence":1},{"trial_n":97,"n_dots":2.95,"target":"left","response":"left","rt":1338,"correct":true,"confidence":5},{"trial_n":98,"n_dots":2.95,"target":"right","response":"right","rt":1206,"correct":true,"confidence":4},{"trial_n":99,"n_dots":2.85,"target":"left","response":"left","rt":1084,"correct":true,"confidence":4},{"trial_n":100,"n_dots":2.85,"target":"right","response":"right","rt":3173,"correct":true,"confidence":3},{"trial_n":101,"n_dots":2.75,"target":"right","response":"right","rt":4359,"correct":true,"confidence":1},{"trial_n":102,"n_dots":2.75,"target":"right","response":"right","rt":1222,"correct":true,"confidence":3},{"trial_n":103,"n_dots":2.65,"target":"left","response":"left","rt":9786,"correct":true,"confidence":3},{"trial_n":104,"n_dots":2.65,"target":"right","response":"left","rt":1142,"correct":false,"confidence":3},{"trial_n":105,"n_dots":2.75,"target":"right","response":"left","rt":1700,"correct":false,"confidence":3},{"trial_n":106,"n_dots":2.85,"target":"right","response":"left","rt":10980,"correct":false,"confidence":2},{"trial_n":107,"n_dots":2.95,"target":"left","response":"left","rt":1040,"correct":true,"confidence":3},{"trial_n":108,"n_dots":2.95,"target":"left","response":"left","rt":1360,"correct":true,"confidence":3},{"trial_n":109,"n_dots":2.85,"target":"left","response":"left","rt":1691,"correct":true,"confidence":4},{"trial_n":110,"n_dots":2.85,"target":"right","response":"right","rt":4006,"correct":true,"confidence":4},{"trial_n":111,"n_dots":2.75,"target":"left","response":"left","rt":1823,"correct":true,"confidence":2},{"trial_n":112,"n_dots":2.75,"target":"left","response":"right","rt":1241,"correct":false,"confidence":4},{"trial_n":113,"n_dots":2.85,"target":"right","response":"right","rt":1235,"correct":true,"confidence":3},{"trial_n":114,"n_dots":2.85,"target":"right","response":"right","rt":908,"correct":true,"confidence":3},{"trial_n":115,"n_dots":2.75,"target":"right","response":"right","rt":9851,"correct":true,"confidence":2},{"trial_n":116,"n_dots":2.75,"target":"right","response":"right","rt":829,"correct":true,"confidence":4},{"trial_n":117,"n_dots":2.65,"target":"left","response":"right","rt":1193,"correct":false,"confidence":3},{"trial_n":118,"n_dots":2.75,"target":"right","response":"right","rt":1287,"correct":true,"confidence":2},{"trial_n":119,"n_dots":2.75,"target":"left","response":"left","rt":600,"correct":true,"confidence":4},{"trial_n":120,"n_dots":2.65,"target":"right","response":"right","rt":748,"correct":true,"confidence":4},{"trial_n":121,"n_dots":2.65,"target":"left","response":"left","rt":584,"correct":true,"confidence":4},{"trial_n":122,"n_dots":2.55,"target":"right","response":"right","rt":898,"correct":true,"confidence":3},{"trial_n":123,"n_dots":2.55,"target":"left","response":"left","rt":843,"correct":true,"confidence":3},{"trial_n":124,"n_dots":2.45,"target":"left","response":"left","rt":3617,"correct":true,"confidence":2},{"trial_n":125,"n_dots":2.45,"target":"right","response":"right","rt":9693,"correct":true,"confidence":1},{"trial_n":126,"n_dots":2.35,"target":"right","response":"right","rt":4324,"correct":true,"confidence":1},{"trial_n":127,"n_dots":2.35,"target":"left","response":"left","rt":2166,"correct":true,"confidence":2},{"trial_n":128,"n_dots":2.25,"target":"right","response":"right","rt":735,"correct":true,"confidence":3},{"trial_n":129,"n_dots":2.25,"target":"right","response":"right","rt":7079,"correct":true,"confidence":1},{"trial_n":130,"n_dots":2.15,"target":"right","response":"right","rt":11336,"correct":true,"confidence":2},{"trial_n":131,"n_dots":2.15,"target":"right","response":"right","rt":1064,"correct":true,"confidence":2},{"trial_n":132,"n_dots":2.05,"target":"right","response":"right","rt":6893,"correct":true,"confidence":1},{"trial_n":133,"n_dots":2.05,"target":"left","response":"right","rt":3086,"correct":false,"confidence":3},{"trial_n":134,"n_dots":2.15,"target":"left","response":"right","rt":5646,"correct":false,"confidence":2},{"trial_n":135,"n_dots":2.25,"target":"left","response":"right","rt":8759,"correct":false,"confidence":2},{"trial_n":136,"n_dots":2.35,"target":"right","response":"left","rt":17963,"correct":false,"confidence":1},{"trial_n":137,"n_dots":2.45,"target":"left","response":"left","rt":1189,"correct":true,"confidence":3},{"trial_n":138,"n_dots":2.45,"target":"right","response":"right","rt":1157,"correct":true,"confidence":4},{"trial_n":139,"n_dots":2.35,"target":"left","response":"left","rt":2592,"correct":true,"confidence":3},{"trial_n":140,"n_dots":2.35,"target":"right","response":"right","rt":937,"correct":true,"confidence":3},{"trial_n":141,"n_dots":2.25,"target":"right","response":"left","rt":5643,"correct":false,"confidence":2},{"trial_n":142,"n_dots":2.35,"target":"left","response":"right","rt":1032,"correct":false,"confidence":3},{"trial_n":143,"n_dots":2.45,"target":"left","response":"left","rt":2310,"correct":true,"confidence":2},{"trial_n":144,"n_dots":2.45,"target":"right","response":"right","rt":1013,"correct":true,"confidence":3},{"trial_n":145,"n_dots":2.35,"target":"left","response":"right","rt":14325,"correct":false,"confidence":1},{"trial_n":146,"n_dots":2.45,"target":"right","response":"right","rt":959,"correct":true,"confidence":3},{"trial_n":147,"n_dots":2.45,"target":"left","response":"right","rt":10812,"correct":false,"confidence":1},{"trial_n":148,"n_dots":2.55,"target":"left","response":"left","rt":4653,"correct":true,"confidence":3},{"trial_n":149,"n_dots":2.55,"target":"left","response":"left","rt":965,"correct":true,"confidence":4},{"trial_n":150,"n_dots":2.45,"target":"right","response":"left","rt":3058,"correct":false,"confidence":3},{"trial_n":151,"n_dots":2.55,"target":"right","response":"left","rt":755,"correct":false,"confidence":4},{"trial_n":152,"n_dots":2.65,"target":"right","response":"right","rt":12868,"correct":true,"confidence":2},{"trial_n":153,"n_dots":2.65,"target":"left","response":"right","rt":1197,"correct":false,"confidence":3},{"trial_n":154,"n_dots":2.75,"target":"right","response":"right","rt":1297,"correct":true,"confidence":4},{"trial_n":155,"n_dots":2.75,"target":"left","response":"right","rt":2068,"correct":false,"confidence":4},{"trial_n":156,"n_dots":2.85,"target":"left","response":"right","rt":17045,"correct":false,"confidence":2},{"trial_n":157,"n_dots":2.95,"target":"right","response":"right","rt":11981,"correct":true,"confidence":1},{"trial_n":158,"n_dots":2.95,"target":"right","response":"right","rt":781,"correct":true,"confidence":3},{"trial_n":159,"n_dots":2.85,"target":"left","response":"left","rt":1813,"correct":true,"confidence":2},{"trial_n":160,"n_dots":2.85,"target":"right","response":"right","rt":11288,"correct":true,"confidence":2},{"trial_n":161,"n_dots":2.75,"target":"right","response":"right","rt":10711,"correct":true,"confidence":2},{"trial_n":162,"n_dots":2.75,"target":"left","response":"left","rt":9114,"correct":true,"confidence":1},{"trial_n":163,"n_dots":2.65,"target":"right","response":"left","rt":4375,"correct":false,"confidence":3},{"trial_n":164,"n_dots":2.75,"target":"right","response":"right","rt":719,"correct":true,"confidence":4},{"trial_n":165,"n_dots":2.75,"target":"left","response":"left","rt":17119,"correct":true,"confidence":2},{"trial_n":166,"n_dots":2.65,"target":"left","response":"left","rt":3767,"correct":true,"confidence":1},{"trial_n":167,"n_dots":2.65,"target":"right","response":"right","rt":903,"correct":true,"confidence":4},{"trial_n":168,"n_dots":2.55,"target":"right","response":"right","rt":562,"correct":true,"confidence":4},{"trial_n":169,"n_dots":2.55,"target":"right","response":"right","rt":2580,"correct":true,"confidence":3},{"trial_n":170,"n_dots":2.45,"target":"left","response":"left","rt":2935,"correct":true,"confidence":3},{"trial_n":171,"n_dots":2.45,"target":"left","response":"left","rt":13547,"correct":true,"confidence":2},{"trial_n":172,"n_dots":2.35,"target":"left","response":"left","rt":788,"correct":true,"confidence":5},{"trial_n":173,"n_dots":2.35,"target":"left","response":"left","rt":3368,"correct":true,"confidence":4},{"trial_n":174,"n_dots":2.25,"target":"left","response":"right","rt":1418,"correct":false,"confidence":3},{"trial_n":175,"n_dots":2.35,"target":"left","response":"right","rt":985,"correct":false,"confidence":4},{"trial_n":176,"n_dots":2.45,"target":"left","response":"left","rt":2131,"correct":true,"confidence":4},{"trial_n":177,"n_dots":2.45,"target":"left","response":"left","rt":985,"correct":true,"confidence":4},{"trial_n":178,"n_dots":2.35,"target":"right","response":"left","rt":2082,"correct":false,"confidence":1},{"trial_n":179,"n_dots":2.45,"target":"right","response":"right","rt":1098,"correct":true,"confidence":4},{"trial_n":180,"n_dots":2.45,"target":"left","response":"left","rt":2607,"correct":true,"confidence":2},{"trial_n":181,"n_dots":2.35,"target":"left","response":"left","rt":10993,"correct":true,"confidence":1},{"trial_n":182,"n_dots":2.35,"target":"right","response":"right","rt":635,"correct":true,"confidence":4},{"trial_n":183,"n_dots":2.25,"target":"right","response":"left","rt":10286,"correct":false,"confidence":1},{"trial_n":184,"n_dots":2.35,"target":"right","response":"left","rt":12463,"correct":false,"confidence":1},{"trial_n":185,"n_dots":2.45,"target":"right","response":"right","rt":6209,"correct":true,"confidence":2},{"trial_n":186,"n_dots":2.45,"target":"left","response":"left","rt":8282,"correct":true,"confidence":3},{"trial_n":187,"n_dots":2.35,"target":"left","response":"right","rt":2942,"correct":false,"confidence":3},{"trial_n":188,"n_dots":2.45,"target":"right","response":"right","rt":971,"correct":true,"confidence":4},{"trial_n":189,"n_dots":2.45,"target":"left","response":"left","rt":1244,"correct":true,"confidence":3},{"trial_n":190,"n_dots":2.35,"target":"left","response":"left","rt":1266,"correct":true,"confidence":3},{"trial_n":191,"n_dots":2.35,"target":"left","response":"left","rt":8853,"correct":true,"confidence":2},{"trial_n":192,"n_dots":2.25,"target":"right","response":"left","rt":16042,"correct":false,"confidence":1},{"trial_n":193,"n_dots":2.35,"target":"right","response":"right","rt":7170,"correct":true,"confidence":1},{"trial_n":194,"n_dots":2.35,"target":"right","response":"right","rt":1757,"correct":true,"confidence":3}]