[{"trial_n":1,"n_dots":4.25,"target":"left","response":"left","rt":3638.200000003,"correct":true,"confidence":-1},{"trial_n":2,"n_dots":4.25,"target":"right","response":"left","rt":689.5,"correct":false,"confidence":-1},{"trial_n":3,"n_dots":4.65,"target":"right","response":"right","rt":591.10000000894,"correct":true,"confidence":-1},{"trial_n":4,"n_dots":4.65,"target":"right","response":"right","rt":472,"correct":true,"confidence":-1},{"trial_n":5,"n_dots":4.25,"target":"left","response":"left","rt":490.5,"correct":true,"confidence":-1},{"trial_n":6,"n_dots":4.25,"target":"right","response":"right","rt":315.90000000596,"correct":true,"confidence":-1},{"trial_n":7,"n_dots":3.85,"target":"left","response":"left","rt":281.89999999106,"correct":true,"confidence":-1},{"trial_n":8,"n_dots":3.85,"target":"left","response":"left","rt":337.70000000298,"correct":true,"confidence":-1},{"trial_n":9,"n_dots":3.65,"target":"right","response":"left","rt":85,"correct":false,"confidence":-1},{"trial_n":10,"n_dots":3.85,"target":"left","response":"left","rt":321.59999999404,"correct":true,"confidence":-1},{"trial_n":11,"n_dots":3.85,"target":"right","response":"left","rt":367.5,"correct":false,"confidence":-1},{"trial_n":12,"n_dots":4.05,"target":"right","response":"right","rt":384.90000000596,"correct":true,"confidence":-1},{"trial_n":13,"n_dots":4.05,"target":"left","response":"left","rt":711,"correct":true,"confidence":-1},{"trial_n":14,"n_dots":3.95,"target":"left","response":"right","rt":398.79999999702,"correct":false,"confidence":-1},{"trial_n":15,"n_dots":4.05,"target":"left","response":"left","rt":17238.700000003,"correct":true,"confidence":-1},{"trial_n":16,"n_dots":4.05,"target":"left","response":"left","rt":518.09999999404,"correct":true,"confidence":-1},{"trial_n":17,"n_dots":3.95,"target":"right","response":"right","rt":338.39999999106,"correct":true,"confidence":-1},{"trial_n":18,"n_dots":3.95,"target":"right","response":"right","rt":406.20000000298,"correct":true,"confidence":-1},{"trial_n":19,"n_dots":3.85,"target":"right","response":"right","rt":177.19999998808,"correct":true,"confidence":-1},{"trial_n":20,"n_dots":3.85,"target":"left","response":"left","rt":441.70000000298,"correct":true,"confidence":-1},{"trial_n":21,"n_dots":3.75,"target":"right","response":"right","rt":230.59999999404,"correct":true,"confidence":-1},{"trial_n":22,"n_dots":3.75,"target":"left","response":"left","rt":249.29999999702,"correct":true,"confidence":-1},{"trial_n":23,"n_dots":3.65,"target":"right","response":"right","rt":44.09999999404,"correct":true,"confidence":-1},{"trial_n":24,"n_dots":3.65,"target":"left","response":"right","rt":5.0999999940395,"correct":false,"confidence":-1},{"trial_n":25,"n_dots":3.75,"target":"right","response":"right","rt":17.199999988079,"correct":true,"confidence":-1},{"trial_n":26,"n_dots":3.75,"target":"right","response":"left","rt":213.90000000596,"correct":false,"confidence":-1},{"trial_n":27,"n_dots":3.85,"target":"right","response":"right","rt":269.89999999106,"correct":true,"confidence":5},{"trial_n":28,"n_dots":3.85,"target":"right","response":"left","rt":629,"correct":false,"confidence":3},{"trial_n":29,"n_dots":3.95,"target":"right","response":"right","rt":585.70000000298,"correct":true,"confidence":6},{"trial_n":30,"n_dots":3.95,"target":"left","response":"left","rt":430.5,"correct":true,"confidence":3},{"trial_n":31,"n_dots":3.85,"target":"left","response":"left","rt":300.5,"correct":true,"confidence":6},{"trial_n":32,"n_dots":3.85,"target":"right","response":"right","rt":327.20000000298,"correct":true,"confidence":5},{"trial_n":33,"n_dots":3.75,"target":"right","response":"left","rt":1112.5,"correct":false,"confidence":4},{"trial_n":34,"n_dots":3.85,"target":"left","response":"left","rt":730.79999999702,"correct":true,"confidence":5},{"trial_n":35,"n_dots":3.85,"target":"left","response":"left","rt":309,"correct":true,"confidence":6},{"trial_n":36,"n_dots":3.75,"target":"left","response":"left","rt":291.09999999404,"correct":true,"confidence":6},{"trial_n":37,"n_dots":3.75,"target":"right","response":"left","rt":396.20000000298,"correct":false,"confidence":6},{"trial_n":38,"n_dots":3.85,"target":"left","response":"left","rt":272.70000000298,"correct":true,"confidence":6},{"trial_n":39,"n_dots":3.85,"target":"right","response":"left","rt":314,"correct":false,"confidence":6},{"trial_n":40,"n_dots":3.95,"target":"left","response":"left","rt":337.70000000298,"correct":true,"confidence":6},{"trial_n":41,"n_dots":3.95,"target":"left","response":"left","rt":248.90000000596,"correct":true,"confidence":6},{"trial_n":42,"n_dots":3.85,"target":"left","response":"left","rt":291.09999999404,"correct":true,"confidence":6},{"trial_n":43,"n_dots":3.85,"target":"left","response":"left","rt":102.29999999702,"correct":true,"confidence":6},{"trial_n":44,"n_dots":3.75,"target":"right","response":"right","rt":252.70000000298,"correct":true,"confidence":5},{"trial_n":45,"n_dots":3.75,"target":"left","response":"left","rt":260.29999999702,"correct":true,"confidence":4},{"trial_n":46,"n_dots":3.65,"target":"left","response":"left","rt":121.59999999404,"correct":true,"confidence":6},{"trial_n":47,"n_dots":3.65,"target":"left","response":"left","rt":335.89999999106,"correct":true,"confidence":6},{"trial_n":48,"n_dots":3.55,"target":"left","response":"left","rt":68.70000000298,"correct":true,"confidence":6},{"trial_n":49,"n_dots":3.55,"target":"left","response":"left","rt":313,"correct":true,"confidence":6},{"trial_n":50,"n_dots":3.45,"target":"right","response":"left","rt":414.5,"correct":false,"confidence":5},{"trial_n":51,"n_dots":3.55,"target":"left","response":"left","rt":504,"correct":true,"confidence":5},{"trial_n":52,"n_dots":3.55,"target":"left","response":"left","rt":411.5,"correct":true,"confidence":4},{"trial_n":53,"n_dots":3.45,"target":"left","response":"left","rt":673.19999998808,"correct":true,"confidence":3},{"trial_n":54,"n_dots":3.45,"target":"right","response":"right","rt":393,"correct":true,"confidence":4},{"trial_n":55,"n_dots":3.35,"target":"right","response":"left","rt":204.59999999404,"correct":false,"confidence":4},{"trial_n":56,"n_dots":3.45,"target":"right","response":"right","rt":423.70000000298,"correct":true,"confidence":5},{"trial_n":57,"n_dots":3.45,"target":"left","response":"left","rt":440,"correct":true,"confidence":3},{"trial_n":58,"n_dots":3.35,"target":"left","response":"right","rt":567.80000001192,"correct":false,"confidence":4},{"trial_n":59,"n_dots":3.45,"target":"left","response":"left","rt":230,"correct":true,"confidence":5},{"trial_n":60,"n_dots":3.45,"target":"right","response":"left","rt":268,"correct":false,"confidence":3},{"trial_n":61,"n_dots":3.55,"target":"left","response":"right","rt":519.20000000298,"correct":false,"confidence":4},{"trial_n":62,"n_dots":3.65,"target":"left","response":"right","rt":490.10000000894,"correct":false,"confidence":4},{"trial_n":63,"n_dots":3.75,"target":"right","response":"left","rt":373.19999998808,"correct":false,"confidence":4},{"trial_n":64,"n_dots":3.85,"target":"right","response":"right","rt":242.09999999404,"correct":true,"confidence":5},{"trial_n":65,"n_dots":3.85,"target":"left","response":"left","rt":72.29999999702,"correct":true,"confidence":4},{"trial_n":66,"n_dots":3.75,"target":"right","response":"right","rt":1020.400000006,"correct":true,"confidence":5},{"trial_n":67,"n_dots":3.75,"target":"right","response":"right","rt":18.5,"correct":true,"confidence":4},{"trial_n":68,"n_dots":3.65,"target":"left","response":"left","rt":180.70000000298,"correct":true,"confidence":4},{"trial_n":69,"n_dots":3.65,"target":"right","response":"right","rt":403.10000000894,"correct":true,"confidence":1},{"trial_n":70,"n_dots":3.55,"target":"left","response":"left","rt":3195.1999999881,"correct":true,"confidence":4},{"trial_n":71,"n_dots":3.55,"target":"right","response":"left","rt":387.59999999404,"correct":false,"confidence":5},{"trial_n":72,"n_dots":3.65,"target":"left","response":"left","rt":499,"correct":true,"confidence":4},{"trial_n":73,"n_dots":3.65,"target":"left","response":"left","rt":115.80000001192,"correct":true,"confidence":5},{"trial_n":74,"n_dots":3.55,"target":"right","response":"right","rt":349.09999999404,"correct":true,"confidence":4},{"trial_n":75,"n_dots":3.55,"target":"left","response":"left","rt":404.09999999404,"correct":true,"confidence":5},{"trial_n":76,"n_dots":3.45,"target":"right","response":"left","rt":234.70000000298,"correct":false,"confidence":4},{"trial_n":77,"n_dots":3.55,"target":"right","response":"left","rt":476.90000000596,"correct":false,"confidence":4},{"trial_n":78,"n_dots":3.65,"target":"right","response":"right","rt":237.09999999404,"correct":true,"confidence":4},{"trial_n":79,"n_dots":3.65,"target":"left","response":"left","rt":520.60000000894,"correct":true,"confidence":4},{"trial_n":80,"n_dots":3.55,"target":"right","response":"right","rt":680.79999999702,"correct":true,"confidence":4},{"trial_n":81,"n_dots":3.55,"target":"right","response":"left","rt":9033.599999994,"correct":false,"confidence":4},{"trial_n":82,"n_dots":3.65,"target":"right","response":"left","rt":175.40000000596,"correct":false,"confidence":4},{"trial_n":83,"n_dots":3.75,"target":"right","response":"left","rt":3654.5,"correct":false,"confidence":5},{"trial_n":84,"n_dots":3.85,"target":"right","response":"left","rt":863.20000000298,"correct":false,"confidence":4},{"trial_n":85,"n_dots":3.95,"target":"right","response":"left","rt":194.59999999404,"correct":false,"confidence":4},{"trial_n":86,"n_dots":4.05,"target":"left","response":"left","rt":53.09999999404,"correct":true,"confidence":6},{"trial_n":87,"n_dots":4.05,"target":"right","response":"left","rt":658.5,"correct":false,"confidence":5},{"trial_n":88,"n_dots":4.15,"target":"right","response":"left","rt":443.20000000298,"correct":false,"confidence":5},{"trial_n":89,"n_dots":4.25,"target":"right","response":"right","rt":447.40000000596,"correct":true,"confidence":5},{"trial_n":90,"n_dots":4.25,"target":"right","response":"right","rt":434.69999998808,"correct":true,"confidence":2},{"trial_n":91,"n_dots":4.15,"target":"right","response":"right","rt":283.5,"correct":true,"confidence":6},{"trial_n":92,"n_dots":4.15,"target":"left","response":"left","rt":305,"correct":true,"confidence":6},{"trial_n":93,"n_dots":4.05,"target":"right","response":"right","rt":177,"correct":true,"confidence":6},{"trial_n":94,"n_dots":4.05,"target":"right","response":"right","rt":172.70000000298,"correct":true,"confidence":5},{"trial_n":95,"n_dots":3.95,"target":"left","response":"left","rt":304.70000000298,"correct":true,"confidence":6},{"trial_n":96,"n_dots":3.95,"target":"right","response":"right","rt":373.70000000298,"correct":true,"confidence":6},{"trial_n":97,"n_dots":3.85,"target":"right","response":"left","rt":434.5,"correct":false,"confidence":4},{"trial_n":98,"n_dots":3.95,"target":"left","response":"left","rt":75.20000000298,"correct":true,"confidence":6},{"trial_n":99,"n_dots":3.95,"target":"right","response":"right","rt":418.79999999702,"correct":true,"confidence":5},{"trial_n":100,"n_dots":3.85,"target":"right","response":"left","rt":346,"correct":false,"confidence":4},{"trial_n":101,"n_dots":3.95,"target":"left","response":"left","rt":240.20000000298,"correct":true,"confidence":6},{"trial_n":102,"n_dots":3.95,"target":"left","response":"left","rt":44.59999999404,"correct":true,"confidence":6},{"trial_n":103,"n_dots":3.85,"target":"left","response":"left","rt":464.59999999404,"correct":true,"confidence":6},{"trial_n":104,"n_dots":3.85,"target":"right","response":"left","rt":145.09999999404,"correct":false,"confidence":1},{"trial_n":105,"n_dots":3.95,"target":"right","response":"right","rt":58.70000000298,"correct":true,"confidence":6},{"trial_n":106,"n_dots":3.95,"target":"left","response":"left","rt":407.60000000894,"correct":true,"confidence":6},{"trial_n":107,"n_dots":3.85,"target":"left","response":"right","rt":703.70000000298,"correct":false,"confidence":4},{"trial_n":108,"n_dots":3.95,"target":"left","response":"left","rt":84.5,"correct":true,"confidence":4},{"trial_n":109,"n_dots":3.95,"target":"left","response":"left","rt":2508.400000006,"correct":true,"confidence":5},{"trial_n":110,"n_dots":3.85,"target":"left","response":"left","rt":269.89999999106,"correct":true,"confidence":6},{"trial_n":111,"n_dots":3.85,"target":"left","response":"left","rt":438.89999999106,"correct":true,"confidence":6},{"trial_n":112,"n_dots":3.75,"target":"right","response":"right","rt":343.5,"correct":true,"confidence":4},{"trial_n":113,"n_dots":3.75,"target":"left","response":"left","rt":330.90000000596,"correct":true,"confidence":5},{"trial_n":114,"n_dots":3.65,"target":"right","response":"right","rt":138.19999998808,"correct":true,"confidence":5},{"trial_n":115,"n_dots":3.65,"target":"right","response":"right","rt":528.70000000298,"correct":true,"confidence":4},{"trial_n":116,"n_dots":3.55,"target":"left","response":"left","rt":471.69999998808,"correct":true,"confidence":4},{"trial_n":117,"n_dots":3.55,"target":"right","response":"right","rt":77.70000000298,"correct":true,"confidence":6},{"trial_n":118,"n_dots":3.45,"target":"left","response":"left","rt":390.79999999702,"correct":true,"confidence":6},{"trial_n":119,"n_dots":3.45,"target":"left","response":"right","rt":634.79999999702,"correct":false,"confidence":5},{"trial_n":120,"n_dots":3.55,"target":"right","response":"left","rt":15.79999999702,"correct":false,"confidence":5},{"trial_n":121,"n_dots":3.65,"target":"left","response":"left","rt":427.60000000894,"correct":true,"confidence":6},{"trial_n":122,"n_dots":3.65,"target":"left","response":"left","rt":390.89999999106,"correct":true,"confidence":5},{"trial_n":123,"n_dots":3.55,"target":"left","response":"left","rt":640.29999999702,"correct":true,"confidence":4},{"trial_n":124,"n_dots":3.55,"target":"left","response":"left","rt":594.5,"correct":true,"confidence":6},{"trial_n":125,"n_dots":3.45,"target":"left","response":"left","rt":188.19999998808,"correct":true,"confidence":6},{"trial_n":126,"n_dots":3.45,"target":"right","response":"right","rt":82.40000000596,"correct":true,"confidence":5},{"trial_n":127,"n_dots":3.35,"target":"left","response":"left","rt":638.59999999404,"correct":true,"confidence":6},{"trial_n":128,"n_dots":3.35,"target":"left","response":"left","rt":159.09999999404,"correct":true,"confidence":6},{"trial_n":129,"n_dots":3.25,"target":"left","response":"left","rt":227.29999999702,"correct":true,"confidence":6},{"trial_n":130,"n_dots":3.25,"target":"right","response":"right","rt":210.40000000596,"correct":true,"confidence":6},{"trial_n":131,"n_dots":3.15,"target":"left","response":"left","rt":576.79999999702,"correct":true,"confidence":5},{"trial_n":132,"n_dots":3.15,"target":"left","response":"left","rt":2310.8999999911,"correct":true,"confidence":4},{"trial_n":133,"n_dots":3.05,"target":"right","response":"right","rt":252,"correct":true,"confidence":6},{"trial_n":134,"n_dots":3.05,"target":"right","response":"right","rt":558.79999999702,"correct":true,"confidence":6},{"trial_n":135,"n_dots":2.95,"target":"right","response":"left","rt":172.70000000298,"correct":false,"confidence":4},{"trial_n":136,"n_dots":3.05,"target":"left","response":"left","rt":262.59999999404,"correct":true,"confidence":6},{"trial_n":137,"n_dots":3.05,"target":"right","response":"right","rt":175.5,"correct":true,"confidence":4},{"trial_n":138,"n_dots":2.95,"target":"right","response":"left","rt":347.5,"correct":false,"confidence":6},{"trial_n":139,"n_dots":3.05,"target":"left","response":"left","rt":303.89999999106,"correct":true,"confidence":6},{"trial_n":140,"n_dots":3.05,"target":"left","response":"left","rt":469.29999999702,"correct":true,"confidence":6},{"trial_n":141,"n_dots":2.95,"target":"right","response":"left","rt":559.40000000596,"correct":false,"confidence":4},{"trial_n":142,"n_dots":3.05,"target":"right","response":"left","rt":517.79999999702,"correct":false,"confidence":6},{"trial_n":143,"n_dots":3.15,"target":"left","response":"right","rt":521.59999999404,"correct":false,"confidence":4},{"trial_n":144,"n_dots":3.25,"target":"left","response":"left","rt":518.89999999106,"correct":true,"confidence":6},{"trial_n":145,"n_dots":3.25,"target":"right","response":"right","rt":152.79999999702,"correct":true,"confidence":6},{"trial_n":146,"n_dots":3.15,"target":"left","response":"left","rt":59.09999999404,"correct":true,"confidence":6},{"trial_n":147,"n_dots":3.15,"target":"right","response":"right","rt":225.40000000596,"correct":true,"confidence":4},{"trial_n":148,"n_dots":3.05,"target":"left","response":"left","rt":51,"correct":true,"confidence":6},{"trial_n":149,"n_dots":3.05,"target":"right","response":"right","rt":118.09999999404,"correct":true,"confidence":1},{"trial_n":150,"n_dots":2.95,"target":"right","response":"right","rt":208.10000000894,"correct":true,"confidence":4},{"trial_n":151,"n_dots":2.95,"target":"left","response":"right","rt":362.09999999404,"correct":false,"confidence":3},{"trial_n":152,"n_dots":3.05,"target":"right","response":"left","rt":9200.400000006,"correct":false,"confidence":4},{"trial_n":153,"n_dots":3.15,"target":"left","response":"left","rt":6726.099999994,"correct":true,"confidence":3},{"trial_n":154,"n_dots":3.15,"target":"left","response":"left","rt":300.39999999106,"correct":true,"confidence":6},{"trial_n":155,"n_dots":3.05,"target":"right","response":"right","rt":422.70000000298,"correct":true,"confidence":6},{"trial_n":156,"n_dots":3.05,"target":"right","response":"right","rt":388.09999999404,"correct":true,"confidence":4},{"trial_n":157,"n_dots":2.95,"target":"left","response":"left","rt":926.40000000596,"correct":true,"confidence":4},{"trial_n":158,"n_dots":2.95,"target":"left","response":"right","rt":495.59999999404,"correct":false,"confidence":4},{"trial_n":159,"n_dots":3.05,"target":"right","response":"left","rt":125.29999999702,"correct":false,"confidence":4},{"trial_n":160,"n_dots":3.15,"target":"left","response":"left","rt":487.29999999702,"correct":true,"confidence":4},{"trial_n":161,"n_dots":3.15,"target":"right","response":"left","rt":165.90000000596,"correct":false,"confidence":4},{"trial_n":162,"n_dots":3.25,"target":"right","response":"right","rt":421.10000000894,"correct":true,"confidence":1},{"trial_n":163,"n_dots":3.25,"target":"left","response":"right","rt":7548.099999994,"correct":false,"confidence":5},{"trial_n":164,"n_dots":3.35,"target":"left","response":"left","rt":5.5,"correct":true,"confidence":5},{"trial_n":165,"n_dots":3.35,"target":"right","response":"left","rt":344.40000000596,"correct":false,"confidence":4},{"trial_n":166,"n_dots":3.45,"target":"left","response":"left","rt":117.59999999404,"correct":true,"confidence":4},{"trial_n":167,"n_dots":3.45,"target":"left","response":"left","rt":517.59999999404,"correct":true,"confidence":5},{"trial_n":168,"n_dots":3.35,"target":"right","response":"right","rt":22.600000008941,"correct":true,"confidence":5},{"trial_n":169,"n_dots":3.35,"target":"left","response":"left","rt":441.39999999106,"correct":true,"confidence":5},{"trial_n":170,"n_dots":3.25,"target":"left","response":"right","rt":122.09999999404,"correct":false,"confidence":5},{"trial_n":171,"n_dots":3.35,"target":"right","response":"right","rt":73.800000011921,"correct":true,"confidence":5},{"trial_n":172,"n_dots":3.35,"target":"left","response":"left","rt":1550.599999994,"correct":true,"confidence":5},{"trial_n":173,"n_dots":3.25,"target":"left","response":"left","rt":12.79999999702,"correct":true,"confidence":5},{"trial_n":174,"n_dots":3.25,"target":"right","response":"right","rt":39.300000011921,"correct":true,"confidence":5},{"trial_n":175,"n_dots":3.15,"target":"right","response":"left","rt":507.30000001192,"correct":false,"confidence":5},{"trial_n":176,"n_dots":3.25,"target":"right","response":"left","rt":20.699999988079,"correct":false,"confidence":5},{"trial_n":177,"n_dots":3.35,"target":"left","response":"right","rt":410.59999999404,"correct":false,"confidence":5},{"trial_n":178,"n_dots":3.45,"target":"left","response":"left","rt":591.10000000894,"correct":true,"confidence":4},{"trial_n":179,"n_dots":3.45,"target":"left","response":"left","rt":554.5,"correct":true,"confidence":4},{"trial_n":180,"n_dots":3.35,"target":"left","response":"right","rt":6972.3999999911,"correct":false,"confidence":1},{"trial_n":181,"n_dots":3.45,"target":"left","response":"left","rt":59.79999999702,"correct":true,"confidence":6},{"trial_n":182,"n_dots":3.45,"target":"right","response":"left","rt":9.0999999940395,"correct":false,"confidence":6},{"trial_n":183,"n_dots":3.55,"target":"right","response":"right","rt":463.39999999106,"correct":true,"confidence":4},{"trial_n":184,"n_dots":3.55,"target":"right","response":"left","rt":319.90000000596,"correct":false,"confidence":5},{"trial_n":185,"n_dots":3.65,"target":"right","response":"left","rt":533.5,"correct":false,"confidence":4},{"trial_n":186,"n_dots":3.75,"target":"left","response":"right","rt":255.20000000298,"correct":false,"confidence":6},{"trial_n":187,"n_dots":3.85,"target":"right","response":"right","rt":67.899999991059,"correct":true,"confidence":5},{"trial_n":188,"n_dots":3.85,"target":"right","response":"left","rt":27.70000000298,"correct":false,"confidence":4},{"trial_n":189,"n_dots":3.95,"target":"right","response":"right","rt":34.899999991059,"correct":true,"confidence":6},{"trial_n":190,"n_dots":3.95,"target":"right","response":"right","rt":538.20000000298,"correct":true,"confidence":6},{"trial_n":191,"n_dots":3.85,"target":"left","response":"left","rt":350.29999999702,"correct":true,"confidence":1},{"trial_n":192,"n_dots":3.85,"target":"right","response":"right","rt":290.90000000596,"correct":true,"confidence":6},{"trial_n":193,"n_dots":3.75,"target":"right","response":"right","rt":32.399999991059,"correct":true,"confidence":5},{"trial_n":194,"n_dots":3.75,"target":"right","response":"right","rt":4.5,"correct":true,"confidence":1}]