[{"trial_n":1,"n_dots":4.25,"target":"left","response":"left","rt":6336,"correct":true,"confidence":-1},{"trial_n":2,"n_dots":4.25,"target":"left","response":"left","rt":1770.7999999523,"correct":true,"confidence":-1},{"trial_n":3,"n_dots":3.85,"target":"right","response":"right","rt":914.89999997616,"correct":true,"confidence":-1},{"trial_n":4,"n_dots":3.85,"target":"left","response":"left","rt":777.89999997616,"correct":true,"confidence":-1},{"trial_n":5,"n_dots":3.45,"target":"right","response":"right","rt":604.5,"correct":true,"confidence":-1},{"trial_n":6,"n_dots":3.45,"target":"left","response":"right","rt":1346.3999999762,"correct":false,"confidence":-1},{"trial_n":7,"n_dots":3.85,"target":"left","response":"left","rt":674,"correct":true,"confidence":-1},{"trial_n":8,"n_dots":3.85,"target":"left","response":"left","rt":643.89999997616,"correct":true,"confidence":-1},{"trial_n":9,"n_dots":3.65,"target":"right","response":"right","rt":534,"correct":true,"confidence":-1},{"trial_n":10,"n_dots":3.65,"target":"right","response":"right","rt":483.39999997616,"correct":true,"confidence":-1},{"trial_n":11,"n_dots":3.45,"target":"right","response":"right","rt":363.39999997616,"correct":true,"confidence":-1},{"trial_n":12,"n_dots":3.45,"target":"right","response":"right","rt":917.80000007153,"correct":true,"confidence":-1},{"trial_n":13,"n_dots":3.35,"target":"right","response":"right","rt":1138.7000000477,"correct":true,"confidence":-1},{"trial_n":14,"n_dots":3.35,"target":"left","response":"left","rt":721.20000004768,"correct":true,"confidence":-1},{"trial_n":15,"n_dots":3.25,"target":"left","response":"left","rt":650.20000004768,"correct":true,"confidence":-1},{"trial_n":16,"n_dots":3.25,"target":"right","response":"right","rt":535.5,"correct":true,"confidence":-1},{"trial_n":17,"n_dots":3.15,"target":"right","response":"right","rt":1167.3999999762,"correct":true,"confidence":-1},{"trial_n":18,"n_dots":3.15,"target":"right","response":"right","rt":856.89999997616,"correct":true,"confidence":-1},{"trial_n":19,"n_dots":3.05,"target":"right","response":"left","rt":502.20000004768,"correct":false,"confidence":-1},{"trial_n":20,"n_dots":3.15,"target":"left","response":"left","rt":602.5,"correct":true,"confidence":-1},{"trial_n":21,"n_dots":3.15,"target":"right","response":"right","rt":698.60000002384,"correct":true,"confidence":-1},{"trial_n":22,"n_dots":3.05,"target":"left","response":"left","rt":848.79999995232,"correct":true,"confidence":-1},{"trial_n":23,"n_dots":3.05,"target":"right","response":"right","rt":520.60000002384,"correct":true,"confidence":-1},{"trial_n":24,"n_dots":2.95,"target":"right","response":"right","rt":458.60000002384,"correct":true,"confidence":-1},{"trial_n":25,"n_dots":2.95,"target":"left","response":"left","rt":571.70000004768,"correct":true,"confidence":-1},{"trial_n":26,"n_dots":2.85,"target":"left","response":"right","rt":578,"correct":false,"confidence":-1},{"trial_n":27,"n_dots":2.95,"target":"left","response":"left","rt":784.60000002384,"correct":true,"confidence":3},{"trial_n":28,"n_dots":2.95,"target":"right","response":"right","rt":550.90000009537,"correct":true,"confidence":4},{"trial_n":29,"n_dots":2.85,"target":"right","response":"left","rt":845.80000007153,"correct":false,"confidence":2},{"trial_n":30,"n_dots":2.95,"target":"left","response":"right","rt":641.40000009537,"correct":false,"confidence":5},{"trial_n":31,"n_dots":3.05,"target":"right","response":"right","rt":1394.5,"correct":true,"confidence":1},{"trial_n":32,"n_dots":3.05,"target":"left","response":"left","rt":462.19999992847,"correct":true,"confidence":6},{"trial_n":33,"n_dots":2.95,"target":"left","response":"left","rt":636.70000004768,"correct":true,"confidence":4},{"trial_n":34,"n_dots":2.95,"target":"right","response":"right","rt":869.90000009537,"correct":true,"confidence":2},{"trial_n":35,"n_dots":2.85,"target":"left","response":"left","rt":521,"correct":true,"confidence":4},{"trial_n":36,"n_dots":2.85,"target":"left","response":"left","rt":516.60000002384,"correct":true,"confidence":3},{"trial_n":37,"n_dots":2.75,"target":"left","response":"left","rt":490.5,"correct":true,"confidence":5},{"trial_n":38,"n_dots":2.75,"target":"left","response":"left","rt":1020.3000000715,"correct":true,"confidence":1},{"trial_n":39,"n_dots":2.65,"target":"right","response":"right","rt":525.20000004768,"correct":true,"confidence":4},{"trial_n":40,"n_dots":2.65,"target":"left","response":"left","rt":555.60000002384,"correct":true,"confidence":2},{"trial_n":41,"n_dots":2.55,"target":"left","response":"left","rt":573.40000009537,"correct":true,"confidence":3},{"trial_n":42,"n_dots":2.55,"target":"left","response":"right","rt":482.70000004768,"correct":false,"confidence":4},{"trial_n":43,"n_dots":2.65,"target":"right","response":"left","rt":638.79999995232,"correct":false,"confidence":3},{"trial_n":44,"n_dots":2.75,"target":"left","response":"left","rt":666.89999997616,"correct":true,"confidence":2},{"trial_n":45,"n_dots":2.75,"target":"left","response":"right","rt":863.29999995232,"correct":false,"confidence":1},{"trial_n":46,"n_dots":2.85,"target":"right","response":"right","rt":440,"correct":true,"confidence":6},{"trial_n":47,"n_dots":2.85,"target":"right","response":"right","rt":503.79999995232,"correct":true,"confidence":3},{"trial_n":48,"n_dots":2.75,"target":"left","response":"left","rt":662.70000004768,"correct":true,"confidence":2},{"trial_n":49,"n_dots":2.75,"target":"left","response":"left","rt":565.80000007153,"correct":true,"confidence":2},{"trial_n":50,"n_dots":2.65,"target":"right","response":"right","rt":394,"correct":true,"confidence":5},{"trial_n":51,"n_dots":2.65,"target":"right","response":"right","rt":669.79999995232,"correct":true,"confidence":3},{"trial_n":52,"n_dots":2.55,"target":"right","response":"right","rt":1602.7000000477,"correct":true,"confidence":1},{"trial_n":53,"n_dots":2.55,"target":"right","response":"right","rt":448.5,"correct":true,"confidence":4},{"trial_n":54,"n_dots":2.45,"target":"left","response":"left","rt":988.79999995232,"correct":true,"confidence":2},{"trial_n":55,"n_dots":2.45,"target":"left","response":"right","rt":866.09999990463,"correct":false,"confidence":3},{"trial_n":56,"n_dots":2.55,"target":"left","response":"left","rt":471.39999997616,"correct":true,"confidence":3},{"trial_n":57,"n_dots":2.55,"target":"right","response":"right","rt":380.20000004768,"correct":true,"confidence":5},{"trial_n":58,"n_dots":2.45,"target":"left","response":"left","rt":773.39999997616,"correct":true,"confidence":2},{"trial_n":59,"n_dots":2.45,"target":"right","response":"right","rt":458.10000002384,"correct":true,"confidence":5},{"trial_n":60,"n_dots":2.35,"target":"left","response":"right","rt":965.39999997616,"correct":false,"confidence":3},{"trial_n":61,"n_dots":2.45,"target":"left","response":"left","rt":412.40000009537,"correct":true,"confidence":3},{"trial_n":62,"n_dots":2.45,"target":"right","response":"right","rt":459.29999995232,"correct":true,"confidence":4},{"trial_n":63,"n_dots":2.35,"target":"right","response":"right","rt":515.80000007153,"correct":true,"confidence":2},{"trial_n":64,"n_dots":2.35,"target":"left","response":"left","rt":937.69999992847,"correct":true,"confidence":2},{"trial_n":65,"n_dots":2.25,"target":"right","response":"right","rt":355.5,"correct":true,"confidence":6},{"trial_n":66,"n_dots":2.25,"target":"left","response":"right","rt":4744.3999999762,"correct":false,"confidence":1},{"trial_n":67,"n_dots":2.35,"target":"right","response":"right","rt":418.10000002384,"correct":true,"confidence":4},{"trial_n":68,"n_dots":2.35,"target":"left","response":"left","rt":483.59999990463,"correct":true,"confidence":3},{"trial_n":69,"n_dots":2.25,"target":"right","response":"right","rt":375.5,"correct":true,"confidence":5},{"trial_n":70,"n_dots":2.25,"target":"right","response":"left","rt":479.60000002384,"correct":false,"confidence":1},{"trial_n":71,"n_dots":2.35,"target":"right","response":"right","rt":740.89999997616,"correct":true,"confidence":4},{"trial_n":72,"n_dots":2.35,"target":"right","response":"right","rt":585.5,"correct":true,"confidence":3},{"trial_n":73,"n_dots":2.25,"target":"right","response":"right","rt":591.79999995232,"correct":true,"confidence":5},{"trial_n":74,"n_dots":2.25,"target":"right","response":"left","rt":1044.3999999762,"correct":false,"confidence":2},{"trial_n":75,"n_dots":2.35,"target":"right","response":"left","rt":483.09999990463,"correct":false,"confidence":4},{"trial_n":76,"n_dots":2.45,"target":"left","response":"left","rt":416.09999990463,"correct":true,"confidence":5},{"trial_n":77,"n_dots":2.45,"target":"right","response":"right","rt":533.29999995232,"correct":true,"confidence":3},{"trial_n":78,"n_dots":2.35,"target":"left","response":"left","rt":697.29999995232,"correct":true,"confidence":2},{"trial_n":79,"n_dots":2.35,"target":"left","response":"left","rt":459.5,"correct":true,"confidence":2},{"trial_n":80,"n_dots":2.25,"target":"left","response":"left","rt":617.20000004768,"correct":true,"confidence":1},{"trial_n":81,"n_dots":2.25,"target":"right","response":"left","rt":593.79999995232,"correct":false,"confidence":4},{"trial_n":82,"n_dots":2.35,"target":"right","response":"right","rt":1947.3000000715,"correct":true,"confidence":6},{"trial_n":83,"n_dots":2.35,"target":"right","response":"right","rt":351,"correct":true,"confidence":5},{"trial_n":84,"n_dots":2.25,"target":"right","response":"right","rt":679.20000004768,"correct":true,"confidence":2},{"trial_n":85,"n_dots":2.25,"target":"right","response":"left","rt":744.5,"correct":false,"confidence":2},{"trial_n":86,"n_dots":2.35,"target":"left","response":"left","rt":1337.2000000477,"correct":true,"confidence":1},{"trial_n":87,"n_dots":2.35,"target":"right","response":"right","rt":573.10000002384,"correct":true,"confidence":4},{"trial_n":88,"n_dots":2.25,"target":"left","response":"left","rt":496.60000002384,"correct":true,"confidence":2},{"trial_n":89,"n_dots":2.25,"target":"right","response":"left","rt":1052.6000000238,"correct":false,"confidence":2},{"trial_n":90,"n_dots":2.35,"target":"left","response":"right","rt":1372,"correct":false,"confidence":1},{"trial_n":91,"n_dots":2.45,"target":"right","response":"left","rt":522,"correct":false,"confidence":3},{"trial_n":92,"n_dots":2.55,"target":"right","response":"right","rt":767.29999995232,"correct":true,"confidence":5},{"trial_n":93,"n_dots":2.55,"target":"right","response":"right","rt":697.5,"correct":true,"confidence":2},{"trial_n":94,"n_dots":2.45,"target":"right","response":"right","rt":330.29999995232,"correct":true,"confidence":5},{"trial_n":95,"n_dots":2.45,"target":"left","response":"right","rt":616.39999997616,"correct":false,"confidence":4},{"trial_n":96,"n_dots":2.55,"target":"left","response":"left","rt":317,"correct":true,"confidence":5},{"trial_n":97,"n_dots":2.55,"target":"right","response":"right","rt":402.70000004768,"correct":true,"confidence":3},{"trial_n":98,"n_dots":2.45,"target":"left","response":"left","rt":485.39999997616,"correct":true,"confidence":5},{"trial_n":99,"n_dots":2.45,"target":"left","response":"left","rt":561.39999997616,"correct":true,"confidence":2},{"trial_n":100,"n_dots":2.35,"target":"right","response":"right","rt":320.30000007153,"correct":true,"confidence":5},{"trial_n":101,"n_dots":2.35,"target":"right","response":"left","rt":1326.2000000477,"correct":false,"confidence":1},{"trial_n":102,"n_dots":2.45,"target":"right","response":"right","rt":410.29999995232,"correct":true,"confidence":5},{"trial_n":103,"n_dots":2.45,"target":"right","response":"right","rt":440.59999990463,"correct":true,"confidence":4},{"trial_n":104,"n_dots":2.35,"target":"left","response":"right","rt":567.90000009537,"correct":false,"confidence":6},{"trial_n":105,"n_dots":2.45,"target":"left","response":"left","rt":1353.6999999285,"correct":true,"confidence":2},{"trial_n":106,"n_dots":2.45,"target":"left","response":"left","rt":753.60000002384,"correct":true,"confidence":1},{"trial_n":107,"n_dots":2.35,"target":"right","response":"right","rt":478.60000002384,"correct":true,"confidence":3},{"trial_n":108,"n_dots":2.35,"target":"left","response":"left","rt":445.5,"correct":true,"confidence":3},{"trial_n":109,"n_dots":2.25,"target":"right","response":"right","rt":325.39999997616,"correct":true,"confidence":5},{"trial_n":110,"n_dots":2.25,"target":"left","response":"left","rt":720.79999995232,"correct":true,"confidence":4},{"trial_n":111,"n_dots":2.15,"target":"right","response":"right","rt":538,"correct":true,"confidence":4},{"trial_n":112,"n_dots":2.15,"target":"right","response":"right","rt":845.89999997616,"correct":true,"confidence":2},{"trial_n":113,"n_dots":2.05,"target":"right","response":"right","rt":434,"correct":true,"confidence":2},{"trial_n":114,"n_dots":2.05,"target":"left","response":"left","rt":823.69999992847,"correct":true,"confidence":1},{"trial_n":115,"n_dots":1.95,"target":"right","response":"left","rt":591.80000007153,"correct":false,"confidence":3},{"trial_n":116,"n_dots":2.05,"target":"left","response":"right","rt":511,"correct":false,"confidence":2},{"trial_n":117,"n_dots":2.15,"target":"right","response":"left","rt":724.30000007153,"correct":false,"confidence":2},{"trial_n":118,"n_dots":2.25,"target":"left","response":"right","rt":332.80000007153,"correct":false,"confidence":2},{"trial_n":119,"n_dots":2.35,"target":"right","response":"left","rt":843.60000002384,"correct":false,"confidence":1},{"trial_n":120,"n_dots":2.45,"target":"right","response":"right","rt":599.39999997616,"correct":true,"confidence":3},{"trial_n":121,"n_dots":2.45,"target":"right","response":"right","rt":628.80000007153,"correct":true,"confidence":4},{"trial_n":122,"n_dots":2.35,"target":"right","response":"right","rt":479.79999995232,"correct":true,"confidence":4},{"trial_n":123,"n_dots":2.35,"target":"left","response":"left","rt":829,"correct":true,"confidence":3},{"trial_n":124,"n_dots":2.25,"target":"left","response":"right","rt":367.20000004768,"correct":false,"confidence":5},{"trial_n":125,"n_dots":2.35,"target":"right","response":"right","rt":613.70000004768,"correct":true,"confidence":4},{"trial_n":126,"n_dots":2.35,"target":"left","response":"left","rt":1833.6999999285,"correct":true,"confidence":2},{"trial_n":127,"n_dots":2.25,"target":"left","response":"right","rt":1429.3000000715,"correct":false,"confidence":2},{"trial_n":128,"n_dots":2.35,"target":"right","response":"left","rt":2266.6000000238,"correct":false,"confidence":1},{"trial_n":129,"n_dots":2.45,"target":"right","response":"right","rt":441.19999992847,"correct":true,"confidence":3},{"trial_n":130,"n_dots":2.45,"target":"right","response":"right","rt":485.09999990463,"correct":true,"confidence":3},{"trial_n":131,"n_dots":2.35,"target":"right","response":"right","rt":476.29999995232,"correct":true,"confidence":3},{"trial_n":132,"n_dots":2.35,"target":"left","response":"left","rt":721.70000004768,"correct":true,"confidence":2},{"trial_n":133,"n_dots":2.25,"target":"left","response":"right","rt":340,"correct":false,"confidence":6},{"trial_n":134,"n_dots":2.35,"target":"left","response":"right","rt":926.89999997616,"correct":false,"confidence":2},{"trial_n":135,"n_dots":2.45,"target":"left","response":"left","rt":1132.4000000954,"correct":true,"confidence":1},{"trial_n":136,"n_dots":2.45,"target":"left","response":"right","rt":787.89999997616,"correct":false,"confidence":4},{"trial_n":137,"n_dots":2.55,"target":"right","response":"left","rt":433.89999997616,"correct":false,"confidence":4},{"trial_n":138,"n_dots":2.65,"target":"right","response":"right","rt":429.70000004768,"correct":true,"confidence":5},{"trial_n":139,"n_dots":2.65,"target":"left","response":"left","rt":445.59999990463,"correct":true,"confidence":5},{"trial_n":140,"n_dots":2.55,"target":"right","response":"right","rt":823,"correct":true,"confidence":2},{"trial_n":141,"n_dots":2.55,"target":"left","response":"left","rt":329.60000002384,"correct":true,"confidence":4},{"trial_n":142,"n_dots":2.45,"target":"right","response":"right","rt":408.79999995232,"correct":true,"confidence":5},{"trial_n":143,"n_dots":2.45,"target":"left","response":"left","rt":1105.6999999285,"correct":true,"confidence":2},{"trial_n":144,"n_dots":2.35,"target":"left","response":"right","rt":347.60000002384,"correct":false,"confidence":5},{"trial_n":145,"n_dots":2.45,"target":"right","response":"right","rt":303.70000004768,"correct":true,"confidence":5},{"trial_n":146,"n_dots":2.45,"target":"left","response":"left","rt":1271.3999999762,"correct":true,"confidence":2},{"trial_n":147,"n_dots":2.35,"target":"left","response":"right","rt":476.5,"correct":false,"confidence":3},{"trial_n":148,"n_dots":2.45,"target":"right","response":"right","rt":427.19999992847,"correct":true,"confidence":4},{"trial_n":149,"n_dots":2.45,"target":"right","response":"right","rt":1187.5,"correct":true,"confidence":2},{"trial_n":150,"n_dots":2.35,"target":"left","response":"left","rt":368.39999997616,"correct":true,"confidence":5},{"trial_n":151,"n_dots":2.35,"target":"right","response":"right","rt":308.29999995232,"correct":true,"confidence":6},{"trial_n":152,"n_dots":2.25,"target":"left","response":"left","rt":621.80000007153,"correct":true,"confidence":2},{"trial_n":153,"n_dots":2.25,"target":"right","response":"right","rt":618.19999992847,"correct":true,"confidence":3},{"trial_n":154,"n_dots":2.15,"target":"right","response":"left","rt":773,"correct":false,"confidence":2},{"trial_n":155,"n_dots":2.25,"target":"left","response":"right","rt":344.5,"correct":false,"confidence":2},{"trial_n":156,"n_dots":2.35,"target":"right","response":"right","rt":811.60000002384,"correct":true,"confidence":1},{"trial_n":157,"n_dots":2.35,"target":"left","response":"right","rt":313.89999997616,"correct":false,"confidence":4},{"trial_n":158,"n_dots":2.45,"target":"left","response":"right","rt":379.89999997616,"correct":false,"confidence":4},{"trial_n":159,"n_dots":2.55,"target":"left","response":"right","rt":1283.2999999523,"correct":false,"confidence":2},{"trial_n":160,"n_dots":2.65,"target":"left","response":"right","rt":1625,"correct":false,"confidence":1},{"trial_n":161,"n_dots":2.75,"target":"left","response":"left","rt":345.90000009537,"correct":true,"confidence":6},{"trial_n":162,"n_dots":2.75,"target":"left","response":"right","rt":1113,"correct":false,"confidence":2},{"trial_n":163,"n_dots":2.85,"target":"right","response":"right","rt":397.60000002384,"correct":true,"confidence":3},{"trial_n":164,"n_dots":2.85,"target":"right","response":"right","rt":350.40000009537,"correct":true,"confidence":5},{"trial_n":165,"n_dots":2.75,"target":"right","response":"right","rt":571.89999997616,"correct":true,"confidence":5},{"trial_n":166,"n_dots":2.75,"target":"left","response":"left","rt":614,"correct":true,"confidence":2},{"trial_n":167,"n_dots":2.65,"target":"left","response":"right","rt":320.5,"correct":false,"confidence":3},{"trial_n":168,"n_dots":2.75,"target":"right","response":"right","rt":474.20000004768,"correct":true,"confidence":3},{"trial_n":169,"n_dots":2.75,"target":"left","response":"left","rt":440.39999997616,"correct":true,"confidence":4},{"trial_n":170,"n_dots":2.65,"target":"right","response":"right","rt":378.10000002384,"correct":true,"confidence":4},{"trial_n":171,"n_dots":2.65,"target":"left","response":"left","rt":2257.2999999523,"correct":true,"confidence":1},{"trial_n":172,"n_dots":2.55,"target":"left","response":"left","rt":997,"correct":true,"confidence":1},{"trial_n":173,"n_dots":2.55,"target":"left","response":"right","rt":435.10000002384,"correct":false,"confidence":2},{"trial_n":174,"n_dots":2.65,"target":"left","response":"left","rt":492.29999995232,"correct":true,"confidence":3},{"trial_n":175,"n_dots":2.65,"target":"left","response":"right","rt":415.39999997616,"correct":false,"confidence":3},{"trial_n":176,"n_dots":2.75,"target":"left","response":"left","rt":896.10000002384,"correct":true,"confidence":2},{"trial_n":177,"n_dots":2.75,"target":"left","response":"right","rt":571,"correct":false,"confidence":2},{"trial_n":178,"n_dots":2.85,"target":"right","response":"right","rt":875.30000007153,"correct":true,"confidence":2},{"trial_n":179,"n_dots":2.85,"target":"left","response":"left","rt":726.30000007153,"correct":true,"confidence":3},{"trial_n":180,"n_dots":2.75,"target":"right","response":"right","rt":414.80000007153,"correct":true,"confidence":4},{"trial_n":181,"n_dots":2.75,"target":"left","response":"left","rt":449,"correct":true,"confidence":4},{"trial_n":182,"n_dots":2.65,"target":"right","response":"right","rt":330.10000002384,"correct":true,"confidence":5},{"trial_n":183,"n_dots":2.65,"target":"left","response":"right","rt":1554.8000000715,"correct":false,"confidence":2},{"trial_n":184,"n_dots":2.75,"target":"right","response":"right","rt":429.30000007153,"correct":true,"confidence":4},{"trial_n":185,"n_dots":2.75,"target":"left","response":"left","rt":295.39999997616,"correct":true,"confidence":6},{"trial_n":186,"n_dots":2.65,"target":"left","response":"right","rt":832.80000007153,"correct":false,"confidence":2},{"trial_n":187,"n_dots":2.75,"target":"right","response":"right","rt":341.89999997616,"correct":true,"confidence":4},{"trial_n":188,"n_dots":2.75,"target":"right","response":"right","rt":452.30000007153,"correct":true,"confidence":4},{"trial_n":189,"n_dots":2.65,"target":"left","response":"left","rt":518,"correct":true,"confidence":3},{"trial_n":190,"n_dots":2.65,"target":"left","response":"right","rt":445.20000004768,"correct":false,"confidence":3},{"trial_n":191,"n_dots":2.75,"target":"right","response":"right","rt":337,"correct":true,"confidence":5},{"trial_n":192,"n_dots":2.75,"target":"left","response":"left","rt":376.89999997616,"correct":true,"confidence":3},{"trial_n":193,"n_dots":2.65,"target":"right","response":"right","rt":326.5,"correct":true,"confidence":6},{"trial_n":194,"n_dots":2.65,"target":"right","response":"right","rt":891,"correct":true,"confidence":2}]