[{"trial_n":1,"n_dots":4.25,"target":"right","response":"left","rt":6854.200000003,"correct":false,"confidence":-1},{"trial_n":2,"n_dots":4.25,"target":"left","response":"left","rt":7191.799999997,"correct":true,"confidence":-1},{"trial_n":3,"n_dots":4.25,"target":"left","response":"left","rt":755.70000000298,"correct":true,"confidence":-1},{"trial_n":4,"n_dots":3.85,"target":"right","response":"right","rt":1315.599999994,"correct":true,"confidence":-1},{"trial_n":5,"n_dots":3.85,"target":"right","response":"left","rt":482.5,"correct":false,"confidence":-1},{"trial_n":6,"n_dots":4.25,"target":"left","response":"left","rt":512.19999998808,"correct":true,"confidence":-1},{"trial_n":7,"n_dots":4.25,"target":"right","response":"right","rt":984.89999999106,"correct":true,"confidence":-1},{"trial_n":8,"n_dots":4.05,"target":"left","response":"left","rt":282.29999999702,"correct":true,"confidence":-1},{"trial_n":9,"n_dots":4.05,"target":"left","response":"left","rt":202.59999999404,"correct":true,"confidence":-1},{"trial_n":10,"n_dots":3.85,"target":"left","response":"right","rt":1229.099999994,"correct":false,"confidence":-1},{"trial_n":11,"n_dots":4.05,"target":"right","response":"left","rt":99.5,"correct":false,"confidence":-1},{"trial_n":12,"n_dots":4.25,"target":"left","response":"left","rt":105.59999999404,"correct":true,"confidence":-1},{"trial_n":13,"n_dots":4.25,"target":"left","response":"left","rt":20.29999999702,"correct":true,"confidence":-1},{"trial_n":14,"n_dots":4.15,"target":"left","response":"left","rt":452.90000000596,"correct":true,"confidence":-1},{"trial_n":15,"n_dots":4.15,"target":"right","response":"right","rt":3310.400000006,"correct":true,"confidence":-1},{"trial_n":16,"n_dots":4.05,"target":"right","response":"left","rt":433.79999999702,"correct":false,"confidence":-1},{"trial_n":17,"n_dots":4.15,"target":"right","response":"right","rt":651.29999999702,"correct":true,"confidence":-1},{"trial_n":18,"n_dots":4.15,"target":"right","response":"right","rt":438.90000000596,"correct":true,"confidence":-1},{"trial_n":19,"n_dots":4.05,"target":"left","response":"left","rt":566.5,"correct":true,"confidence":-1},{"trial_n":20,"n_dots":4.05,"target":"right","response":"right","rt":430.79999999702,"correct":true,"confidence":-1},{"trial_n":21,"n_dots":3.95,"target":"left","response":"left","rt":165.90000000596,"correct":true,"confidence":-1},{"trial_n":22,"n_dots":3.95,"target":"left","response":"left","rt":5235.700000003,"correct":true,"confidence":-1},{"trial_n":23,"n_dots":3.85,"target":"right","response":"right","rt":834.70000000298,"correct":true,"confidence":-1},{"trial_n":24,"n_dots":3.85,"target":"right","response":"left","rt":99,"correct":false,"confidence":-1},{"trial_n":25,"n_dots":3.95,"target":"left","response":"right","rt":536.90000000596,"correct":false,"confidence":-1},{"trial_n":26,"n_dots":4.05,"target":"right","response":"left","rt":279.79999999702,"correct":false,"confidence":-1},{"trial_n":27,"n_dots":4.15,"target":"right","response":"right","rt":3160.8999999911,"correct":true,"confidence":2},{"trial_n":28,"n_dots":4.15,"target":"left","response":"left","rt":1227.1999999881,"correct":true,"confidence":2},{"trial_n":29,"n_dots":4.05,"target":"left","response":"left","rt":228.09999999404,"correct":true,"confidence":3},{"trial_n":30,"n_dots":4.05,"target":"left","response":"left","rt":697.20000000298,"correct":true,"confidence":1},{"trial_n":31,"n_dots":3.95,"target":"right","response":"left","rt":2963.6000000089,"correct":false,"confidence":1},{"trial_n":32,"n_dots":4.05,"target":"left","response":"left","rt":114,"correct":true,"confidence":2},{"trial_n":33,"n_dots":4.05,"target":"right","response":"right","rt":825.59999999404,"correct":true,"confidence":2},{"trial_n":34,"n_dots":3.95,"target":"left","response":"left","rt":86.29999999702,"correct":true,"confidence":3},{"trial_n":35,"n_dots":3.95,"target":"left","response":"left","rt":2470.200000003,"correct":true,"confidence":2},{"trial_n":36,"n_dots":3.85,"target":"left","response":"right","rt":3940,"correct":false,"confidence":1},{"trial_n":37,"n_dots":3.95,"target":"right","response":"right","rt":1686.099999994,"correct":true,"confidence":1},{"trial_n":38,"n_dots":3.95,"target":"right","response":"left","rt":961.39999999106,"correct":false,"confidence":1},{"trial_n":39,"n_dots":4.05,"target":"right","response":"right","rt":1165.299999997,"correct":true,"confidence":1},{"trial_n":40,"n_dots":4.05,"target":"right","response":"right","rt":3819.200000003,"correct":true,"confidence":2},{"trial_n":41,"n_dots":3.95,"target":"left","response":"left","rt":115.79999999702,"correct":true,"confidence":3},{"trial_n":42,"n_dots":3.95,"target":"right","response":"left","rt":5152.299999997,"correct":false,"confidence":2},{"trial_n":43,"n_dots":4.05,"target":"right","response":"right","rt":204.70000000298,"correct":true,"confidence":2},{"trial_n":44,"n_dots":4.05,"target":"right","response":"right","rt":2445.400000006,"correct":true,"confidence":4},{"trial_n":45,"n_dots":3.95,"target":"left","response":"left","rt":95.20000000298,"correct":true,"confidence":4},{"trial_n":46,"n_dots":3.95,"target":"left","response":"left","rt":1268.6000000089,"correct":true,"confidence":3},{"trial_n":47,"n_dots":3.85,"target":"left","response":"right","rt":999.09999999404,"correct":false,"confidence":3},{"trial_n":48,"n_dots":3.95,"target":"left","response":"left","rt":629.60000000894,"correct":true,"confidence":4},{"trial_n":49,"n_dots":3.95,"target":"right","response":"right","rt":37.20000000298,"correct":true,"confidence":4},{"trial_n":50,"n_dots":3.85,"target":"right","response":"right","rt":94.79999999702,"correct":true,"confidence":5},{"trial_n":51,"n_dots":3.85,"target":"left","response":"right","rt":-0.79999999701977,"correct":false,"confidence":3},{"trial_n":52,"n_dots":3.95,"target":"right","response":"right","rt":123.40000000596,"correct":true,"confidence":3},{"trial_n":53,"n_dots":3.95,"target":"right","response":"right","rt":261.19999998808,"correct":true,"confidence":5},{"trial_n":54,"n_dots":3.85,"target":"right","response":"right","rt":526.09999999404,"correct":true,"confidence":1},{"trial_n":55,"n_dots":3.85,"target":"right","response":"right","rt":401.40000000596,"correct":true,"confidence":4},{"trial_n":56,"n_dots":3.75,"target":"left","response":"left","rt":2265.6999999881,"correct":true,"confidence":2},{"trial_n":57,"n_dots":3.75,"target":"left","response":"left","rt":238.59999999404,"correct":true,"confidence":3},{"trial_n":58,"n_dots":3.65,"target":"left","response":"left","rt":109.70000000298,"correct":true,"confidence":4},{"trial_n":59,"n_dots":3.65,"target":"left","response":"left","rt":97.79999999702,"correct":true,"confidence":4},{"trial_n":60,"n_dots":3.55,"target":"right","response":"right","rt":725.70000000298,"correct":true,"confidence":1},{"trial_n":61,"n_dots":3.55,"target":"right","response":"left","rt":315.20000000298,"correct":false,"confidence":4},{"trial_n":62,"n_dots":3.65,"target":"right","response":"right","rt":561.29999999702,"correct":true,"confidence":4},{"trial_n":63,"n_dots":3.65,"target":"right","response":"right","rt":236,"correct":true,"confidence":5},{"trial_n":64,"n_dots":3.55,"target":"left","response":"left","rt":619.80000001192,"correct":true,"confidence":2},{"trial_n":65,"n_dots":3.55,"target":"right","response":"right","rt":1028.200000003,"correct":true,"confidence":2},{"trial_n":66,"n_dots":3.45,"target":"right","response":"left","rt":1057.1000000089,"correct":false,"confidence":1},{"trial_n":67,"n_dots":3.55,"target":"left","response":"right","rt":323,"correct":false,"confidence":3},{"trial_n":68,"n_dots":3.65,"target":"left","response":"left","rt":143,"correct":true,"confidence":4},{"trial_n":69,"n_dots":3.65,"target":"right","response":"right","rt":16.399999991059,"correct":true,"confidence":1},{"trial_n":70,"n_dots":3.55,"target":"left","response":"left","rt":219.09999999404,"correct":true,"confidence":2},{"trial_n":71,"n_dots":3.55,"target":"right","response":"left","rt":548.59999999404,"correct":false,"confidence":3},{"trial_n":72,"n_dots":3.65,"target":"left","response":"left","rt":2763.900000006,"correct":true,"confidence":2},{"trial_n":73,"n_dots":3.65,"target":"left","response":"left","rt":333.79999999702,"correct":true,"confidence":4},{"trial_n":74,"n_dots":3.55,"target":"right","response":"left","rt":-1,"correct":false,"confidence":1},{"trial_n":75,"n_dots":3.65,"target":"left","response":"left","rt":669.90000000596,"correct":true,"confidence":1},{"trial_n":76,"n_dots":3.65,"target":"left","response":"left","rt":52.09999999404,"correct":true,"confidence":4},{"trial_n":77,"n_dots":3.55,"target":"left","response":"left","rt":184.90000000596,"correct":true,"confidence":4},{"trial_n":78,"n_dots":3.55,"target":"right","response":"right","rt":163,"correct":true,"confidence":5},{"trial_n":79,"n_dots":3.45,"target":"left","response":"left","rt":217.09999999404,"correct":true,"confidence":5},{"trial_n":80,"n_dots":3.45,"target":"left","response":"right","rt":479.20000000298,"correct":false,"confidence":1},{"trial_n":81,"n_dots":3.55,"target":"right","response":"right","rt":728.29999999702,"correct":true,"confidence":1},{"trial_n":82,"n_dots":3.55,"target":"right","response":"right","rt":63.600000008941,"correct":true,"confidence":6},{"trial_n":83,"n_dots":3.45,"target":"right","response":"right","rt":706.30000001192,"correct":true,"confidence":1},{"trial_n":84,"n_dots":3.45,"target":"right","response":"right","rt":483.70000000298,"correct":true,"confidence":4},{"trial_n":85,"n_dots":3.35,"target":"left","response":"left","rt":194.5,"correct":true,"confidence":4},{"trial_n":86,"n_dots":3.35,"target":"left","response":"left","rt":5482,"correct":true,"confidence":1},{"trial_n":87,"n_dots":3.25,"target":"left","response":"left","rt":1594.1999999881,"correct":true,"confidence":5},{"trial_n":88,"n_dots":3.25,"target":"right","response":"right","rt":64.59999999404,"correct":true,"confidence":5},{"trial_n":89,"n_dots":3.15,"target":"left","response":"left","rt":171.89999999106,"correct":true,"confidence":6},{"trial_n":90,"n_dots":3.15,"target":"left","response":"left","rt":53.90000000596,"correct":true,"confidence":6},{"trial_n":91,"n_dots":3.05,"target":"left","response":"left","rt":82,"correct":true,"confidence":5},{"trial_n":92,"n_dots":3.05,"target":"right","response":"left","rt":1755.6000000089,"correct":false,"confidence":1},{"trial_n":93,"n_dots":3.15,"target":"right","response":"right","rt":189.29999999702,"correct":true,"confidence":2},{"trial_n":94,"n_dots":3.15,"target":"right","response":"right","rt":1234.299999997,"correct":true,"confidence":1},{"trial_n":95,"n_dots":3.05,"target":"left","response":"right","rt":5584.3000000119,"correct":false,"confidence":2},{"trial_n":96,"n_dots":3.15,"target":"right","response":"right","rt":6.6000000089407,"correct":true,"confidence":4},{"trial_n":97,"n_dots":3.15,"target":"left","response":"left","rt":135.5,"correct":true,"confidence":5},{"trial_n":98,"n_dots":3.05,"target":"left","response":"left","rt":1167.200000003,"correct":true,"confidence":4},{"trial_n":99,"n_dots":3.05,"target":"left","response":"left","rt":282.80000001192,"correct":true,"confidence":3},{"trial_n":100,"n_dots":2.95,"target":"right","response":"left","rt":506.39999999106,"correct":false,"confidence":2},{"trial_n":101,"n_dots":3.05,"target":"right","response":"right","rt":1.4000000059605,"correct":true,"confidence":4},{"trial_n":102,"n_dots":3.05,"target":"left","response":"left","rt":61.5,"correct":true,"confidence":5},{"trial_n":103,"n_dots":2.95,"target":"right","response":"left","rt":0.099999994039536,"correct":false,"confidence":4},{"trial_n":104,"n_dots":3.05,"target":"right","response":"right","rt":158.39999999106,"correct":true,"confidence":5},{"trial_n":105,"n_dots":3.05,"target":"left","response":"left","rt":150.70000000298,"correct":true,"confidence":5},{"trial_n":106,"n_dots":2.95,"target":"left","response":"right","rt":1348.6999999881,"correct":false,"confidence":1},{"trial_n":107,"n_dots":3.05,"target":"left","response":"right","rt":149.79999999702,"correct":false,"confidence":4},{"trial_n":108,"n_dots":3.15,"target":"left","response":"left","rt":56,"correct":true,"confidence":3},{"trial_n":109,"n_dots":3.15,"target":"left","response":"left","rt":78.59999999404,"correct":true,"confidence":4},{"trial_n":110,"n_dots":3.05,"target":"right","response":"right","rt":311.20000000298,"correct":true,"confidence":2},{"trial_n":111,"n_dots":3.05,"target":"right","response":"right","rt":53.300000011921,"correct":true,"confidence":3},{"trial_n":112,"n_dots":2.95,"target":"left","response":"left","rt":25.59999999404,"correct":true,"confidence":3},{"trial_n":113,"n_dots":2.95,"target":"right","response":"right","rt":361.10000000894,"correct":true,"confidence":1},{"trial_n":114,"n_dots":2.85,"target":"right","response":"left","rt":461.59999999404,"correct":false,"confidence":1},{"trial_n":115,"n_dots":2.95,"target":"left","response":"right","rt":-1.0999999940395,"correct":false,"confidence":1},{"trial_n":116,"n_dots":3.05,"target":"left","response":"right","rt":365.5,"correct":false,"confidence":1},{"trial_n":117,"n_dots":3.15,"target":"left","response":"left","rt":1813.599999994,"correct":true,"confidence":1},{"trial_n":118,"n_dots":3.15,"target":"left","response":"right","rt":167.29999999702,"correct":false,"confidence":1},{"trial_n":119,"n_dots":3.25,"target":"left","response":"left","rt":1064.5,"correct":true,"confidence":1},{"trial_n":120,"n_dots":3.25,"target":"left","response":"right","rt":104.29999999702,"correct":false,"confidence":1},{"trial_n":121,"n_dots":3.35,"target":"left","response":"left","rt":1069.400000006,"correct":true,"confidence":2},{"trial_n":122,"n_dots":3.35,"target":"right","response":"right","rt":134.10000000894,"correct":true,"confidence":2},{"trial_n":123,"n_dots":3.25,"target":"left","response":"left","rt":369.09999999404,"correct":true,"confidence":1},{"trial_n":124,"n_dots":3.25,"target":"left","response":"right","rt":1549,"correct":false,"confidence":2},{"trial_n":125,"n_dots":3.35,"target":"right","response":"right","rt":850,"correct":true,"confidence":2},{"trial_n":126,"n_dots":3.35,"target":"right","response":"right","rt":10.899999991059,"correct":true,"confidence":1},{"trial_n":127,"n_dots":3.25,"target":"left","response":"right","rt":73.699999988079,"correct":false,"confidence":1},{"trial_n":128,"n_dots":3.35,"target":"left","response":"left","rt":333.5,"correct":true,"confidence":2},{"trial_n":129,"n_dots":3.35,"target":"right","response":"right","rt":1502.8999999911,"correct":true,"confidence":2},{"trial_n":130,"n_dots":3.25,"target":"left","response":"right","rt":812.40000000596,"correct":false,"confidence":1},{"trial_n":131,"n_dots":3.35,"target":"right","response":"right","rt":174.10000000894,"correct":true,"confidence":2},{"trial_n":132,"n_dots":3.35,"target":"left","response":"right","rt":590.20000000298,"correct":false,"confidence":1},{"trial_n":133,"n_dots":3.45,"target":"left","response":"left","rt":1351.900000006,"correct":true,"confidence":1},{"trial_n":134,"n_dots":3.45,"target":"right","response":"right","rt":260.29999999702,"correct":true,"confidence":3},{"trial_n":135,"n_dots":3.35,"target":"left","response":"left","rt":271.5,"correct":true,"confidence":2},{"trial_n":136,"n_dots":3.35,"target":"left","response":"left","rt":220.79999999702,"correct":true,"confidence":3},{"trial_n":137,"n_dots":3.25,"target":"right","response":"right","rt":102.5,"correct":true,"confidence":2},{"trial_n":138,"n_dots":3.25,"target":"right","response":"left","rt":1371.1000000089,"correct":false,"confidence":2},{"trial_n":139,"n_dots":3.35,"target":"right","response":"right","rt":185.29999999702,"correct":true,"confidence":2},{"trial_n":140,"n_dots":3.35,"target":"left","response":"left","rt":677.59999999404,"correct":true,"confidence":1},{"trial_n":141,"n_dots":3.25,"target":"right","response":"right","rt":76.59999999404,"correct":true,"confidence":1},{"trial_n":142,"n_dots":3.25,"target":"left","response":"left","rt":-1.0999999940395,"correct":true,"confidence":3},{"trial_n":143,"n_dots":3.15,"target":"right","response":"right","rt":1826.5,"correct":true,"confidence":2},{"trial_n":144,"n_dots":3.15,"target":"right","response":"left","rt":147.90000000596,"correct":false,"confidence":2},{"trial_n":145,"n_dots":3.25,"target":"left","response":"right","rt":-1.1000000089407,"correct":false,"confidence":1},{"trial_n":146,"n_dots":3.35,"target":"left","response":"left","rt":1122.5,"correct":true,"confidence":2},{"trial_n":147,"n_dots":3.35,"target":"left","response":"right","rt":287.59999999404,"correct":false,"confidence":1},{"trial_n":148,"n_dots":3.45,"target":"left","response":"right","rt":151.90000000596,"correct":false,"confidence":1},{"trial_n":149,"n_dots":3.55,"target":"left","response":"left","rt":845.5,"correct":true,"confidence":1},{"trial_n":150,"n_dots":3.55,"target":"right","response":"right","rt":2026.700000003,"correct":true,"confidence":2},{"trial_n":151,"n_dots":3.45,"target":"right","response":"right","rt":313.39999999106,"correct":true,"confidence":2},{"trial_n":152,"n_dots":3.45,"target":"right","response":"right","rt":1154.200000003,"correct":true,"confidence":3},{"trial_n":153,"n_dots":3.35,"target":"right","response":"right","rt":1562.6000000089,"correct":true,"confidence":2},{"trial_n":154,"n_dots":3.35,"target":"left","response":"left","rt":309.20000000298,"correct":true,"confidence":2},{"trial_n":155,"n_dots":3.25,"target":"right","response":"right","rt":189.59999999404,"correct":true,"confidence":2},{"trial_n":156,"n_dots":3.25,"target":"right","response":"left","rt":278.20000000298,"correct":false,"confidence":1},{"trial_n":157,"n_dots":3.35,"target":"left","response":"left","rt":197,"correct":true,"confidence":3},{"trial_n":158,"n_dots":3.35,"target":"right","response":"left","rt":124.90000000596,"correct":false,"confidence":3},{"trial_n":159,"n_dots":3.45,"target":"left","response":"left","rt":16.5,"correct":true,"confidence":3},{"trial_n":160,"n_dots":3.45,"target":"left","response":"left","rt":82.399999991059,"correct":true,"confidence":4},{"trial_n":161,"n_dots":3.35,"target":"left","response":"left","rt":472.20000000298,"correct":true,"confidence":4},{"trial_n":162,"n_dots":3.35,"target":"left","response":"left","rt":1050.299999997,"correct":true,"confidence":4},{"trial_n":163,"n_dots":3.25,"target":"right","response":"right","rt":181.90000000596,"correct":true,"confidence":2},{"trial_n":164,"n_dots":3.25,"target":"right","response":"left","rt":315.5,"correct":false,"confidence":3},{"trial_n":165,"n_dots":3.35,"target":"right","response":"left","rt":156.79999999702,"correct":false,"confidence":3},{"trial_n":166,"n_dots":3.45,"target":"left","response":"left","rt":89.699999988079,"correct":true,"confidence":3},{"trial_n":167,"n_dots":3.45,"target":"right","response":"left","rt":1637.200000003,"correct":false,"confidence":1},{"trial_n":168,"n_dots":3.55,"target":"right","response":"left","rt":-1.1000000089407,"correct":false,"confidence":1},{"trial_n":169,"n_dots":3.65,"target":"right","response":"right","rt":231.89999999106,"correct":true,"confidence":1},{"trial_n":170,"n_dots":3.65,"target":"left","response":"left","rt":-0.6000000089407,"correct":true,"confidence":1},{"trial_n":171,"n_dots":3.55,"target":"right","response":"right","rt":1163.200000003,"correct":true,"confidence":1},{"trial_n":172,"n_dots":3.55,"target":"right","response":"left","rt":893.70000000298,"correct":false,"confidence":1},{"trial_n":173,"n_dots":3.65,"target":"right","response":"left","rt":1029.700000003,"correct":false,"confidence":1},{"trial_n":174,"n_dots":3.75,"target":"right","response":"right","rt":1465.099999994,"correct":true,"confidence":2},{"trial_n":175,"n_dots":3.75,"target":"right","response":"right","rt":952.5,"correct":true,"confidence":2},{"trial_n":176,"n_dots":3.65,"target":"right","response":"left","rt":30.79999999702,"correct":false,"confidence":1},{"trial_n":177,"n_dots":3.75,"target":"right","response":"left","rt":897.60000000894,"correct":false,"confidence":2},{"trial_n":178,"n_dots":3.85,"target":"left","response":"left","rt":858.60000000894,"correct":true,"confidence":3},{"trial_n":179,"n_dots":3.85,"target":"left","response":"left","rt":11.70000000298,"correct":true,"confidence":3},{"trial_n":180,"n_dots":3.75,"target":"left","response":"left","rt":773.90000000596,"correct":true,"confidence":1},{"trial_n":181,"n_dots":3.75,"target":"right","response":"right","rt":116.90000000596,"correct":true,"confidence":3},{"trial_n":182,"n_dots":3.65,"target":"left","response":"left","rt":107.69999998808,"correct":true,"confidence":1},{"trial_n":183,"n_dots":3.65,"target":"right","response":"left","rt":761.30000001192,"correct":false,"confidence":3},{"trial_n":184,"n_dots":3.75,"target":"right","response":"right","rt":17.40000000596,"correct":true,"confidence":4},{"trial_n":185,"n_dots":3.75,"target":"right","response":"right","rt":762.60000000894,"correct":true,"confidence":4},{"trial_n":186,"n_dots":3.65,"target":"left","response":"left","rt":222.40000000596,"correct":true,"confidence":1},{"trial_n":187,"n_dots":3.65,"target":"right","response":"right","rt":1167.1000000089,"correct":true,"confidence":3},{"trial_n":188,"n_dots":3.55,"target":"right","response":"left","rt":1003.5,"correct":false,"confidence":3},{"trial_n":189,"n_dots":3.65,"target":"left","response":"left","rt":771.59999999404,"correct":true,"confidence":3},{"trial_n":190,"n_dots":3.65,"target":"right","response":"right","rt":1027.6999999881,"correct":true,"confidence":2},{"trial_n":191,"n_dots":3.55,"target":"right","response":"right","rt":96.100000008941,"correct":true,"confidence":3},{"trial_n":192,"n_dots":3.55,"target":"left","response":"left","rt":1071.799999997,"correct":true,"confidence":3},{"trial_n":193,"n_dots":3.45,"target":"right","response":"left","rt":661.5,"correct":false,"confidence":3},{"trial_n":194,"n_dots":3.55,"target":"left","response":"left","rt":-1.2000000029802,"correct":true,"confidence":4}]