[{"trial_n":1,"n_dots":4.25,"target":"left","response":"left","rt":3103.400000006,"correct":true,"confidence":-1},{"trial_n":2,"n_dots":4.25,"target":"left","response":"left","rt":460.10000000149,"correct":true,"confidence":-1},{"trial_n":3,"n_dots":3.85,"target":"right","response":"right","rt":237.10000000149,"correct":true,"confidence":-1},{"trial_n":4,"n_dots":3.85,"target":"left","response":"left","rt":312.5,"correct":true,"confidence":-1},{"trial_n":5,"n_dots":3.45,"target":"left","response":"left","rt":264.70000000298,"correct":true,"confidence":-1},{"trial_n":6,"n_dots":3.45,"target":"left","response":"left","rt":306.5,"correct":true,"confidence":-1},{"trial_n":7,"n_dots":3.05,"target":"right","response":"left","rt":285.80000000447,"correct":false,"confidence":-1},{"trial_n":8,"n_dots":3.25,"target":"right","response":"left","rt":331.69999999553,"correct":false,"confidence":-1},{"trial_n":9,"n_dots":3.45,"target":"left","response":"left","rt":359.20000000298,"correct":true,"confidence":-1},{"trial_n":10,"n_dots":3.45,"target":"left","response":"left","rt":263.10000000149,"correct":true,"confidence":-1},{"trial_n":11,"n_dots":3.25,"target":"left","response":"right","rt":570,"correct":false,"confidence":-1},{"trial_n":12,"n_dots":3.45,"target":"left","response":"left","rt":364.30000000447,"correct":true,"confidence":-1},{"trial_n":13,"n_dots":3.45,"target":"right","response":"right","rt":445.10000000149,"correct":true,"confidence":-1},{"trial_n":14,"n_dots":3.35,"target":"right","response":"left","rt":1087.700000003,"correct":false,"confidence":-1},{"trial_n":15,"n_dots":3.45,"target":"right","response":"left","rt":240.70000000298,"correct":false,"confidence":-1},{"trial_n":16,"n_dots":3.55,"target":"left","response":"left","rt":190.89999999851,"correct":true,"confidence":-1},{"trial_n":17,"n_dots":3.55,"target":"left","response":"left","rt":284.79999999702,"correct":true,"confidence":-1},{"trial_n":18,"n_dots":3.45,"target":"right","response":"right","rt":1702,"correct":true,"confidence":-1},{"trial_n":19,"n_dots":3.45,"target":"right","response":"left","rt":243.90000000596,"correct":false,"confidence":-1},{"trial_n":20,"n_dots":3.55,"target":"right","response":"right","rt":286.40000000596,"correct":true,"confidence":-1},{"trial_n":21,"n_dots":3.55,"target":"left","response":"left","rt":515.89999999851,"correct":true,"confidence":-1},{"trial_n":22,"n_dots":3.45,"target":"left","response":"left","rt":244.5,"correct":true,"confidence":-1},{"trial_n":23,"n_dots":3.45,"target":"left","response":"right","rt":525.79999999702,"correct":false,"confidence":-1},{"trial_n":24,"n_dots":3.55,"target":"right","response":"right","rt":860.29999999702,"correct":true,"confidence":-1},{"trial_n":25,"n_dots":3.55,"target":"left","response":"left","rt":260.5,"correct":true,"confidence":-1},{"trial_n":26,"n_dots":3.45,"target":"right","response":"right","rt":526.29999999702,"correct":true,"confidence":-1},{"trial_n":27,"n_dots":3.45,"target":"right","response":"left","rt":227.30000000447,"correct":false,"confidence":2},{"trial_n":28,"n_dots":3.55,"target":"right","response":"left","rt":250.30000000447,"correct":false,"confidence":1},{"trial_n":29,"n_dots":3.65,"target":"right","response":"left","rt":644.5,"correct":false,"confidence":1},{"trial_n":30,"n_dots":3.75,"target":"right","response":"right","rt":531.89999999851,"correct":true,"confidence":3},{"trial_n":31,"n_dots":3.75,"target":"left","response":"left","rt":1738.200000003,"correct":true,"confidence":1},{"trial_n":32,"n_dots":3.65,"target":"right","response":"right","rt":667.90000000596,"correct":true,"confidence":2},{"trial_n":33,"n_dots":3.65,"target":"right","response":"right","rt":275.29999999702,"correct":true,"confidence":4},{"trial_n":34,"n_dots":3.55,"target":"left","response":"left","rt":250.39999999851,"correct":true,"confidence":3},{"trial_n":35,"n_dots":3.55,"target":"left","response":"left","rt":296.19999999553,"correct":true,"confidence":2},{"trial_n":36,"n_dots":3.45,"target":"right","response":"right","rt":298,"correct":true,"confidence":4},{"trial_n":37,"n_dots":3.45,"target":"right","response":"right","rt":837.80000000447,"correct":true,"confidence":1},{"trial_n":38,"n_dots":3.35,"target":"right","response":"left","rt":288.89999999851,"correct":false,"confidence":3},{"trial_n":39,"n_dots":3.45,"target":"right","response":"left","rt":252.20000000298,"correct":false,"confidence":2},{"trial_n":40,"n_dots":3.55,"target":"left","response":"left","rt":278.10000000149,"correct":true,"confidence":3},{"trial_n":41,"n_dots":3.55,"target":"left","response":"left","rt":785.89999999851,"correct":true,"confidence":5},{"trial_n":42,"n_dots":3.45,"target":"right","response":"right","rt":249.20000000298,"correct":true,"confidence":2},{"trial_n":43,"n_dots":3.45,"target":"left","response":"left","rt":304.80000000447,"correct":true,"confidence":3},{"trial_n":44,"n_dots":3.35,"target":"right","response":"left","rt":370.79999999702,"correct":false,"confidence":1},{"trial_n":45,"n_dots":3.45,"target":"left","response":"left","rt":382.19999999553,"correct":true,"confidence":6},{"trial_n":46,"n_dots":3.45,"target":"right","response":"right","rt":512.39999999851,"correct":true,"confidence":1},{"trial_n":47,"n_dots":3.35,"target":"left","response":"left","rt":372.70000000298,"correct":true,"confidence":3},{"trial_n":48,"n_dots":3.35,"target":"left","response":"left","rt":283.89999999851,"correct":true,"confidence":6},{"trial_n":49,"n_dots":3.25,"target":"left","response":"left","rt":282.89999999851,"correct":true,"confidence":5},{"trial_n":50,"n_dots":3.25,"target":"left","response":"left","rt":985.60000000149,"correct":true,"confidence":3},{"trial_n":51,"n_dots":3.15,"target":"right","response":"left","rt":432.10000000149,"correct":false,"confidence":6},{"trial_n":52,"n_dots":3.25,"target":"right","response":"right","rt":747.40000000596,"correct":true,"confidence":3},{"trial_n":53,"n_dots":3.25,"target":"right","response":"left","rt":377.80000000447,"correct":false,"confidence":1},{"trial_n":54,"n_dots":3.35,"target":"left","response":"left","rt":209.19999999553,"correct":true,"confidence":1},{"trial_n":55,"n_dots":3.35,"target":"left","response":"left","rt":306.30000000447,"correct":true,"confidence":4},{"trial_n":56,"n_dots":3.25,"target":"left","response":"left","rt":340.5,"correct":true,"confidence":3},{"trial_n":57,"n_dots":3.25,"target":"right","response":"right","rt":269.5,"correct":true,"confidence":1},{"trial_n":58,"n_dots":3.15,"target":"right","response":"left","rt":387.40000000596,"correct":false,"confidence":1},{"trial_n":59,"n_dots":3.25,"target":"right","response":"left","rt":378.09999999404,"correct":false,"confidence":3},{"trial_n":60,"n_dots":3.35,"target":"right","response":"right","rt":275.69999999553,"correct":true,"confidence":4},{"trial_n":61,"n_dots":3.35,"target":"right","response":"left","rt":314.19999999553,"correct":false,"confidence":3},{"trial_n":62,"n_dots":3.45,"target":"left","response":"left","rt":330.79999999702,"correct":true,"confidence":4},{"trial_n":63,"n_dots":3.45,"target":"right","response":"right","rt":471.89999999851,"correct":true,"confidence":4},{"trial_n":64,"n_dots":3.35,"target":"left","response":"left","rt":464.60000000149,"correct":true,"confidence":1},{"trial_n":65,"n_dots":3.35,"target":"left","response":"left","rt":224.10000000149,"correct":true,"confidence":4},{"trial_n":66,"n_dots":3.25,"target":"left","response":"left","rt":424,"correct":true,"confidence":3},{"trial_n":67,"n_dots":3.25,"target":"right","response":"right","rt":944.89999999851,"correct":true,"confidence":4},{"trial_n":68,"n_dots":3.15,"target":"left","response":"left","rt":506.10000000149,"correct":true,"confidence":3},{"trial_n":69,"n_dots":3.15,"target":"left","response":"left","rt":404,"correct":true,"confidence":4},{"trial_n":70,"n_dots":3.05,"target":"left","response":"left","rt":475.79999999702,"correct":true,"confidence":4},{"trial_n":71,"n_dots":3.05,"target":"left","response":"right","rt":14581.099999994,"correct":false,"confidence":3},{"trial_n":72,"n_dots":3.15,"target":"left","response":"left","rt":287.10000000149,"correct":true,"confidence":5},{"trial_n":73,"n_dots":3.15,"target":"right","response":"left","rt":374.89999999851,"correct":false,"confidence":5},{"trial_n":74,"n_dots":3.25,"target":"right","response":"left","rt":529,"correct":false,"confidence":3},{"trial_n":75,"n_dots":3.35,"target":"right","response":"right","rt":525.70000000298,"correct":true,"confidence":4},{"trial_n":76,"n_dots":3.35,"target":"left","response":"left","rt":397.5,"correct":true,"confidence":5},{"trial_n":77,"n_dots":3.25,"target":"left","response":"left","rt":311.20000000298,"correct":true,"confidence":5},{"trial_n":78,"n_dots":3.25,"target":"right","response":"right","rt":580.89999999851,"correct":true,"confidence":4},{"trial_n":79,"n_dots":3.15,"target":"left","response":"left","rt":314.5,"correct":true,"confidence":4},{"trial_n":80,"n_dots":3.15,"target":"right","response":"right","rt":627,"correct":true,"confidence":4},{"trial_n":81,"n_dots":3.05,"target":"right","response":"left","rt":396.5,"correct":false,"confidence":5},{"trial_n":82,"n_dots":3.15,"target":"left","response":"left","rt":247,"correct":true,"confidence":1},{"trial_n":83,"n_dots":3.15,"target":"left","response":"left","rt":701,"correct":true,"confidence":1},{"trial_n":84,"n_dots":3.05,"target":"left","response":"left","rt":435.20000000298,"correct":true,"confidence":2},{"trial_n":85,"n_dots":3.05,"target":"right","response":"right","rt":348.60000000149,"correct":true,"confidence":3},{"trial_n":86,"n_dots":2.95,"target":"left","response":"left","rt":950.60000000149,"correct":true,"confidence":2},{"trial_n":87,"n_dots":2.95,"target":"right","response":"right","rt":492.10000000149,"correct":true,"confidence":3},{"trial_n":88,"n_dots":2.85,"target":"left","response":"left","rt":362.59999999404,"correct":true,"confidence":2},{"trial_n":89,"n_dots":2.85,"target":"left","response":"left","rt":293.60000000149,"correct":true,"confidence":2},{"trial_n":90,"n_dots":2.75,"target":"left","response":"left","rt":426.59999999404,"correct":true,"confidence":4},{"trial_n":91,"n_dots":2.75,"target":"left","response":"right","rt":955.30000000447,"correct":false,"confidence":2},{"trial_n":92,"n_dots":2.85,"target":"right","response":"left","rt":780.79999999702,"correct":false,"confidence":2},{"trial_n":93,"n_dots":2.95,"target":"right","response":"right","rt":554.90000000596,"correct":true,"confidence":4},{"trial_n":94,"n_dots":2.95,"target":"right","response":"right","rt":996.89999999106,"correct":true,"confidence":2},{"trial_n":95,"n_dots":2.85,"target":"right","response":"left","rt":959.20000000298,"correct":false,"confidence":1},{"trial_n":96,"n_dots":2.95,"target":"right","response":"left","rt":365.29999999702,"correct":false,"confidence":3},{"trial_n":97,"n_dots":3.05,"target":"left","response":"left","rt":347.39999999106,"correct":true,"confidence":4},{"trial_n":98,"n_dots":3.05,"target":"right","response":"left","rt":380.5,"correct":false,"confidence":3},{"trial_n":99,"n_dots":3.15,"target":"right","response":"right","rt":322.5,"correct":true,"confidence":1},{"trial_n":100,"n_dots":3.15,"target":"right","response":"left","rt":285.70000000298,"correct":false,"confidence":1},{"trial_n":101,"n_dots":3.25,"target":"left","response":"left","rt":690.20000000298,"correct":true,"confidence":3},{"trial_n":102,"n_dots":3.25,"target":"right","response":"right","rt":355.5,"correct":true,"confidence":1},{"trial_n":103,"n_dots":3.15,"target":"left","response":"right","rt":218.5,"correct":false,"confidence":1},{"trial_n":104,"n_dots":3.25,"target":"right","response":"right","rt":526.20000000298,"correct":true,"confidence":1},{"trial_n":105,"n_dots":3.25,"target":"right","response":"left","rt":321,"correct":false,"confidence":3},{"trial_n":106,"n_dots":3.35,"target":"left","response":"left","rt":321.60000000894,"correct":true,"confidence":5},{"trial_n":107,"n_dots":3.35,"target":"right","response":"right","rt":318.20000000298,"correct":true,"confidence":1},{"trial_n":108,"n_dots":3.25,"target":"left","response":"left","rt":305.59999999404,"correct":true,"confidence":3},{"trial_n":109,"n_dots":3.25,"target":"left","response":"left","rt":361.89999999106,"correct":true,"confidence":4},{"trial_n":110,"n_dots":3.15,"target":"right","response":"right","rt":436.10000000894,"correct":true,"confidence":2},{"trial_n":111,"n_dots":3.15,"target":"left","response":"right","rt":633.69999998808,"correct":false,"confidence":1},{"trial_n":112,"n_dots":3.25,"target":"left","response":"left","rt":297.59999999404,"correct":true,"confidence":3},{"trial_n":113,"n_dots":3.25,"target":"left","response":"left","rt":350.40000000596,"correct":true,"confidence":3},{"trial_n":114,"n_dots":3.15,"target":"left","response":"left","rt":1457.200000003,"correct":true,"confidence":2},{"trial_n":115,"n_dots":3.15,"target":"right","response":"right","rt":704.40000000596,"correct":true,"confidence":1},{"trial_n":116,"n_dots":3.05,"target":"right","response":"right","rt":428.29999999702,"correct":true,"confidence":3},{"trial_n":117,"n_dots":3.05,"target":"left","response":"left","rt":1105,"correct":true,"confidence":4},{"trial_n":118,"n_dots":2.95,"target":"left","response":"left","rt":309.5,"correct":true,"confidence":3},{"trial_n":119,"n_dots":2.95,"target":"right","response":"right","rt":336.40000000596,"correct":true,"confidence":3},{"trial_n":120,"n_dots":2.85,"target":"left","response":"right","rt":1144.5,"correct":false,"confidence":1},{"trial_n":121,"n_dots":2.95,"target":"left","response":"left","rt":304.79999999702,"correct":true,"confidence":3},{"trial_n":122,"n_dots":2.95,"target":"right","response":"right","rt":370.5,"correct":true,"confidence":4},{"trial_n":123,"n_dots":2.85,"target":"right","response":"left","rt":396.90000000596,"correct":false,"confidence":3},{"trial_n":124,"n_dots":2.95,"target":"right","response":"right","rt":213.40000000596,"correct":true,"confidence":1},{"trial_n":125,"n_dots":2.95,"target":"left","response":"left","rt":4321.6000000089,"correct":true,"confidence":1},{"trial_n":126,"n_dots":2.85,"target":"right","response":"right","rt":365.59999999404,"correct":true,"confidence":1},{"trial_n":127,"n_dots":2.85,"target":"right","response":"left","rt":1788.5,"correct":false,"confidence":1},{"trial_n":128,"n_dots":2.95,"target":"left","response":"left","rt":370.60000000894,"correct":true,"confidence":5},{"trial_n":129,"n_dots":2.95,"target":"left","response":"left","rt":359.59999999404,"correct":true,"confidence":2},{"trial_n":130,"n_dots":2.85,"target":"right","response":"left","rt":617.5,"correct":false,"confidence":4},{"trial_n":131,"n_dots":2.95,"target":"left","response":"left","rt":316,"correct":true,"confidence":4},{"trial_n":132,"n_dots":2.95,"target":"left","response":"left","rt":324.70000000298,"correct":true,"confidence":4},{"trial_n":133,"n_dots":2.85,"target":"left","response":"left","rt":102.20000000298,"correct":true,"confidence":3},{"trial_n":134,"n_dots":2.85,"target":"left","response":"left","rt":269.79999999702,"correct":true,"confidence":4},{"trial_n":135,"n_dots":2.75,"target":"right","response":"left","rt":691,"correct":false,"confidence":1},{"trial_n":136,"n_dots":2.85,"target":"left","response":"right","rt":1525.400000006,"correct":false,"confidence":1},{"trial_n":137,"n_dots":2.95,"target":"right","response":"left","rt":512.5,"correct":false,"confidence":3},{"trial_n":138,"n_dots":3.05,"target":"right","response":"left","rt":561.70000000298,"correct":false,"confidence":1},{"trial_n":139,"n_dots":3.15,"target":"right","response":"left","rt":400.30000001192,"correct":false,"confidence":3},{"trial_n":140,"n_dots":3.25,"target":"left","response":"right","rt":196.79999999702,"correct":false,"confidence":1},{"trial_n":141,"n_dots":3.35,"target":"left","response":"left","rt":370.39999999106,"correct":true,"confidence":3},{"trial_n":142,"n_dots":3.35,"target":"right","response":"left","rt":373.40000000596,"correct":false,"confidence":2},{"trial_n":143,"n_dots":3.45,"target":"left","response":"left","rt":329.20000000298,"correct":true,"confidence":3},{"trial_n":144,"n_dots":3.45,"target":"left","response":"left","rt":695.5,"correct":true,"confidence":1},{"trial_n":145,"n_dots":3.35,"target":"left","response":"left","rt":343,"correct":true,"confidence":4},{"trial_n":146,"n_dots":3.35,"target":"left","response":"left","rt":368.30000001192,"correct":true,"confidence":4},{"trial_n":147,"n_dots":3.25,"target":"right","response":"right","rt":482.09999999404,"correct":true,"confidence":4},{"trial_n":148,"n_dots":3.25,"target":"left","response":"left","rt":357.59999999404,"correct":true,"confidence":4},{"trial_n":149,"n_dots":3.15,"target":"left","response":"left","rt":576.90000000596,"correct":true,"confidence":4},{"trial_n":150,"n_dots":3.15,"target":"right","response":"right","rt":535.89999999106,"correct":true,"confidence":1},{"trial_n":151,"n_dots":3.05,"target":"right","response":"left","rt":264.29999999702,"correct":false,"confidence":3},{"trial_n":152,"n_dots":3.15,"target":"left","response":"left","rt":439.70000000298,"correct":true,"confidence":4},{"trial_n":153,"n_dots":3.15,"target":"left","response":"left","rt":374.09999999404,"correct":true,"confidence":3},{"trial_n":154,"n_dots":3.05,"target":"right","response":"right","rt":293.29999999702,"correct":true,"confidence":1},{"trial_n":155,"n_dots":3.05,"target":"left","response":"right","rt":680.39999999106,"correct":false,"confidence":3},{"trial_n":156,"n_dots":3.15,"target":"right","response":"left","rt":410.09999999404,"correct":false,"confidence":1},{"trial_n":157,"n_dots":3.25,"target":"left","response":"left","rt":261,"correct":true,"confidence":2},{"trial_n":158,"n_dots":3.25,"target":"right","response":"left","rt":440.79999999702,"correct":false,"confidence":1},{"trial_n":159,"n_dots":3.35,"target":"right","response":"right","rt":1372,"correct":true,"confidence":1},{"trial_n":160,"n_dots":3.35,"target":"right","response":"right","rt":410.29999999702,"correct":true,"confidence":1},{"trial_n":161,"n_dots":3.25,"target":"left","response":"left","rt":454.39999999106,"correct":true,"confidence":2},{"trial_n":162,"n_dots":3.25,"target":"right","response":"right","rt":663.70000000298,"correct":true,"confidence":4},{"trial_n":163,"n_dots":3.15,"target":"right","response":"right","rt":549.20000000298,"correct":true,"confidence":2},{"trial_n":164,"n_dots":3.15,"target":"right","response":"right","rt":313.09999999404,"correct":true,"confidence":2},{"trial_n":165,"n_dots":3.05,"target":"right","response":"left","rt":746.90000000596,"correct":false,"confidence":1},{"trial_n":166,"n_dots":3.15,"target":"right","response":"right","rt":319.09999999404,"correct":true,"confidence":1},{"trial_n":167,"n_dots":3.15,"target":"right","response":"left","rt":466.79999999702,"correct":false,"confidence":1},{"trial_n":168,"n_dots":3.25,"target":"left","response":"right","rt":197.20000000298,"correct":false,"confidence":1},{"trial_n":169,"n_dots":3.35,"target":"right","response":"right","rt":268.70000000298,"correct":true,"confidence":1},{"trial_n":170,"n_dots":3.35,"target":"right","response":"left","rt":271.09999999404,"correct":false,"confidence":1},{"trial_n":171,"n_dots":3.45,"target":"right","response":"right","rt":88,"correct":true,"confidence":1},{"trial_n":172,"n_dots":3.45,"target":"left","response":"left","rt":49.5,"correct":true,"confidence":2},{"trial_n":173,"n_dots":3.35,"target":"left","response":"left","rt":375.5,"correct":true,"confidence":3},{"trial_n":174,"n_dots":3.35,"target":"left","response":"left","rt":344.09999999404,"correct":true,"confidence":4},{"trial_n":175,"n_dots":3.25,"target":"left","response":"right","rt":13114.600000009,"correct":false,"confidence":1},{"trial_n":176,"n_dots":3.35,"target":"right","response":"right","rt":299.5,"correct":true,"confidence":1},{"trial_n":177,"n_dots":3.35,"target":"right","response":"left","rt":184.40000000596,"correct":false,"confidence":1},{"trial_n":178,"n_dots":3.45,"target":"right","response":"left","rt":164,"correct":false,"confidence":1},{"trial_n":179,"n_dots":3.55,"target":"right","response":"right","rt":173.09999999404,"correct":true,"confidence":2},{"trial_n":180,"n_dots":3.55,"target":"right","response":"left","rt":325.70000000298,"correct":false,"confidence":2},{"trial_n":181,"n_dots":3.65,"target":"left","response":"left","rt":349,"correct":true,"confidence":4},{"trial_n":182,"n_dots":3.65,"target":"left","response":"left","rt":303,"correct":true,"confidence":5},{"trial_n":183,"n_dots":3.55,"target":"right","response":"right","rt":343.39999999106,"correct":true,"confidence":3},{"trial_n":184,"n_dots":3.55,"target":"right","response":"left","rt":275,"correct":false,"confidence":3},{"trial_n":185,"n_dots":3.65,"target":"left","response":"left","rt":326.59999999404,"correct":true,"confidence":5},{"trial_n":186,"n_dots":3.65,"target":"right","response":"right","rt":189.20000000298,"correct":true,"confidence":5},{"trial_n":187,"n_dots":3.55,"target":"left","response":"left","rt":269.70000000298,"correct":true,"confidence":5},{"trial_n":188,"n_dots":3.55,"target":"left","response":"left","rt":424.40000000596,"correct":true,"confidence":3},{"trial_n":189,"n_dots":3.45,"target":"left","response":"left","rt":271.29999999702,"correct":true,"confidence":4},{"trial_n":190,"n_dots":3.45,"target":"left","response":"left","rt":445.5,"correct":true,"confidence":6},{"trial_n":191,"n_dots":3.35,"target":"right","response":"right","rt":338.59999999404,"correct":true,"confidence":3},{"trial_n":192,"n_dots":3.35,"target":"right","response":"right","rt":383.59999999404,"correct":true,"confidence":2},{"trial_n":193,"n_dots":3.25,"target":"right","response":"right","rt":344,"correct":true,"confidence":1},{"trial_n":194,"n_dots":3.25,"target":"left","response":"left","rt":771.39999999106,"correct":true,"confidence":1}]