"rt","response","task","target_side","correct_response","trial_type","trial_index","time_elapsed","internal_node_id","correct","trial_number","n_dots","stimulus","slider_start","participant"
"410.30000001192093","e","choice","left","e","practice","10","19971","0.0-4.0-8.0","true","1","4.25","","",""
"259.30000001192093","i","choice","right","i","practice","18","22553","0.0-4.0-8.1","true","2","4.25","","",""
"560.9000000059605","e","choice","left","e","practice","26","25422","0.0-4.0-8.2","true","3","3.85","","",""
"638.5999999940395","i","choice","right","i","practice","34","28371","0.0-4.0-8.3","true","4","3.85","","",""
"263.30000001192093","i","choice","right","i","practice","42","30927","0.0-4.0-8.4","true","5","3.45","","",""
"589.4000000059605","e","choice","left","e","practice","50","33807","0.0-4.0-8.5","true","6","3.45","","",""
"404.2999999821186","i","choice","left","e","practice","58","36505","0.0-4.0-8.6","false","7","3.25","","",""
"185.40000000596046","i","choice","right","i","practice","66","38983","0.0-4.0-8.7","true","8","3.45","","",""
"361.59999999403954","e","choice","left","e","practice","74","41623","0.0-4.0-8.8","true","9","3.45","","",""
"244.40000000596046","i","choice","right","i","practice","82","44159","0.0-4.0-8.9","true","10","3.25","","",""
"550.1999999880791","i","choice","right","i","practice","90","46996","0.0-4.0-8.10","true","11","3.25","","",""
"977.8999999761581","e","choice","left","e","practice","98","50261","0.0-4.0-8.11","true","12","3.15","","",""
"411.09999999403954","e","choice","left","e","practice","106","52962","0.0-4.0-8.12","true","13","3.15","","",""
"230.09999999403954","i","choice","right","i","practice","114","55470","0.0-4.0-8.13","true","14","3.05","","",""
"47.900000005960464","i","choice","right","i","practice","122","57816","0.0-4.0-8.14","true","15","3.05","","",""
"158.10000002384186","i","choice","left","e","practice","130","60251","0.0-4.0-8.15","false","16","2.9499999999999997","","",""
"258.40000000596046","e","choice","left","e","practice","138","62799","0.0-4.0-8.16","true","17","3.05","","",""
"173.89999997615814","i","choice","right","i","practice","146","65261","0.0-4.0-8.17","true","18","3.05","","",""
"222.7999999821186","e","choice","left","e","practice","154","67762","0.0-4.0-8.18","true","19","2.9499999999999997","","",""
"83.2999999821186","i","choice","right","i","practice","162","70148","0.0-4.0-8.19","true","20","2.9499999999999997","","",""
"112.80000001192093","i","choice","right","i","practice","170","72550","0.0-4.0-8.20","true","21","2.8499999999999996","","",""
"283.2000000178814","i","choice","left","e","practice","178","75112","0.0-4.0-8.21","false","22","2.8499999999999996","","",""
"265.59999999403954","e","choice","left","e","practice","186","77667","0.0-4.0-8.22","true","23","2.9499999999999997","","",""
"324.69999998807907","i","choice","right","i","practice","194","80269","0.0-4.0-8.23","true","24","2.9499999999999997","","",""
"247.09999999403954","i","choice","right","i","practice","202","82805","0.0-4.0-8.24","true","25","2.8499999999999996","","",""
"501.30000001192093","i","choice","left","e","practice","210","85585","0.0-4.0-8.25","false","26","2.8499999999999996","","",""
"283.69999998807907","i","choice","right","i","experimental","221","111914","0.0-4.0-8.26","true","27","2.9499999999999997","","",""
"2349.5999999940395","2","confid","","","html-slider-response","223","114768","0.0-4.0-10.26-0.26","","","","Rate your confidence","1",""
"438.40000000596046","e","choice","left","e","experimental","230","116984","0.0-4.0-8.27","true","28","2.9499999999999997","","",""
"3990","2","confid","","","html-slider-response","232","121478","0.0-4.0-10.27-0.27","","","","Rate your confidence","1",""
"88.89999997615814","i","choice","left","e","experimental","239","123344","0.0-4.0-8.28","false","29","2.8499999999999996","","",""
"2596.5","2","confid","","","html-slider-response","241","126446","0.0-4.0-10.28-0.28","","","","Rate your confidence","1",""
"59.19999998807907","e","choice","right","i","experimental","248","128295","0.0-4.0-8.29","false","30","2.9499999999999997","","",""
"2465.4000000059605","3","confid","","","html-slider-response","250","131263","0.0-4.0-10.29-0.29","","","","Rate your confidence","1",""
"686.8999999761581","e","choice","left","e","experimental","257","133726","0.0-4.0-8.30","true","31","3.05","","",""
"2125.5","3","confid","","","html-slider-response","259","136356","0.0-4.0-10.30-0.30","","","","Rate your confidence","1",""
"366.40000000596046","i","choice","right","i","experimental","266","138500","0.0-4.0-8.31","true","32","3.05","","",""
"1482.9000000059605","2","confid","","","html-slider-response","268","140486","0.0-4.0-10.31-0.31","","","","Rate your confidence","1",""
"251.30000001192093","i","choice","right","i","experimental","275","142513","0.0-4.0-8.32","true","33","2.9499999999999997","","",""
"3311.9000000059605","4","confid","","","html-slider-response","277","146328","0.0-4.0-10.32-0.32","","","","Rate your confidence","1",""
"214","e","choice","left","e","experimental","284","148318","0.0-4.0-8.33","true","34","2.9499999999999997","","",""
"2230.5","4","confid","","","html-slider-response","286","151051","0.0-4.0-10.33-0.33","","","","Rate your confidence","1",""
"153","e","choice","left","e","experimental","293","152982","0.0-4.0-8.34","true","35","2.8499999999999996","","",""
"2006.3999999761581","4","confid","","","html-slider-response","295","155493","0.0-4.0-10.34-0.34","","","","Rate your confidence","1",""
"243.5","e","choice","right","i","experimental","302","157514","0.0-4.0-8.35","false","36","2.8499999999999996","","",""
"2329.5999999940395","3","confid","","","html-slider-response","304","160347","0.0-4.0-10.35-0.35","","","","Rate your confidence","1",""
"713.6999999880791","i","choice","right","i","experimental","311","162836","0.0-4.0-8.36","true","37","2.9499999999999997","","",""
"4064.800000011921","4","confid","","","html-slider-response","313","167404","0.0-4.0-10.36-0.36","","","","Rate your confidence","1",""
"3489.699999988079","e","choice","left","e","experimental","320","172670","0.0-4.0-8.37","true","38","2.9499999999999997","","",""
"2520.2000000178814","2","confid","","","html-slider-response","322","175693","0.0-4.0-10.37-0.37","","","","Rate your confidence","1",""
"290.7999999821186","e","choice","right","i","experimental","329","177773","0.0-4.0-8.38","false","39","2.8499999999999996","","",""
"1952.5","4","confid","","","html-slider-response","331","180229","0.0-4.0-10.38-0.38","","","","Rate your confidence","1",""
"482","e","choice","left","e","experimental","338","182489","0.0-4.0-8.39","true","40","2.9499999999999997","","",""
"2992.699999988079","4","confid","","","html-slider-response","340","185985","0.0-4.0-10.39-0.39","","","","Rate your confidence","1",""
"1013.9000000059605","i","choice","left","e","experimental","347","188775","0.0-4.0-8.40","false","41","2.9499999999999997","","",""
"2980.0999999940395","2","confid","","","html-slider-response","349","192269","0.0-4.0-10.40-0.40","","","","Rate your confidence","1",""
"445.40000000596046","i","choice","right","i","experimental","356","194491","0.0-4.0-8.41","true","42","3.05","","",""
"1767","4","confid","","","html-slider-response","358","196762","0.0-4.0-10.41-0.41","","","","Rate your confidence","1",""
"353.69999998807907","e","choice","left","e","experimental","365","198905","0.0-4.0-8.42","true","43","3.05","","",""
"1823.199999988079","3","confid","","","html-slider-response","367","201232","0.0-4.0-10.42-0.42","","","","Rate your confidence","1",""
"301.10000002384186","i","choice","right","i","experimental","374","203321","0.0-4.0-8.43","true","44","2.9499999999999997","","",""
"3545.5","4","confid","","","html-slider-response","376","207371","0.0-4.0-10.43-0.43","","","","Rate your confidence","1",""
"485.40000000596046","i","choice","right","i","experimental","383","209634","0.0-4.0-8.44","true","45","2.9499999999999997","","",""
"2897.800000011921","4","confid","","","html-slider-response","385","213048","0.0-4.0-10.44-0.44","","","","Rate your confidence","1",""
"715.6999999880791","e","choice","left","e","experimental","392","215542","0.0-4.0-8.45","true","46","2.8499999999999996","","",""
"3918.800000011921","2","confid","","","html-slider-response","394","219977","0.0-4.0-10.45-0.45","","","","Rate your confidence","1",""
"179.5","e","choice","left","e","experimental","401","221934","0.0-4.0-8.46","true","47","2.8499999999999996","","",""
"1975","3","confid","","","html-slider-response","403","224412","0.0-4.0-10.46-0.46","","","","Rate your confidence","1",""
"320.90000000596046","i","choice","right","i","experimental","410","226524","0.0-4.0-8.47","true","48","2.7499999999999996","","",""
"2672.5999999940395","2","confid","","","html-slider-response","412","229700","0.0-4.0-10.47-0.47","","","","Rate your confidence","1",""
"457.5","e","choice","left","e","experimental","419","231936","0.0-4.0-8.48","true","49","2.7499999999999996","","",""
"1984.800000011921","2","confid","","","html-slider-response","421","234424","0.0-4.0-10.48-0.48","","","","Rate your confidence","1",""
"2716.5999999940395","e","choice","right","i","experimental","428","238918","0.0-4.0-8.49","false","50","2.6499999999999995","","",""
"3612.5999999940395","2","confid","","","html-slider-response","430","243036","0.0-4.0-10.49-0.49","","","","Rate your confidence","1",""
"1029","e","choice","left","e","experimental","437","245843","0.0-4.0-8.50","true","51","2.7499999999999996","","",""
"2830","2","confid","","","html-slider-response","439","249176","0.0-4.0-10.50-0.50","","","","Rate your confidence","1",""
"583.5","i","choice","right","i","experimental","446","251548","0.0-4.0-8.51","true","52","2.7499999999999996","","",""
"4246.200000017881","2","confid","","","html-slider-response","448","256298","0.0-4.0-10.51-0.51","","","","Rate your confidence","1",""
"2081.199999988079","e","choice","left","e","experimental","455","260170","0.0-4.0-8.52","true","53","2.6499999999999995","","",""
"3470.399999976158","2","confid","","","html-slider-response","457","264144","0.0-4.0-10.52-0.52","","","","Rate your confidence","1",""
"219.09999999403954","e","choice","right","i","experimental","464","266140","0.0-4.0-8.53","false","54","2.6499999999999995","","",""
"2274.300000011921","2","confid","","","html-slider-response","466","268919","0.0-4.0-10.53-0.53","","","","Rate your confidence","1",""
"85","i","choice","right","i","experimental","473","270798","0.0-4.0-8.54","true","55","2.7499999999999996","","",""
"2300.4000000059605","3","confid","","","html-slider-response","475","273615","0.0-4.0-10.54-0.54","","","","Rate your confidence","1",""
"94.80000001192093","e","choice","left","e","experimental","482","275488","0.0-4.0-8.55","true","56","2.7499999999999996","","",""
"2607.9000000059605","4","confid","","","html-slider-response","484","278600","0.0-4.0-10.55-0.55","","","","Rate your confidence","1",""
"263.2000000178814","e","choice","left","e","experimental","491","280640","0.0-4.0-8.56","true","57","2.6499999999999995","","",""
"2267.800000011921","3","confid","","","html-slider-response","493","283411","0.0-4.0-10.56-0.56","","","","Rate your confidence","1",""
"228.09999999403954","e","choice","right","i","experimental","500","285416","0.0-4.0-8.57","false","58","2.6499999999999995","","",""
"2094.2000000178814","2","confid","","","html-slider-response","502","288013","0.0-4.0-10.57-0.57","","","","Rate your confidence","1",""
"226.69999998807907","e","choice","left","e","experimental","509","290030","0.0-4.0-8.58","true","59","2.7499999999999996","","",""
"4088.699999988079","3","confid","","","html-slider-response","511","294623","0.0-4.0-10.58-0.58","","","","Rate your confidence","1",""
"491","i","choice","right","i","experimental","518","296901","0.0-4.0-8.59","true","60","2.7499999999999996","","",""
"2505.600000023842","3","confid","","","html-slider-response","520","299910","0.0-4.0-10.59-0.59","","","","Rate your confidence","1",""
"596.8999999761581","i","choice","left","e","experimental","527","302284","0.0-4.0-8.60","false","61","2.6499999999999995","","",""
"1955.199999988079","3","confid","","","html-slider-response","529","304743","0.0-4.0-10.60-0.60","","","","Rate your confidence","1",""
"657.5","i","choice","right","i","experimental","536","307178","0.0-4.0-8.61","true","62","2.7499999999999996","","",""
"2478.699999988079","5","confid","","","html-slider-response","538","310161","0.0-4.0-10.61-0.61","","","","Rate your confidence","1",""
"374.80000001192093","i","choice","right","i","experimental","545","312324","0.0-4.0-8.62","true","63","2.7499999999999996","","",""
"2217.800000011921","4","confid","","","html-slider-response","547","315045","0.0-4.0-10.62-0.62","","","","Rate your confidence","1",""
"162.90000000596046","e","choice","left","e","experimental","554","316998","0.0-4.0-8.63","true","64","2.6499999999999995","","",""
"1942.2999999821186","3","confid","","","html-slider-response","556","319445","0.0-4.0-10.63-0.63","","","","Rate your confidence","1",""
"377.69999998807907","i","choice","right","i","experimental","563","321598","0.0-4.0-8.64","true","65","2.6499999999999995","","",""
"1874.699999988079","3","confid","","","html-slider-response","565","323989","0.0-4.0-10.64-0.64","","","","Rate your confidence","1",""
"483.5","i","choice","left","e","experimental","572","326251","0.0-4.0-8.65","false","66","2.5499999999999994","","",""
"1849.5","3","confid","","","html-slider-response","574","328605","0.0-4.0-10.65-0.65","","","","Rate your confidence","1",""
"67.19999998807907","e","choice","left","e","experimental","581","330462","0.0-4.0-8.66","true","67","2.6499999999999995","","",""
"2660.0999999940395","2","confid","","","html-slider-response","583","333626","0.0-4.0-10.66-0.66","","","","Rate your confidence","1",""
"624.9000000059605","i","choice","right","i","experimental","590","336042","0.0-4.0-8.67","true","68","2.6499999999999995","","",""
"3431.5","4","confid","","","html-slider-response","592","339976","0.0-4.0-10.67-0.67","","","","Rate your confidence","1",""
"498.2000000178814","e","choice","left","e","experimental","600","344803","0.0-4.0-8.68","true","69","2.5499999999999994","","",""
"1963.5","2","confid","","","html-slider-response","602","347271","0.0-4.0-10.68-0.68","","","","Rate your confidence","1",""
"537.1999999880791","i","choice","right","i","experimental","609","349585","0.0-4.0-8.69","true","70","2.5499999999999994","","",""
"1899","2","confid","","","html-slider-response","611","352003","0.0-4.0-10.69-0.69","","","","Rate your confidence","1",""
"390","e","choice","right","i","experimental","618","354170","0.0-4.0-8.70","false","71","2.4499999999999993","","",""
"1793.4000000059605","2","confid","","","html-slider-response","620","356473","0.0-4.0-10.70-0.70","","","","Rate your confidence","1",""
"236.90000000596046","e","choice","left","e","experimental","627","358490","0.0-4.0-8.71","true","72","2.5499999999999994","","",""
"1676.199999988079","3","confid","","","html-slider-response","629","360670","0.0-4.0-10.71-0.71","","","","Rate your confidence","1",""
"257.5","i","choice","left","e","experimental","636","362705","0.0-4.0-8.72","false","73","2.5499999999999994","","",""
"1615.199999988079","1","confid","","","html-slider-response","638","364823","0.0-4.0-10.72-0.72","","","","Rate your confidence","1",""
"207.30000001192093","i","choice","right","i","experimental","645","366808","0.0-4.0-8.73","true","74","2.6499999999999995","","",""
"2147.9000000059605","4","confid","","","html-slider-response","647","369459","0.0-4.0-10.73-0.73","","","","Rate your confidence","1",""
"586.9000000059605","i","choice","left","e","experimental","654","371823","0.0-4.0-8.74","false","75","2.6499999999999995","","",""
"4004.5","3","confid","","","html-slider-response","656","376330","0.0-4.0-10.74-0.74","","","","Rate your confidence","1",""
"272.2000000178814","e","choice","right","i","experimental","663","378380","0.0-4.0-8.75","false","76","2.7499999999999996","","",""
"2684.800000011921","2","confid","","","html-slider-response","665","381568","0.0-4.0-10.75-0.75","","","","Rate your confidence","1",""
"505","e","choice","left","e","experimental","672","383862","0.0-4.0-8.76","true","77","2.8499999999999996","","",""
"4836.699999988079","3","confid","","","html-slider-response","674","389204","0.0-4.0-10.76-0.76","","","","Rate your confidence","1",""
"1258.9000000059605","i","choice","right","i","experimental","681","392253","0.0-4.0-8.77","true","78","2.8499999999999996","","",""
"1866.5","1","confid","","","html-slider-response","683","394623","0.0-4.0-10.77-0.77","","","","Rate your confidence","1",""
"333.5","e","choice","left","e","experimental","690","396734","0.0-4.0-8.78","true","79","2.7499999999999996","","",""
"2332.5999999940395","2","confid","","","html-slider-response","692","399571","0.0-4.0-10.78-0.78","","","","Rate your confidence","1",""
"693","i","choice","right","i","experimental","699","402041","0.0-4.0-8.79","true","80","2.7499999999999996","","",""
"2379.5999999940395","3","confid","","","html-slider-response","701","404925","0.0-4.0-10.79-0.79","","","","Rate your confidence","1",""
"51247.60000002384","i","choice","right","i","experimental","708","457951","0.0-4.0-8.80","true","81","2.6499999999999995","","",""
"6262.699999988079","2","confid","","","html-slider-response","710","464717","0.0-4.0-10.80-0.80","","","","Rate your confidence","1",""
"565.1999999880791","e","choice","left","e","experimental","717","467060","0.0-4.0-8.81","true","82","2.6499999999999995","","",""
"2252.9000000059605","3","confid","","","html-slider-response","719","469817","0.0-4.0-10.81-0.81","","","","Rate your confidence","1",""
"348.30000001192093","e","choice","left","e","experimental","726","471943","0.0-4.0-8.82","true","83","2.5499999999999994","","",""
"3251","3","confid","","","html-slider-response","728","475697","0.0-4.0-10.82-0.82","","","","Rate your confidence","1",""
"547.1999999880791","i","choice","right","i","experimental","735","478022","0.0-4.0-8.83","true","84","2.5499999999999994","","",""
"2336.0999999940395","2","confid","","","html-slider-response","737","480862","0.0-4.0-10.83-0.83","","","","Rate your confidence","1",""
"172.7000000178814","e","choice","right","i","experimental","744","482823","0.0-4.0-8.84","false","85","2.4499999999999993","","",""
"2289.699999988079","2","confid","","","html-slider-response","746","485616","0.0-4.0-10.84-0.84","","","","Rate your confidence","1",""
"15.400000005960464","e","choice","left","e","experimental","753","487407","0.0-4.0-8.85","true","86","2.5499999999999994","","",""
"4825.800000011921","3","confid","","","html-slider-response","755","492748","0.0-4.0-10.85-0.85","","","","Rate your confidence","1",""
"831.8000000119209","i","choice","left","e","experimental","762","495357","0.0-4.0-8.86","false","87","2.5499999999999994","","",""
"2694.2999999821186","2","confid","","","html-slider-response","764","498556","0.0-4.0-10.86-0.86","","","","Rate your confidence","1",""
"610.1000000238419","i","choice","right","i","experimental","771","500960","0.0-4.0-8.87","true","88","2.6499999999999995","","",""
"2828.5","3","confid","","","html-slider-response","773","504292","0.0-4.0-10.87-0.87","","","","Rate your confidence","1",""
"342.5","e","choice","left","e","experimental","780","506413","0.0-4.0-8.88","true","89","2.6499999999999995","","",""
"3097.4000000059605","2","confid","","","html-slider-response","782","510015","0.0-4.0-10.88-0.88","","","","Rate your confidence","1",""
"190.59999999403954","e","choice","right","i","experimental","789","511984","0.0-4.0-8.89","false","90","2.5499999999999994","","",""
"2511.0999999940395","3","confid","","","html-slider-response","791","514999","0.0-4.0-10.89-0.89","","","","Rate your confidence","1",""
"164.19999998807907","e","choice","right","i","experimental","798","516943","0.0-4.0-8.90","false","91","2.6499999999999995","","",""
"1661.7000000178814","3","confid","","","html-slider-response","800","519110","0.0-4.0-10.90-0.90","","","","Rate your confidence","1",""
"350.90000000596046","e","choice","left","e","experimental","807","521251","0.0-4.0-8.91","true","92","2.7499999999999996","","",""
"1710.5999999940395","3","confid","","","html-slider-response","809","523467","0.0-4.0-10.91-0.91","","","","Rate your confidence","1",""
"624.4000000059605","i","choice","right","i","experimental","816","525879","0.0-4.0-8.92","true","93","2.7499999999999996","","",""
"2401.2000000178814","3","confid","","","html-slider-response","818","528784","0.0-4.0-10.92-0.92","","","","Rate your confidence","1",""
"514.9000000059605","e","choice","left","e","experimental","825","531087","0.0-4.0-8.93","true","94","2.6499999999999995","","",""
"1866.5999999940395","3","confid","","","html-slider-response","827","533458","0.0-4.0-10.93-0.93","","","","Rate your confidence","1",""
"643.7999999821186","i","choice","right","i","experimental","834","535880","0.0-4.0-8.94","true","95","2.6499999999999995","","",""
"2553.2000000178814","3","confid","","","html-slider-response","836","538942","0.0-4.0-10.94-0.94","","","","Rate your confidence","1",""
"187.19999998807907","e","choice","left","e","experimental","843","540908","0.0-4.0-8.95","true","96","2.5499999999999994","","",""
"2244.5999999940395","3","confid","","","html-slider-response","845","543658","0.0-4.0-10.95-0.95","","","","Rate your confidence","1",""
"922.3999999761581","i","choice","left","e","experimental","852","546360","0.0-4.0-8.96","false","97","2.5499999999999994","","",""
"1626.300000011921","3","confid","","","html-slider-response","854","548490","0.0-4.0-10.96-0.96","","","","Rate your confidence","1",""
"243.69999998807907","e","choice","right","i","experimental","861","550525","0.0-4.0-8.97","false","98","2.6499999999999995","","",""
"2222","4","confid","","","html-slider-response","863","553250","0.0-4.0-10.97-0.97","","","","Rate your confidence","1",""
"167.59999999403954","e","choice","left","e","experimental","870","555195","0.0-4.0-8.98","true","99","2.7499999999999996","","",""
"1979.800000011921","4","confid","","","html-slider-response","872","557678","0.0-4.0-10.98-0.98","","","","Rate your confidence","1",""
"394.59999999403954","i","choice","right","i","experimental","879","559851","0.0-4.0-8.99","true","100","2.7499999999999996","","",""
"2691.5","4","confid","","","html-slider-response","881","563047","0.0-4.0-10.99-0.99","","","","Rate your confidence","1",""
"69.59999999403954","e","choice","left","e","experimental","888","564906","0.0-4.0-8.100","true","101","2.6499999999999995","","",""
"2087.100000023842","3","confid","","","html-slider-response","890","567497","0.0-4.0-10.100-0.100","","","","Rate your confidence","1",""
"506.59999999403954","i","choice","right","i","experimental","897","569795","0.0-4.0-8.101","true","102","2.6499999999999995","","",""
"1872.7999999821186","3","confid","","","html-slider-response","899","572172","0.0-4.0-10.101-0.101","","","","Rate your confidence","1",""
"166.19999998807907","e","choice","right","i","experimental","906","574118","0.0-4.0-8.102","false","103","2.5499999999999994","","",""
"2726.100000023842","3","confid","","","html-slider-response","908","577359","0.0-4.0-10.102-0.102","","","","Rate your confidence","1",""
"73.2999999821186","e","choice","left","e","experimental","915","579209","0.0-4.0-8.103","true","104","2.6499999999999995","","",""
"3303.300000011921","3","confid","","","html-slider-response","917","583017","0.0-4.0-10.103-0.103","","","","Rate your confidence","1",""
"307.19999998807907","i","choice","left","e","experimental","924","585102","0.0-4.0-8.104","false","105","2.6499999999999995","","",""
"2410","2","confid","","","html-slider-response","926","588016","0.0-4.0-10.104-0.104","","","","Rate your confidence","1",""
"250.19999998807907","i","choice","right","i","experimental","933","590057","0.0-4.0-8.105","true","106","2.7499999999999996","","",""
"2339.5999999940395","3","confid","","","html-slider-response","935","592900","0.0-4.0-10.105-0.105","","","","Rate your confidence","1",""
"223.09999999403954","e","choice","left","e","experimental","942","594915","0.0-4.0-8.106","true","107","2.7499999999999996","","",""
"2313.5","3","confid","","","html-slider-response","944","597733","0.0-4.0-10.106-0.106","","","","Rate your confidence","1",""
"318.10000002384186","e","choice","right","i","experimental","951","599828","0.0-4.0-8.107","false","108","2.6499999999999995","","",""
"2282.899999976158","3","confid","","","html-slider-response","953","602616","0.0-4.0-10.107-0.107","","","","Rate your confidence","1",""
"237.59999999403954","e","choice","left","e","experimental","960","604631","0.0-4.0-8.108","true","109","2.7499999999999996","","",""
"2278.800000011921","4","confid","","","html-slider-response","962","607414","0.0-4.0-10.108-0.108","","","","Rate your confidence","1",""
"339.90000000596046","e","choice","right","i","experimental","969","609545","0.0-4.0-8.109","false","110","2.7499999999999996","","",""
"1975.5","3","confid","","","html-slider-response","971","612024","0.0-4.0-10.109-0.109","","","","Rate your confidence","1",""
"321.40000000596046","e","choice","left","e","experimental","979","616859","0.0-4.0-8.110","true","111","2.8499999999999996","","",""
"2788.899999976158","5","confid","","","html-slider-response","981","620166","0.0-4.0-10.110-0.110","","","","Rate your confidence","1",""
"190.5","i","choice","right","i","experimental","988","622133","0.0-4.0-8.111","true","112","2.8499999999999996","","",""
"3316.899999976158","3","confid","","","html-slider-response","990","625953","0.0-4.0-10.111-0.111","","","","Rate your confidence","1",""
"227.59999999403954","e","choice","left","e","experimental","997","627972","0.0-4.0-8.112","true","113","2.7499999999999996","","",""
"2318","3","confid","","","html-slider-response","999","630795","0.0-4.0-10.112-0.112","","","","Rate your confidence","1",""
"574.9000000059605","i","choice","right","i","experimental","1006","633148","0.0-4.0-8.113","true","114","2.7499999999999996","","",""
"4209.9000000059605","3","confid","","","html-slider-response","1008","637862","0.0-4.0-10.113-0.113","","","","Rate your confidence","1",""
"290.59999999403954","e","choice","right","i","experimental","1015","639931","0.0-4.0-8.114","false","115","2.6499999999999995","","",""
"2186.0999999940395","3","confid","","","html-slider-response","1017","642623","0.0-4.0-10.114-0.114","","","","Rate your confidence","1",""
"532.6999999880791","e","choice","left","e","experimental","1024","644933","0.0-4.0-8.115","true","116","2.7499999999999996","","",""
"1564.5999999940395","3","confid","","","html-slider-response","1026","647002","0.0-4.0-10.115-0.115","","","","Rate your confidence","1",""
"197.69999998807907","i","choice","right","i","experimental","1033","648990","0.0-4.0-8.116","true","117","2.7499999999999996","","",""
"2115.9000000059605","3","confid","","","html-slider-response","1035","651611","0.0-4.0-10.116-0.116","","","","Rate your confidence","1",""
"75","e","choice","left","e","experimental","1042","653475","0.0-4.0-8.117","true","118","2.6499999999999995","","",""
"2507.600000023842","3","confid","","","html-slider-response","1044","656487","0.0-4.0-10.117-0.117","","","","Rate your confidence","1",""
"176.40000000596046","i","choice","right","i","experimental","1051","658440","0.0-4.0-8.118","true","119","2.6499999999999995","","",""
"2529.5","4","confid","","","html-slider-response","1053","661473","0.0-4.0-10.118-0.118","","","","Rate your confidence","1",""
"258.69999998807907","e","choice","left","e","experimental","1060","663511","0.0-4.0-8.119","true","120","2.5499999999999994","","",""
"2595.0999999940395","4","confid","","","html-slider-response","1062","666610","0.0-4.0-10.119-0.119","","","","Rate your confidence","1",""
"328.5","e","choice","left","e","experimental","1069","668717","0.0-4.0-8.120","true","121","2.5499999999999994","","",""
"2122.2000000178814","4","confid","","","html-slider-response","1071","671343","0.0-4.0-10.120-0.120","","","","Rate your confidence","1",""
"128","e","choice","right","i","experimental","1078","673262","0.0-4.0-8.121","false","122","2.4499999999999993","","",""
"2129.0999999940395","4","confid","","","html-slider-response","1080","675895","0.0-4.0-10.121-0.121","","","","Rate your confidence","1",""
"163.7999999821186","e","choice","left","e","experimental","1087","677850","0.0-4.0-8.122","true","123","2.5499999999999994","","",""
"2115.7999999821186","5","confid","","","html-slider-response","1089","680469","0.0-4.0-10.122-0.122","","","","Rate your confidence","1",""
"463.09999999403954","i","choice","right","i","experimental","1096","682711","0.0-4.0-8.123","true","124","2.5499999999999994","","",""
"1620.199999988079","4","confid","","","html-slider-response","1098","684854","0.0-4.0-10.123-0.123","","","","Rate your confidence","1",""
"510.89999997615814","e","choice","left","e","experimental","1105","687143","0.0-4.0-8.124","true","125","2.4499999999999993","","",""
"1591.0999999940395","4","confid","","","html-slider-response","1107","689238","0.0-4.0-10.124-0.124","","","","Rate your confidence","1",""
"433.80000001192093","i","choice","right","i","experimental","1114","691463","0.0-4.0-8.125","true","126","2.4499999999999993","","",""
"2905.7999999821186","4","confid","","","html-slider-response","1116","694874","0.0-4.0-10.125-0.125","","","","Rate your confidence","1",""
"465.80000001192093","i","choice","left","e","experimental","1123","697119","0.0-4.0-8.126","false","127","2.349999999999999","","",""
"2243.7000000178814","4","confid","","","html-slider-response","1125","699866","0.0-4.0-10.126-0.126","","","","Rate your confidence","1",""
"364.59999999403954","i","choice","right","i","experimental","1132","702009","0.0-4.0-8.127","true","128","2.4499999999999993","","",""
"2778.9000000059605","4","confid","","","html-slider-response","1134","705293","0.0-4.0-10.127-0.127","","","","Rate your confidence","1",""
"218.40000000596046","i","choice","left","e","experimental","1141","707292","0.0-4.0-8.128","false","129","2.4499999999999993","","",""
"2127.4000000059605","4","confid","","","html-slider-response","1143","709924","0.0-4.0-10.128-0.128","","","","Rate your confidence","1",""
"247.19999998807907","e","choice","right","i","experimental","1150","711950","0.0-4.0-8.129","false","130","2.5499999999999994","","",""
"2085.800000011921","4","confid","","","html-slider-response","1152","714540","0.0-4.0-10.129-0.129","","","","Rate your confidence","1",""
"355.5","e","choice","left","e","experimental","1159","716676","0.0-4.0-8.130","true","131","2.6499999999999995","","",""
"2433.2999999821186","4","confid","","","html-slider-response","1161","719613","0.0-4.0-10.130-0.130","","","","Rate your confidence","1",""
"732","i","choice","right","i","experimental","1168","722123","0.0-4.0-8.131","true","132","2.6499999999999995","","",""
"1769","4","confid","","","html-slider-response","1170","724396","0.0-4.0-10.131-0.131","","","","Rate your confidence","1",""
"255.90000000596046","e","choice","right","i","experimental","1177","726433","0.0-4.0-8.132","false","133","2.5499999999999994","","",""
"3051.2000000178814","4","confid","","","html-slider-response","1179","729989","0.0-4.0-10.132-0.132","","","","Rate your confidence","1",""
"162.69999998807907","e","choice","left","e","experimental","1186","731933","0.0-4.0-8.133","true","134","2.6499999999999995","","",""
"2557.4000000059605","4","confid","","","html-slider-response","1188","734996","0.0-4.0-10.133-0.133","","","","Rate your confidence","1",""
"357.90000000596046","e","choice","right","i","experimental","1195","737133","0.0-4.0-8.134","false","135","2.6499999999999995","","",""
"2047.0999999940395","4","confid","","","html-slider-response","1197","739684","0.0-4.0-10.134-0.134","","","","Rate your confidence","1",""
"87","e","choice","left","e","experimental","1204","741551","0.0-4.0-8.135","true","136","2.7499999999999996","","",""
"2570.2999999821186","4","confid","","","html-slider-response","1206","744625","0.0-4.0-10.135-0.135","","","","Rate your confidence","1",""
"710.3000000119209","i","choice","right","i","experimental","1213","747127","0.0-4.0-8.136","true","137","2.7499999999999996","","",""
"1652.699999988079","4","confid","","","html-slider-response","1215","749284","0.0-4.0-10.136-0.136","","","","Rate your confidence","1",""
"90.89999997615814","e","choice","left","e","experimental","1222","751154","0.0-4.0-8.137","true","138","2.6499999999999995","","",""
"1605.5","4","confid","","","html-slider-response","1224","753264","0.0-4.0-10.137-0.137","","","","Rate your confidence","1",""
"136.7999999821186","i","choice","right","i","experimental","1231","755182","0.0-4.0-8.138","true","139","2.6499999999999995","","",""
"2630.5999999940395","4","confid","","","html-slider-response","1233","758315","0.0-4.0-10.138-0.138","","","","Rate your confidence","1",""
"88.89999997615814","e","choice","left","e","experimental","1240","760186","0.0-4.0-8.139","true","140","2.5499999999999994","","",""
"2127.4000000059605","4","confid","","","html-slider-response","1242","762816","0.0-4.0-10.139-0.139","","","","Rate your confidence","1",""
"843.4000000059605","i","choice","right","i","experimental","1249","765439","0.0-4.0-8.140","true","141","2.5499999999999994","","",""
"3904.4000000059605","4","confid","","","html-slider-response","1251","769861","0.0-4.0-10.140-0.140","","","","Rate your confidence","1",""
"951.0999999940395","e","choice","left","e","experimental","1258","772592","0.0-4.0-8.141","true","142","2.4499999999999993","","",""
"3318.800000011921","4","confid","","","html-slider-response","1260","776414","0.0-4.0-10.141-0.141","","","","Rate your confidence","1",""
"1076.4000000059605","i","choice","left","e","experimental","1267","779268","0.0-4.0-8.142","false","143","2.4499999999999993","","",""
"3930.5999999940395","4","confid","","","html-slider-response","1269","783704","0.0-4.0-10.142-0.142","","","","Rate your confidence","1",""
"111.40000000596046","i","choice","right","i","experimental","1276","785608","0.0-4.0-8.143","true","144","2.5499999999999994","","",""
"5793.300000011921","4","confid","","","html-slider-response","1278","791905","0.0-4.0-10.143-0.143","","","","Rate your confidence","1",""
"430.5","i","choice","left","e","experimental","1285","794115","0.0-4.0-8.144","false","145","2.5499999999999994","","",""
"2026.7999999821186","3","confid","","","html-slider-response","1287","796645","0.0-4.0-10.144-0.144","","","","Rate your confidence","1",""
"354.5","i","choice","right","i","experimental","1294","798777","0.0-4.0-8.145","true","146","2.6499999999999995","","",""
"3289.4000000059605","3","confid","","","html-slider-response","1296","802570","0.0-4.0-10.145-0.145","","","","Rate your confidence","1",""
"637","e","choice","left","e","experimental","1303","804999","0.0-4.0-8.146","true","147","2.6499999999999995","","",""
"3005.300000011921","4","confid","","","html-slider-response","1305","808509","0.0-4.0-10.146-0.146","","","","Rate your confidence","1",""
"806.8000000119209","i","choice","right","i","experimental","1312","811097","0.0-4.0-8.147","true","148","2.5499999999999994","","",""
"2282.2000000178814","4","confid","","","html-slider-response","1314","813883","0.0-4.0-10.147-0.147","","","","Rate your confidence","1",""
"302.19999998807907","e","choice","left","e","experimental","1321","815967","0.0-4.0-8.148","true","149","2.5499999999999994","","",""
"1834.199999988079","4","confid","","","html-slider-response","1323","818305","0.0-4.0-10.148-0.148","","","","Rate your confidence","1",""
"44.400000005960464","i","choice","right","i","experimental","1330","820131","0.0-4.0-8.149","true","150","2.4499999999999993","","",""
"1414.800000011921","3","confid","","","html-slider-response","1332","822063","0.0-4.0-10.149-0.149","","","","Rate your confidence","1",""
"251.19999998807907","i","choice","right","i","experimental","1339","824091","0.0-4.0-8.150","true","151","2.4499999999999993","","",""
"2026.7000000178814","4","confid","","","html-slider-response","1341","826621","0.0-4.0-10.150-0.150","","","","Rate your confidence","1",""
"294","e","choice","left","e","experimental","1348","828709","0.0-4.0-8.151","true","152","2.349999999999999","","",""
"2359.800000011921","3","confid","","","html-slider-response","1350","831572","0.0-4.0-10.151-0.151","","","","Rate your confidence","1",""
"100.69999998807907","i","choice","left","e","experimental","1358","834891","0.0-4.0-8.152","false","153","2.349999999999999","","",""
"1549.7999999821186","4","confid","","","html-slider-response","1360","836945","0.0-4.0-10.152-0.152","","","","Rate your confidence","1",""
"178.90000000596046","e","choice","right","i","experimental","1367","838916","0.0-4.0-8.153","false","154","2.4499999999999993","","",""
"1708.800000011921","2","confid","","","html-slider-response","1369","841130","0.0-4.0-10.153-0.153","","","","Rate your confidence","1",""
"118","i","choice","left","e","experimental","1376","843027","0.0-4.0-8.154","false","155","2.5499999999999994","","",""
"3036.4000000059605","1","confid","","","html-slider-response","1378","846578","0.0-4.0-10.154-0.154","","","","Rate your confidence","1",""
"1180.699999988079","e","choice","right","i","experimental","1385","849538","0.0-4.0-8.155","false","156","2.6499999999999995","","",""
"2373.5999999940395","2","confid","","","html-slider-response","1387","852415","0.0-4.0-10.155-0.155","","","","Rate your confidence","1",""
"465.7999999821186","i","choice","right","i","experimental","1394","854663","0.0-4.0-8.156","true","157","2.7499999999999996","","",""
"2289.5999999940395","3","confid","","","html-slider-response","1396","857458","0.0-4.0-10.156-0.156","","","","Rate your confidence","1",""
"432.5","e","choice","left","e","experimental","1403","859669","0.0-4.0-8.157","true","158","2.7499999999999996","","",""
"2710","1","confid","","","html-slider-response","1405","862883","0.0-4.0-10.157-0.157","","","","Rate your confidence","1",""
"281.09999999403954","e","choice","right","i","experimental","1412","864944","0.0-4.0-8.158","false","159","2.6499999999999995","","",""
"1805","2","confid","","","html-slider-response","1414","867254","0.0-4.0-10.158-0.158","","","","Rate your confidence","1",""
"202.09999999403954","e","choice","left","e","experimental","1421","869236","0.0-4.0-8.159","true","160","2.7499999999999996","","",""
"2124.9000000059605","3","confid","","","html-slider-response","1423","871877","0.0-4.0-10.159-0.159","","","","Rate your confidence","1",""
"142.19999998807907","e","choice","left","e","experimental","1430","873797","0.0-4.0-8.160","true","161","2.7499999999999996","","",""
"2405","3","confid","","","html-slider-response","1432","876719","0.0-4.0-10.160-0.160","","","","Rate your confidence","1",""
"28.69999998807907","i","choice","right","i","experimental","1439","878530","0.0-4.0-8.161","true","162","2.6499999999999995","","",""
"2043","3","confid","","","html-slider-response","1441","881077","0.0-4.0-10.161-0.161","","","","Rate your confidence","1",""
"433.09999999403954","e","choice","right","i","experimental","1448","883299","0.0-4.0-8.162","false","163","2.6499999999999995","","",""
"2981.199999988079","3","confid","","","html-slider-response","1450","886785","0.0-4.0-10.162-0.162","","","","Rate your confidence","1",""
"229.7999999821186","i","choice","left","e","experimental","1457","888808","0.0-4.0-8.163","false","164","2.7499999999999996","","",""
"2912.2999999821186","2","confid","","","html-slider-response","1459","892225","0.0-4.0-10.163-0.163","","","","Rate your confidence","1",""
"61.80000001192093","i","choice","right","i","experimental","1466","894067","0.0-4.0-8.164","true","165","2.8499999999999996","","",""
"2248.300000011921","1","confid","","","html-slider-response","1468","896820","0.0-4.0-10.164-0.164","","","","Rate your confidence","1",""
"1119.7000000178814","i","choice","left","e","experimental","1475","899719","0.0-4.0-8.165","false","166","2.8499999999999996","","",""
"1812.5999999940395","2","confid","","","html-slider-response","1477","902035","0.0-4.0-10.165-0.165","","","","Rate your confidence","1",""
"144.09999999403954","e","choice","left","e","experimental","1484","903960","0.0-4.0-8.166","true","167","2.9499999999999997","","",""
"2173.199999988079","2","confid","","","html-slider-response","1486","906638","0.0-4.0-10.166-0.166","","","","Rate your confidence","1",""
"68.80000001192093","i","choice","right","i","experimental","1493","908485","0.0-4.0-8.167","true","168","2.9499999999999997","","",""
"1723.800000011921","2","confid","","","html-slider-response","1495","910713","0.0-4.0-10.167-0.167","","","","Rate your confidence","1",""
"199.59999999403954","i","choice","right","i","experimental","1502","912694","0.0-4.0-8.168","true","169","2.8499999999999996","","",""
"2674.9000000059605","2","confid","","","html-slider-response","1504","915873","0.0-4.0-10.168-0.168","","","","Rate your confidence","1",""
"110.30000001192093","e","choice","left","e","experimental","1511","917772","0.0-4.0-8.169","true","170","2.8499999999999996","","",""
"1959.199999988079","2","confid","","","html-slider-response","1513","920236","0.0-4.0-10.169-0.169","","","","Rate your confidence","1",""
"415","e","choice","right","i","experimental","1520","922431","0.0-4.0-8.170","false","171","2.7499999999999996","","",""
"2801.7999999821186","2","confid","","","html-slider-response","1522","925740","0.0-4.0-10.170-0.170","","","","Rate your confidence","1",""
"285","e","choice","left","e","experimental","1529","927804","0.0-4.0-8.171","true","172","2.8499999999999996","","",""
"2394.699999988079","2","confid","","","html-slider-response","1531","930703","0.0-4.0-10.171-0.171","","","","Rate your confidence","1",""
"99.5","e","choice","left","e","experimental","1538","932580","0.0-4.0-8.172","true","173","2.8499999999999996","","",""
"1879.800000011921","2","confid","","","html-slider-response","1540","934965","0.0-4.0-10.172-0.172","","","","Rate your confidence","1",""
"317.19999998807907","e","choice","right","i","experimental","1547","937075","0.0-4.0-8.173","false","174","2.7499999999999996","","",""
"2845.7999999821186","2","confid","","","html-slider-response","1549","940426","0.0-4.0-10.173-0.173","","","","Rate your confidence","1",""
"76.40000000596046","e","choice","left","e","experimental","1556","942283","0.0-4.0-8.174","true","175","2.8499999999999996","","",""
"2595.0999999940395","5","confid","","","html-slider-response","1558","945383","0.0-4.0-10.174-0.174","","","","Rate your confidence","1",""
"222.19999998807907","i","choice","right","i","experimental","1565","947386","0.0-4.0-8.175","true","176","2.8499999999999996","","",""
"2693.9000000059605","3","confid","","","html-slider-response","1567","950585","0.0-4.0-10.175-0.175","","","","Rate your confidence","1",""
"344.10000002384186","i","choice","right","i","experimental","1574","952721","0.0-4.0-8.176","true","177","2.7499999999999996","","",""
"1851.7000000178814","3","confid","","","html-slider-response","1576","955078","0.0-4.0-10.176-0.176","","","","Rate your confidence","1",""
"330.09999999403954","e","choice","left","e","experimental","1583","957201","0.0-4.0-8.177","true","178","2.7499999999999996","","",""
"2125.4000000059605","3","confid","","","html-slider-response","1585","959831","0.0-4.0-10.177-0.177","","","","Rate your confidence","1",""
"439.90000000596046","e","choice","left","e","experimental","1592","962054","0.0-4.0-8.178","true","179","2.6499999999999995","","",""
"1520.7999999821186","3","confid","","","html-slider-response","1594","964080","0.0-4.0-10.178-0.178","","","","Rate your confidence","1",""
"433.7000000178814","i","choice","right","i","experimental","1601","966293","0.0-4.0-8.179","true","180","2.6499999999999995","","",""
"2788","3","confid","","","html-slider-response","1603","969585","0.0-4.0-10.179-0.179","","","","Rate your confidence","1",""
"412.90000000596046","i","choice","right","i","experimental","1610","971777","0.0-4.0-8.180","true","181","2.5499999999999994","","",""
"3242.5","3","confid","","","html-slider-response","1612","975524","0.0-4.0-10.180-0.180","","","","Rate your confidence","1",""
"321","e","choice","left","e","experimental","1619","977624","0.0-4.0-8.181","true","182","2.5499999999999994","","",""
"2512.2999999821186","3","confid","","","html-slider-response","1621","980641","0.0-4.0-10.181-0.181","","","","Rate your confidence","1",""
"57.10000002384186","i","choice","right","i","experimental","1628","982490","0.0-4.0-8.182","true","183","2.4499999999999993","","",""
"1970.5999999940395","4","confid","","","html-slider-response","1630","984975","0.0-4.0-10.182-0.182","","","","Rate your confidence","1",""
"599.2999999821186","i","choice","left","e","experimental","1637","987354","0.0-4.0-8.183","false","184","2.4499999999999993","","",""
"2138.199999988079","3","confid","","","html-slider-response","1639","989996","0.0-4.0-10.183-0.183","","","","Rate your confidence","1",""
"846.3000000119209","i","choice","right","i","experimental","1646","992622","0.0-4.0-8.184","true","185","2.5499999999999994","","",""
"1491.7999999821186","3","confid","","","html-slider-response","1648","994618","0.0-4.0-10.184-0.184","","","","Rate your confidence","1",""
"521.7000000178814","e","choice","left","e","experimental","1655","996918","0.0-4.0-8.185","true","186","2.5499999999999994","","",""
"1992.800000011921","4","confid","","","html-slider-response","1657","999415","0.0-4.0-10.185-0.185","","","","Rate your confidence","1",""
"283.59999999403954","i","choice","right","i","experimental","1664","1001492","0.0-4.0-8.186","true","187","2.4499999999999993","","",""
"1941.0999999940395","4","confid","","","html-slider-response","1666","1003937","0.0-4.0-10.186-0.186","","","","Rate your confidence","1",""
"47.5","e","choice","left","e","experimental","1673","1005763","0.0-4.0-8.187","true","188","2.4499999999999993","","",""
"1666.199999988079","3","confid","","","html-slider-response","1675","1007933","0.0-4.0-10.187-0.187","","","","Rate your confidence","1",""
"313.90000000596046","e","choice","left","e","experimental","1682","1010027","0.0-4.0-8.188","true","189","2.349999999999999","","",""
"1809.6000000238419","3","confid","","","html-slider-response","1684","1012340","0.0-4.0-10.188-0.188","","","","Rate your confidence","1",""
"189.40000000596046","e","choice","right","i","experimental","1691","1014310","0.0-4.0-8.189","false","190","2.349999999999999","","",""
"2353.0999999940395","3","confid","","","html-slider-response","1693","1017173","0.0-4.0-10.189-0.189","","","","Rate your confidence","1",""
"254.30000001192093","i","choice","left","e","experimental","1700","1019208","0.0-4.0-8.190","false","191","2.4499999999999993","","",""
"2026.9000000059605","3","confid","","","html-slider-response","1702","1021740","0.0-4.0-10.190-0.190","","","","Rate your confidence","1",""
"278.30000001192093","i","choice","right","i","experimental","1709","1023812","0.0-4.0-8.191","true","192","2.5499999999999994","","",""
"2176.7999999821186","3","confid","","","html-slider-response","1711","1026494","0.0-4.0-10.191-0.191","","","","Rate your confidence","1",""
"128","e","choice","right","i","experimental","1718","1028415","0.0-4.0-8.192","false","193","2.5499999999999994","","",""
"1880.800000011921","3","confid","","","html-slider-response","1720","1030800","0.0-4.0-10.192-0.192","","","","Rate your confidence","1",""
"161.80000001192093","i","choice","left","e","experimental","1727","1032741","0.0-4.0-8.193","false","194","2.6499999999999995","","",""
"2306.800000011921","3","confid","","","html-slider-response","1729","1035553","0.0-4.0-10.193-0.193","","","","Rate your confidence","1","17529"
