"rt","response","task","target_side","correct_response","trial_type","trial_index","time_elapsed","internal_node_id","correct","trial_number","n_dots","stimulus","slider_start","participant"
"569.1999999880791","i","choice","right","i","practice","10","77420","0.0-4.0-8.0","true","1","4.25","","",""
"356.19999998807907","e","choice","left","e","practice","18","80075","0.0-4.0-8.1","true","2","4.25","","",""
"112.80000001192093","i","choice","right","i","practice","26","82471","0.0-4.0-8.2","true","3","3.85","","",""
"137.5","e","choice","left","e","practice","34","84906","0.0-4.0-8.3","true","4","3.85","","",""
"88.40000000596046","e","choice","left","e","practice","42","87275","0.0-4.0-8.4","true","5","3.45","","",""
"197","i","choice","right","i","practice","50","89770","0.0-4.0-8.5","true","6","3.45","","",""
"14.699999988079071","e","choice","left","e","practice","58","92066","0.0-4.0-8.6","true","7","3.25","","",""
"5141.5","i","choice","right","i","practice","66","99506","0.0-4.0-8.7","true","8","3.25","","",""
"86","i","choice","right","i","practice","74","101877","0.0-4.0-8.8","true","9","3.05","","",""
"250.5","e","choice","left","e","practice","82","104427","0.0-4.0-8.9","true","10","3.05","","",""
"1083.5","i","choice","left","e","practice","90","107796","0.0-4.0-8.10","false","11","2.8499999999999996","","",""
"73.09999999403954","i","choice","right","i","practice","98","110151","0.0-4.0-8.11","true","12","2.9499999999999997","","",""
"857.7999999821186","e","choice","right","i","practice","106","113291","0.0-4.0-8.12","false","13","2.9499999999999997","","",""
"62.900000005960464","i","choice","left","e","practice","114","115656","0.0-4.0-8.13","false","14","3.05","","",""
"710.3000000119209","i","choice","right","i","practice","122","118667","0.0-4.0-8.14","true","15","3.15","","",""
"66.7000000178814","e","choice","left","e","practice","130","121016","0.0-4.0-8.15","true","16","3.15","","",""
"480.09999999403954","e","choice","left","e","practice","138","123796","0.0-4.0-8.16","true","17","3.05","","",""
"137","i","choice","right","i","practice","146","126227","0.0-4.0-8.17","true","18","3.05","","",""
"684.3000000119209","e","choice","left","e","practice","154","129206","0.0-4.0-8.18","true","19","2.9499999999999997","","",""
"45.400000005960464","i","choice","right","i","practice","162","131536","0.0-4.0-8.19","true","20","2.9499999999999997","","",""
"522.5","e","choice","left","e","practice","170","134356","0.0-4.0-8.20","true","21","2.8499999999999996","","",""
"23.400000005960464","i","choice","right","i","practice","178","136677","0.0-4.0-8.21","true","22","2.8499999999999996","","",""
"321.69999998807907","i","choice","right","i","practice","186","139282","0.0-4.0-8.22","true","23","2.7499999999999996","","",""
"65","e","choice","left","e","practice","194","141642","0.0-4.0-8.23","true","24","2.7499999999999996","","",""
"410.60000002384186","e","choice","right","i","practice","202","144353","0.0-4.0-8.24","false","25","2.6499999999999995","","",""
"109.19999998807907","e","choice","left","e","practice","210","146762","0.0-4.0-8.25","true","26","2.7499999999999996","","",""
"436.7000000178814","i","choice","left","e","experimental","221","204440","0.0-4.0-8.26","false","27","2.7499999999999996","","",""
"5870.4000000059605","2","confid","","","html-slider-response","223","210814","0.0-4.0-10.26-0.26","","","","Rate your confidence","1",""
"494.5","i","choice","right","i","experimental","230","213094","0.0-4.0-8.27","true","28","2.8499999999999996","","",""
"3591.9000000059605","4","confid","","","html-slider-response","232","217190","0.0-4.0-10.27-0.27","","","","Rate your confidence","1",""
"1119.300000011921","e","choice","left","e","experimental","239","220114","0.0-4.0-8.28","true","29","2.8499999999999996","","",""
"7701.300000011921","4","confid","","","html-slider-response","241","228320","0.0-4.0-10.28-0.28","","","","Rate your confidence","1",""
"545.9000000059605","i","choice","right","i","experimental","248","230648","0.0-4.0-8.29","true","30","2.7499999999999996","","",""
"5503.200000017881","6","confid","","","html-slider-response","250","236670","0.0-4.0-10.29-0.29","","","","Rate your confidence","1",""
"434.5","e","choice","left","e","experimental","257","238889","0.0-4.0-8.30","true","31","2.7499999999999996","","",""
"2252.2000000178814","4","confid","","","html-slider-response","259","241645","0.0-4.0-10.30-0.30","","","","Rate your confidence","1",""
"692.8000000119209","i","choice","right","i","experimental","266","244118","0.0-4.0-8.31","true","32","2.6499999999999995","","",""
"2431.800000011921","4","confid","","","html-slider-response","268","247054","0.0-4.0-10.31-0.31","","","","Rate your confidence","1",""
"578.7000000178814","i","choice","left","e","experimental","275","249413","0.0-4.0-8.32","false","33","2.6499999999999995","","",""
"2443.199999988079","5","confid","","","html-slider-response","277","252361","0.0-4.0-10.32-0.32","","","","Rate your confidence","1",""
"1070.5","e","choice","right","i","experimental","284","255227","0.0-4.0-8.33","false","34","2.7499999999999996","","",""
"4568.9000000059605","2","confid","","","html-slider-response","286","260301","0.0-4.0-10.33-0.33","","","","Rate your confidence","1",""
"420.69999998807907","i","choice","right","i","experimental","293","262517","0.0-4.0-8.34","true","35","2.8499999999999996","","",""
"2414.5999999940395","4","confid","","","html-slider-response","295","265436","0.0-4.0-10.34-0.34","","","","Rate your confidence","1",""
"450.30000001192093","e","choice","left","e","experimental","302","267672","0.0-4.0-8.35","true","36","2.8499999999999996","","",""
"4185.4000000059605","3","confid","","","html-slider-response","304","272361","0.0-4.0-10.35-0.35","","","","Rate your confidence","1",""
"315.7999999821186","e","choice","left","e","experimental","311","274461","0.0-4.0-8.36","true","37","2.7499999999999996","","",""
"2961.600000023842","3","confid","","","html-slider-response","313","277928","0.0-4.0-10.36-0.36","","","","Rate your confidence","1",""
"620.2999999821186","i","choice","right","i","experimental","320","280346","0.0-4.0-8.37","true","38","2.7499999999999996","","",""
"2715.7000000178814","3","confid","","","html-slider-response","322","283567","0.0-4.0-10.37-0.37","","","","Rate your confidence","1",""
"420.90000000596046","i","choice","right","i","experimental","329","285770","0.0-4.0-8.38","true","39","2.6499999999999995","","",""
"2906.9000000059605","4","confid","","","html-slider-response","331","289181","0.0-4.0-10.38-0.38","","","","Rate your confidence","1",""
"520.2000000178814","i","choice","left","e","experimental","338","291484","0.0-4.0-8.39","false","40","2.6499999999999995","","",""
"3110.0999999940395","5","confid","","","html-slider-response","340","295098","0.0-4.0-10.39-0.39","","","","Rate your confidence","1",""
"1926.5999999940395","i","choice","left","e","experimental","347","298809","0.0-4.0-8.40","false","41","2.7499999999999996","","",""
"2986.4000000059605","2","confid","","","html-slider-response","349","302299","0.0-4.0-10.40-0.40","","","","Rate your confidence","1",""
"1031","i","choice","right","i","experimental","356","305112","0.0-4.0-8.41","true","42","2.8499999999999996","","",""
"3021.199999988079","3","confid","","","html-slider-response","358","308638","0.0-4.0-10.41-0.41","","","","Rate your confidence","1",""
"1149.9000000059605","e","choice","left","e","experimental","365","311592","0.0-4.0-8.42","true","43","2.8499999999999996","","",""
"3003.600000023842","2","confid","","","html-slider-response","367","315100","0.0-4.0-10.42-0.42","","","","Rate your confidence","1",""
"274.40000000596046","i","choice","right","i","experimental","374","317175","0.0-4.0-8.43","true","44","2.7499999999999996","","",""
"2808.7000000178814","6","confid","","","html-slider-response","376","320489","0.0-4.0-10.43-0.43","","","","Rate your confidence","1",""
"196.69999998807907","e","choice","right","i","experimental","383","322465","0.0-4.0-8.44","false","45","2.7499999999999996","","",""
"2574.5","5","confid","","","html-slider-response","385","325544","0.0-4.0-10.44-0.44","","","","Rate your confidence","1",""
"285.59999999403954","e","choice","left","e","experimental","392","327615","0.0-4.0-8.45","true","46","2.8499999999999996","","",""
"2526.5999999940395","4","confid","","","html-slider-response","394","330646","0.0-4.0-10.45-0.45","","","","Rate your confidence","1",""
"403.09999999403954","i","choice","right","i","experimental","401","332835","0.0-4.0-8.46","true","47","2.8499999999999996","","",""
"2863.2000000178814","5","confid","","","html-slider-response","403","336203","0.0-4.0-10.46-0.46","","","","Rate your confidence","1",""
"1033.699999988079","e","choice","left","e","experimental","410","339033","0.0-4.0-8.47","true","48","2.7499999999999996","","",""
"1963.5","4","confid","","","html-slider-response","412","341501","0.0-4.0-10.47-0.47","","","","Rate your confidence","1",""
"511.59999999403954","e","choice","left","e","experimental","419","343796","0.0-4.0-8.48","true","49","2.7499999999999996","","",""
"3529.699999988079","3","confid","","","html-slider-response","421","347830","0.0-4.0-10.48-0.48","","","","Rate your confidence","1",""
"571.5999999940395","i","choice","right","i","experimental","428","350196","0.0-4.0-8.49","true","50","2.6499999999999995","","",""
"2428.0999999940395","4","confid","","","html-slider-response","430","353128","0.0-4.0-10.49-0.49","","","","Rate your confidence","1",""
"1308.199999988079","e","choice","left","e","experimental","437","356219","0.0-4.0-8.50","true","51","2.6499999999999995","","",""
"2842","5","confid","","","html-slider-response","439","359566","0.0-4.0-10.50-0.50","","","","Rate your confidence","1",""
"528.7999999821186","i","choice","right","i","experimental","446","361879","0.0-4.0-8.51","true","52","2.5499999999999994","","",""
"6334.9000000059605","4","confid","","","html-slider-response","448","368718","0.0-4.0-10.51-0.51","","","","Rate your confidence","1",""
"787","e","choice","left","e","experimental","455","371286","0.0-4.0-8.52","true","53","2.5499999999999994","","",""
"2851.600000023842","6","confid","","","html-slider-response","457","374642","0.0-4.0-10.52-0.52","","","","Rate your confidence","1",""
"526.8000000119209","i","choice","right","i","experimental","464","376971","0.0-4.0-8.53","true","54","2.4499999999999993","","",""
"3938.800000011921","5","confid","","","html-slider-response","466","381414","0.0-4.0-10.53-0.53","","","","Rate your confidence","1",""
"614.4000000059605","i","choice","right","i","experimental","473","383810","0.0-4.0-8.54","true","55","2.4499999999999993","","",""
"2321.9000000059605","6","confid","","","html-slider-response","475","386636","0.0-4.0-10.54-0.54","","","","Rate your confidence","1",""
"405.40000000596046","i","choice","left","e","experimental","482","388840","0.0-4.0-8.55","false","56","2.349999999999999","","",""
"2728.699999988079","4","confid","","","html-slider-response","484","392073","0.0-4.0-10.55-0.55","","","","Rate your confidence","1",""
"478.5","i","choice","right","i","experimental","491","394339","0.0-4.0-8.56","true","57","2.4499999999999993","","",""
"3526.5","3","confid","","","html-slider-response","493","398369","0.0-4.0-10.56-0.56","","","","Rate your confidence","1",""
"258.7999999821186","i","choice","left","e","experimental","500","400412","0.0-4.0-8.57","false","58","2.4499999999999993","","",""
"2404.199999988079","4","confid","","","html-slider-response","502","403320","0.0-4.0-10.57-0.57","","","","Rate your confidence","1",""
"317","i","choice","left","e","experimental","509","405421","0.0-4.0-8.58","false","59","2.5499999999999994","","",""
"3374.2999999821186","6","confid","","","html-slider-response","511","409299","0.0-4.0-10.58-0.58","","","","Rate your confidence","1",""
"1120.2999999821186","e","choice","right","i","experimental","518","412216","0.0-4.0-8.59","false","60","2.6499999999999995","","",""
"3064.300000011921","3","confid","","","html-slider-response","520","415785","0.0-4.0-10.59-0.59","","","","Rate your confidence","1",""
"340.90000000596046","i","choice","right","i","experimental","527","417924","0.0-4.0-8.60","true","61","2.7499999999999996","","",""
"3521","4","confid","","","html-slider-response","529","421949","0.0-4.0-10.60-0.60","","","","Rate your confidence","1",""
"697.0999999940395","e","choice","left","e","experimental","536","424443","0.0-4.0-8.61","true","62","2.7499999999999996","","",""
"2142.5","5","confid","","","html-slider-response","538","427090","0.0-4.0-10.61-0.61","","","","Rate your confidence","1",""
"246.7999999821186","i","choice","right","i","experimental","545","429122","0.0-4.0-8.62","true","63","2.6499999999999995","","",""
"4179.4000000059605","4","confid","","","html-slider-response","547","433805","0.0-4.0-10.62-0.62","","","","Rate your confidence","1",""
"606.2000000178814","i","choice","left","e","experimental","554","436196","0.0-4.0-8.63","false","64","2.6499999999999995","","",""
"2722.9000000059605","5","confid","","","html-slider-response","556","439423","0.0-4.0-10.63-0.63","","","","Rate your confidence","1",""
"415.19999998807907","i","choice","right","i","experimental","563","441640","0.0-4.0-8.64","true","65","2.7499999999999996","","",""
"2423.5999999940395","5","confid","","","html-slider-response","565","444567","0.0-4.0-10.64-0.64","","","","Rate your confidence","1",""
"756.6000000238419","i","choice","left","e","experimental","572","447124","0.0-4.0-8.65","false","66","2.7499999999999996","","",""
"4206.800000011921","3","confid","","","html-slider-response","574","451835","0.0-4.0-10.65-0.65","","","","Rate your confidence","1",""
"510.40000000596046","i","choice","right","i","experimental","581","454131","0.0-4.0-8.66","true","67","2.8499999999999996","","",""
"3375.2999999821186","3","confid","","","html-slider-response","583","458010","0.0-4.0-10.66-0.66","","","","Rate your confidence","1",""
"1409.699999988079","i","choice","left","e","experimental","590","461204","0.0-4.0-8.67","false","68","2.8499999999999996","","",""
"3635.9000000059605","2","confid","","","html-slider-response","592","465344","0.0-4.0-10.67-0.67","","","","Rate your confidence","1",""
"814.3000000119209","e","choice","right","i","experimental","600","474810","0.0-4.0-8.68","false","69","2.9499999999999997","","",""
"5007.9000000059605","3","confid","","","html-slider-response","602","480322","0.0-4.0-10.68-0.68","","","","Rate your confidence","1",""
"294.59999999403954","i","choice","left","e","experimental","609","482417","0.0-4.0-8.69","false","70","3.05","","",""
"3173","5","confid","","","html-slider-response","611","486095","0.0-4.0-10.69-0.69","","","","Rate your confidence","1",""
"215.19999998807907","i","choice","right","i","experimental","618","488096","0.0-4.0-8.70","true","71","3.15","","",""
"5578.5999999940395","3","confid","","","html-slider-response","620","494179","0.0-4.0-10.70-0.70","","","","Rate your confidence","1",""
"624.7000000178814","e","choice","left","e","experimental","627","496589","0.0-4.0-8.71","true","72","3.15","","",""
"3606.5","4","confid","","","html-slider-response","629","500700","0.0-4.0-10.71-0.71","","","","Rate your confidence","1",""
"510","i","choice","left","e","experimental","636","502996","0.0-4.0-8.72","false","73","3.05","","",""
"3467.4000000059605","3","confid","","","html-slider-response","638","506968","0.0-4.0-10.72-0.72","","","","Rate your confidence","1",""
"226.90000000596046","i","choice","right","i","experimental","645","508991","0.0-4.0-8.73","true","74","3.15","","",""
"2551.5999999940395","3","confid","","","html-slider-response","647","512047","0.0-4.0-10.73-0.73","","","","Rate your confidence","1",""
"266.09999999403954","i","choice","left","e","experimental","654","514095","0.0-4.0-8.74","false","75","3.15","","",""
"3465.5999999940395","3","confid","","","html-slider-response","656","518065","0.0-4.0-10.74-0.74","","","","Rate your confidence","1",""
"566.4000000059605","i","choice","right","i","experimental","663","520417","0.0-4.0-8.75","true","76","3.25","","",""
"3338.9000000059605","3","confid","","","html-slider-response","665","524261","0.0-4.0-10.75-0.75","","","","Rate your confidence","1",""
"621.9000000059605","e","choice","left","e","experimental","672","526669","0.0-4.0-8.76","true","77","3.25","","",""
"3058.4000000059605","2","confid","","","html-slider-response","674","530232","0.0-4.0-10.76-0.76","","","","Rate your confidence","1",""
"848.4000000059605","e","choice","right","i","experimental","681","532883","0.0-4.0-8.77","false","78","3.15","","",""
"2921.699999988079","2","confid","","","html-slider-response","683","536310","0.0-4.0-10.77-0.77","","","","Rate your confidence","1",""
"281.2999999821186","e","choice","left","e","experimental","690","538373","0.0-4.0-8.78","true","79","3.25","","",""
"2405.699999988079","5","confid","","","html-slider-response","692","541283","0.0-4.0-10.78-0.78","","","","Rate your confidence","1",""
"547.3000000119209","i","choice","right","i","experimental","699","543616","0.0-4.0-8.79","true","80","3.25","","",""
"4672.0999999940395","3","confid","","","html-slider-response","701","548793","0.0-4.0-10.79-0.79","","","","Rate your confidence","1",""
"395.09999999403954","e","choice","left","e","experimental","708","550973","0.0-4.0-8.80","true","81","3.15","","",""
"2456.7999999821186","5","confid","","","html-slider-response","710","553935","0.0-4.0-10.80-0.80","","","","Rate your confidence","1",""
"216.59999999403954","i","choice","right","i","experimental","717","555951","0.0-4.0-8.81","true","82","3.15","","",""
"2355.699999988079","3","confid","","","html-slider-response","719","558811","0.0-4.0-10.81-0.81","","","","Rate your confidence","1",""
"331.2000000178814","i","choice","left","e","experimental","726","560941","0.0-4.0-8.82","false","83","3.05","","",""
"2538.7999999821186","3","confid","","","html-slider-response","728","563985","0.0-4.0-10.82-0.82","","","","Rate your confidence","1",""
"387.40000000596046","i","choice","right","i","experimental","735","566154","0.0-4.0-8.83","true","84","3.15","","",""
"2519.5","3","confid","","","html-slider-response","737","569178","0.0-4.0-10.83-0.83","","","","Rate your confidence","1",""
"237.30000001192093","e","choice","left","e","experimental","744","571202","0.0-4.0-8.84","true","85","3.15","","",""
"2399.0999999940395","4","confid","","","html-slider-response","746","574105","0.0-4.0-10.84-0.84","","","","Rate your confidence","1",""
"314.40000000596046","i","choice","right","i","experimental","753","576207","0.0-4.0-8.85","true","86","3.05","","",""
"2373.0999999940395","5","confid","","","html-slider-response","755","579085","0.0-4.0-10.85-0.85","","","","Rate your confidence","1",""
"162.89999997615814","i","choice","left","e","experimental","762","581049","0.0-4.0-8.86","false","87","3.05","","",""
"2452.100000023842","5","confid","","","html-slider-response","764","584006","0.0-4.0-10.86-0.86","","","","Rate your confidence","1",""
"120.59999999403954","i","choice","right","i","experimental","771","585927","0.0-4.0-8.87","true","88","3.15","","",""
"2210.699999988079","6","confid","","","html-slider-response","773","588642","0.0-4.0-10.87-0.87","","","","Rate your confidence","1",""
"598.3999999761581","e","choice","left","e","experimental","780","591031","0.0-4.0-8.88","true","89","3.15","","",""
"2387.199999988079","4","confid","","","html-slider-response","782","593935","0.0-4.0-10.88-0.88","","","","Rate your confidence","1",""
"126.5","i","choice","right","i","experimental","789","595845","0.0-4.0-8.89","true","90","3.05","","",""
"2488.7999999821186","5","confid","","","html-slider-response","791","598838","0.0-4.0-10.89-0.89","","","","Rate your confidence","1",""
"214.40000000596046","e","choice","left","e","experimental","798","600853","0.0-4.0-8.90","true","91","3.05","","",""
"2966.5","6","confid","","","html-slider-response","800","604324","0.0-4.0-10.90-0.90","","","","Rate your confidence","1",""
"209.69999998807907","i","choice","right","i","experimental","807","606345","0.0-4.0-8.91","true","92","2.9499999999999997","","",""
"2044.800000011921","5","confid","","","html-slider-response","809","608895","0.0-4.0-10.91-0.91","","","","Rate your confidence","1",""
"301.80000001192093","e","choice","left","e","experimental","816","610978","0.0-4.0-8.92","true","93","2.9499999999999997","","",""
"2755.2999999821186","3","confid","","","html-slider-response","818","614257","0.0-4.0-10.92-0.92","","","","Rate your confidence","1",""
"494.5","i","choice","right","i","experimental","825","616537","0.0-4.0-8.93","true","94","2.8499999999999996","","",""
"2470.9000000059605","4","confid","","","html-slider-response","827","619512","0.0-4.0-10.93-0.93","","","","Rate your confidence","1",""
"335.69999998807907","e","choice","left","e","experimental","834","621645","0.0-4.0-8.94","true","95","2.8499999999999996","","",""
"4533","6","confid","","","html-slider-response","836","626686","0.0-4.0-10.94-0.94","","","","Rate your confidence","1",""
"194","i","choice","right","i","experimental","843","628677","0.0-4.0-8.95","true","96","2.7499999999999996","","",""
"2903.5","6","confid","","","html-slider-response","845","632087","0.0-4.0-10.95-0.95","","","","Rate your confidence","1",""
"858.5999999940395","e","choice","left","e","experimental","852","634730","0.0-4.0-8.96","true","97","2.7499999999999996","","",""
"5480.799999982119","4","confid","","","html-slider-response","854","640715","0.0-4.0-10.96-0.96","","","","Rate your confidence","1",""
"373.40000000596046","i","choice","right","i","experimental","861","642872","0.0-4.0-8.97","true","98","2.6499999999999995","","",""
"2691.5","4","confid","","","html-slider-response","863","646068","0.0-4.0-10.97-0.97","","","","Rate your confidence","1",""
"779.5999999940395","e","choice","left","e","experimental","870","648630","0.0-4.0-8.98","true","99","2.6499999999999995","","",""
"2555.199999988079","3","confid","","","html-slider-response","872","651689","0.0-4.0-10.98-0.98","","","","Rate your confidence","1",""
"196.5","i","choice","right","i","experimental","879","653688","0.0-4.0-8.99","true","100","2.5499999999999994","","",""
"2327.7999999821186","5","confid","","","html-slider-response","881","656521","0.0-4.0-10.99-0.99","","","","Rate your confidence","1",""
"360.09999999403954","i","choice","left","e","experimental","888","658677","0.0-4.0-8.100","false","101","2.5499999999999994","","",""
"2671.4000000059605","5","confid","","","html-slider-response","890","661853","0.0-4.0-10.100-0.100","","","","Rate your confidence","1",""
"624.3999999761581","e","choice","right","i","experimental","897","664261","0.0-4.0-8.101","false","102","2.6499999999999995","","",""
"2192.899999976158","4","confid","","","html-slider-response","899","666958","0.0-4.0-10.101-0.101","","","","Rate your confidence","1",""
"262.5","i","choice","left","e","experimental","906","669005","0.0-4.0-8.102","false","103","2.7499999999999996","","",""
"3435.699999988079","3","confid","","","html-slider-response","908","672946","0.0-4.0-10.102-0.102","","","","Rate your confidence","1",""
"511.89999997615814","e","choice","right","i","experimental","915","675257","0.0-4.0-8.103","false","104","2.8499999999999996","","",""
"2555.699999988079","3","confid","","","html-slider-response","917","678317","0.0-4.0-10.103-0.103","","","","Rate your confidence","1",""
"287.80000001192093","i","choice","left","e","experimental","924","680401","0.0-4.0-8.104","false","105","2.9499999999999997","","",""
"2621.2999999821186","2","confid","","","html-slider-response","926","683527","0.0-4.0-10.104-0.104","","","","Rate your confidence","1",""
"177.2999999821186","i","choice","right","i","experimental","933","685488","0.0-4.0-8.105","true","106","3.05","","",""
"2840.5999999940395","6","confid","","","html-slider-response","935","688833","0.0-4.0-10.105-0.105","","","","Rate your confidence","1",""
"374.10000002384186","e","choice","right","i","experimental","942","690997","0.0-4.0-8.106","false","107","3.05","","",""
"3370.800000011921","3","confid","","","html-slider-response","944","694873","0.0-4.0-10.106-0.106","","","","Rate your confidence","1",""
"560.2000000178814","i","choice","left","e","experimental","951","697234","0.0-4.0-8.107","false","108","3.15","","",""
"2771.800000011921","3","confid","","","html-slider-response","953","700511","0.0-4.0-10.107-0.107","","","","Rate your confidence","1",""
"471.5","i","choice","right","i","experimental","960","702788","0.0-4.0-8.108","true","109","3.25","","",""
"4013.5999999940395","3","confid","","","html-slider-response","962","707306","0.0-4.0-10.108-0.108","","","","Rate your confidence","1",""
"558.6000000238419","e","choice","left","e","experimental","969","709650","0.0-4.0-8.109","true","110","3.25","","",""
"2685.7000000178814","5","confid","","","html-slider-response","971","712841","0.0-4.0-10.109-0.109","","","","Rate your confidence","1",""
"1549.0999999940395","i","choice","right","i","experimental","979","718073","0.0-4.0-8.110","true","111","3.15","","",""
"2467.5","5","confid","","","html-slider-response","981","721046","0.0-4.0-10.110-0.110","","","","Rate your confidence","1",""
"570.5","e","choice","left","e","experimental","988","723415","0.0-4.0-8.111","true","112","3.15","","",""
"3418.9000000059605","6","confid","","","html-slider-response","990","727337","0.0-4.0-10.111-0.111","","","","Rate your confidence","1",""
"864.7999999821186","i","choice","right","i","experimental","997","730003","0.0-4.0-8.112","true","113","3.05","","",""
"2048","5","confid","","","html-slider-response","999","732556","0.0-4.0-10.112-0.112","","","","Rate your confidence","1",""
"264.5","i","choice","left","e","experimental","1006","734605","0.0-4.0-8.113","false","114","3.05","","",""
"3753.800000011921","4","confid","","","html-slider-response","1008","738863","0.0-4.0-10.113-0.113","","","","Rate your confidence","1",""
"280.69999998807907","i","choice","right","i","experimental","1015","740928","0.0-4.0-8.114","true","115","3.15","","",""
"2597.2000000178814","4","confid","","","html-slider-response","1017","744029","0.0-4.0-10.114-0.114","","","","Rate your confidence","1",""
"1977","e","choice","left","e","experimental","1024","747801","0.0-4.0-8.115","true","116","3.15","","",""
"8953.199999988079","5","confid","","","html-slider-response","1026","757259","0.0-4.0-10.115-0.115","","","","Rate your confidence","1",""
"480.89999997615814","i","choice","right","i","experimental","1033","759526","0.0-4.0-8.116","true","117","3.05","","",""
"2401.2000000178814","5","confid","","","html-slider-response","1035","762431","0.0-4.0-10.116-0.116","","","","Rate your confidence","1",""
"731.2999999821186","e","choice","left","e","experimental","1042","764949","0.0-4.0-8.117","true","118","3.05","","",""
"1962","3","confid","","","html-slider-response","1044","767429","0.0-4.0-10.117-0.117","","","","Rate your confidence","1",""
"310","i","choice","right","i","experimental","1051","769527","0.0-4.0-8.118","true","119","2.9499999999999997","","",""
"2931.9000000059605","6","confid","","","html-slider-response","1053","772964","0.0-4.0-10.118-0.118","","","","Rate your confidence","1",""
"534.5","e","choice","left","e","experimental","1060","775302","0.0-4.0-8.119","true","120","2.9499999999999997","","",""
"2369.4000000059605","4","confid","","","html-slider-response","1062","778175","0.0-4.0-10.119-0.119","","","","Rate your confidence","1",""
"267.5","i","choice","right","i","experimental","1069","780249","0.0-4.0-8.120","true","121","2.8499999999999996","","",""
"5071.399999976158","3","confid","","","html-slider-response","1071","785824","0.0-4.0-10.120-0.120","","","","Rate your confidence","1",""
"929.6000000238419","e","choice","left","e","experimental","1078","788530","0.0-4.0-8.121","true","122","2.8499999999999996","","",""
"3154","6","confid","","","html-slider-response","1080","792188","0.0-4.0-10.121-0.121","","","","Rate your confidence","1",""
"1152.2000000178814","i","choice","right","i","experimental","1087","795113","0.0-4.0-8.122","true","123","2.7499999999999996","","",""
"3815.5999999940395","5","confid","","","html-slider-response","1089","799443","0.0-4.0-10.122-0.122","","","","Rate your confidence","1",""
"1146","i","choice","left","e","experimental","1096","802361","0.0-4.0-8.123","false","124","2.7499999999999996","","",""
"3084.800000011921","3","confid","","","html-slider-response","1098","805949","0.0-4.0-10.123-0.123","","","","Rate your confidence","1",""
"707.9000000059605","i","choice","right","i","experimental","1105","808427","0.0-4.0-8.124","true","125","2.8499999999999996","","",""
"3328.399999976158","3","confid","","","html-slider-response","1107","812259","0.0-4.0-10.124-0.124","","","","Rate your confidence","1",""
"329.7000000178814","i","choice","left","e","experimental","1114","814380","0.0-4.0-8.125","false","126","2.8499999999999996","","",""
"1910.3999999761581","5","confid","","","html-slider-response","1116","816794","0.0-4.0-10.125-0.125","","","","Rate your confidence","1",""
"1009.8999999761581","e","choice","left","e","experimental","1123","819603","0.0-4.0-8.126","true","127","2.9499999999999997","","",""
"2068.5","6","confid","","","html-slider-response","1125","822175","0.0-4.0-10.126-0.126","","","","Rate your confidence","1",""
"333","i","choice","right","i","experimental","1132","824292","0.0-4.0-8.127","true","128","2.9499999999999997","","",""
"2137","6","confid","","","html-slider-response","1134","826931","0.0-4.0-10.127-0.127","","","","Rate your confidence","1",""
"862.1999999880791","i","choice","left","e","experimental","1141","829569","0.0-4.0-8.128","false","129","2.8499999999999996","","",""
"2006.4000000059605","5","confid","","","html-slider-response","1143","832079","0.0-4.0-10.128-0.128","","","","Rate your confidence","1",""
"357.10000002384186","i","choice","right","i","experimental","1150","834208","0.0-4.0-8.129","true","130","2.9499999999999997","","",""
"1619.800000011921","4","confid","","","html-slider-response","1152","836330","0.0-4.0-10.129-0.129","","","","Rate your confidence","1",""
"607.5999999940395","e","choice","left","e","experimental","1159","838731","0.0-4.0-8.130","true","131","2.9499999999999997","","",""
"2106.5999999940395","4","confid","","","html-slider-response","1161","841339","0.0-4.0-10.130-0.130","","","","Rate your confidence","1",""
"295.69999998807907","i","choice","right","i","experimental","1168","843419","0.0-4.0-8.131","true","132","2.8499999999999996","","",""
"2381.2000000178814","6","confid","","","html-slider-response","1170","846303","0.0-4.0-10.131-0.131","","","","Rate your confidence","1",""
"458.59999999403954","e","choice","right","i","experimental","1177","848532","0.0-4.0-8.132","false","133","2.8499999999999996","","",""
"2526.300000011921","5","confid","","","html-slider-response","1179","851562","0.0-4.0-10.132-0.132","","","","Rate your confidence","1",""
"870","i","choice","left","e","experimental","1186","854205","0.0-4.0-8.133","false","134","2.9499999999999997","","",""
"2939.5999999940395","4","confid","","","html-slider-response","1188","857647","0.0-4.0-10.133-0.133","","","","Rate your confidence","1",""
"437.40000000596046","i","choice","right","i","experimental","1195","859873","0.0-4.0-8.134","true","135","3.05","","",""
"2182.5","5","confid","","","html-slider-response","1197","862560","0.0-4.0-10.134-0.134","","","","Rate your confidence","1",""
"1244.2000000178814","e","choice","left","e","experimental","1204","865602","0.0-4.0-8.135","true","136","3.05","","",""
"4913.5999999940395","4","confid","","","html-slider-response","1206","871019","0.0-4.0-10.135-0.135","","","","Rate your confidence","1",""
"607.2999999821186","i","choice","left","e","experimental","1213","873413","0.0-4.0-8.136","false","137","2.9499999999999997","","",""
"2207.300000011921","4","confid","","","html-slider-response","1215","876123","0.0-4.0-10.136-0.136","","","","Rate your confidence","1",""
"606.1999999880791","i","choice","right","i","experimental","1222","878507","0.0-4.0-8.137","true","138","3.05","","",""
"2489.4000000059605","5","confid","","","html-slider-response","1224","881500","0.0-4.0-10.137-0.137","","","","Rate your confidence","1",""
"551","e","choice","left","e","experimental","1231","883826","0.0-4.0-8.138","true","139","3.05","","",""
"3306.5","4","confid","","","html-slider-response","1233","887635","0.0-4.0-10.138-0.138","","","","Rate your confidence","1",""
"319.5","i","choice","right","i","experimental","1240","889730","0.0-4.0-8.139","true","140","2.9499999999999997","","",""
"3112.5999999940395","6","confid","","","html-slider-response","1242","893346","0.0-4.0-10.139-0.139","","","","Rate your confidence","1",""
"389.09999999403954","i","choice","right","i","experimental","1249","895523","0.0-4.0-8.140","true","141","2.9499999999999997","","",""
"1767.199999988079","5","confid","","","html-slider-response","1251","897794","0.0-4.0-10.140-0.140","","","","Rate your confidence","1",""
"405.30000001192093","e","choice","left","e","experimental","1258","899986","0.0-4.0-8.141","true","142","2.8499999999999996","","",""
"1718.7000000178814","4","confid","","","html-slider-response","1260","902208","0.0-4.0-10.141-0.141","","","","Rate your confidence","1",""
"654.5","e","choice","left","e","experimental","1267","904639","0.0-4.0-8.142","true","143","2.8499999999999996","","",""
"2745.0999999940395","4","confid","","","html-slider-response","1269","907888","0.0-4.0-10.142-0.142","","","","Rate your confidence","1",""
"267.39999997615814","i","choice","right","i","experimental","1276","909932","0.0-4.0-8.143","true","144","2.7499999999999996","","",""
"2104.7000000178814","4","confid","","","html-slider-response","1278","912542","0.0-4.0-10.143-0.143","","","","Rate your confidence","1",""
"318.40000000596046","e","choice","left","e","experimental","1285","914647","0.0-4.0-8.144","true","145","2.7499999999999996","","",""
"1981","5","confid","","","html-slider-response","1287","917133","0.0-4.0-10.144-0.144","","","","Rate your confidence","1",""
"292.80000001192093","i","choice","right","i","experimental","1294","919214","0.0-4.0-8.145","true","146","2.6499999999999995","","",""
"1710.7999999821186","4","confid","","","html-slider-response","1296","921428","0.0-4.0-10.145-0.145","","","","Rate your confidence","1",""
"220.5","e","choice","left","e","experimental","1303","923423","0.0-4.0-8.146","true","147","2.6499999999999995","","",""
"1617.6000000238419","3","confid","","","html-slider-response","1305","925543","0.0-4.0-10.146-0.146","","","","Rate your confidence","1",""
"317.09999999403954","i","choice","right","i","experimental","1312","927637","0.0-4.0-8.147","true","148","2.5499999999999994","","",""
"2839.2999999821186","5","confid","","","html-slider-response","1314","930979","0.0-4.0-10.147-0.147","","","","Rate your confidence","1",""
"991.3000000119209","e","choice","left","e","experimental","1321","933764","0.0-4.0-8.148","true","149","2.5499999999999994","","",""
"3880.5999999940395","3","confid","","","html-slider-response","1323","938150","0.0-4.0-10.148-0.148","","","","Rate your confidence","1",""
"624.1999999880791","i","choice","right","i","experimental","1330","940552","0.0-4.0-8.149","true","150","2.4499999999999993","","",""
"2822.2999999821186","3","confid","","","html-slider-response","1332","943879","0.0-4.0-10.149-0.149","","","","Rate your confidence","1",""
"312.59999999403954","e","choice","right","i","experimental","1339","945969","0.0-4.0-8.150","false","151","2.4499999999999993","","",""
"2360.399999976158","6","confid","","","html-slider-response","1341","948834","0.0-4.0-10.150-0.150","","","","Rate your confidence","1",""
"571.3000000119209","i","choice","left","e","experimental","1348","951182","0.0-4.0-8.151","false","152","2.5499999999999994","","",""
"2855.800000011921","5","confid","","","html-slider-response","1350","954543","0.0-4.0-10.151-0.151","","","","Rate your confidence","1",""
"825.5999999940395","i","choice","left","e","experimental","1358","959099","0.0-4.0-8.152","false","153","2.6499999999999995","","",""
"4980.100000023842","5","confid","","","html-slider-response","1360","964583","0.0-4.0-10.152-0.152","","","","Rate your confidence","1",""
"531.8000000119209","e","choice","right","i","experimental","1367","966906","0.0-4.0-8.153","false","154","2.7499999999999996","","",""
"4196.699999988079","4","confid","","","html-slider-response","1369","971605","0.0-4.0-10.153-0.153","","","","Rate your confidence","1",""
"423.19999998807907","i","choice","right","i","experimental","1376","973803","0.0-4.0-8.154","true","155","2.8499999999999996","","",""
"2592.0999999940395","5","confid","","","html-slider-response","1378","976899","0.0-4.0-10.154-0.154","","","","Rate your confidence","1",""
"448.90000000596046","e","choice","left","e","experimental","1385","979137","0.0-4.0-8.155","true","156","2.8499999999999996","","",""
"3618.0999999940395","6","confid","","","html-slider-response","1387","983259","0.0-4.0-10.155-0.155","","","","Rate your confidence","1",""
"722.9000000059605","i","choice","left","e","experimental","1394","985774","0.0-4.0-8.156","false","157","2.7499999999999996","","",""
"2325.9000000059605","4","confid","","","html-slider-response","1396","988602","0.0-4.0-10.156-0.156","","","","Rate your confidence","1",""
"496.09999999403954","i","choice","right","i","experimental","1403","990881","0.0-4.0-8.157","true","158","2.8499999999999996","","",""
"2429.9000000059605","4","confid","","","html-slider-response","1405","993815","0.0-4.0-10.157-0.157","","","","Rate your confidence","1",""
"469.59999999403954","e","choice","right","i","experimental","1412","996075","0.0-4.0-8.158","false","159","2.8499999999999996","","",""
"2453.7999999821186","4","confid","","","html-slider-response","1414","999034","0.0-4.0-10.158-0.158","","","","Rate your confidence","1",""
"637.2000000178814","e","choice","left","e","experimental","1421","1001447","0.0-4.0-8.159","true","160","2.9499999999999997","","",""
"3783.699999988079","3","confid","","","html-slider-response","1423","1005733","0.0-4.0-10.159-0.159","","","","Rate your confidence","1",""
"440.59999999403954","i","choice","left","e","experimental","1430","1007975","0.0-4.0-8.160","false","161","2.9499999999999997","","",""
"2370.7000000178814","5","confid","","","html-slider-response","1432","1010848","0.0-4.0-10.160-0.160","","","","Rate your confidence","1",""
"502.7000000178814","e","choice","right","i","experimental","1439","1013148","0.0-4.0-8.161","false","162","3.05","","",""
"2010.7999999821186","4","confid","","","html-slider-response","1441","1015662","0.0-4.0-10.161-0.161","","","","Rate your confidence","1",""
"320.30000001192093","i","choice","left","e","experimental","1448","1017762","0.0-4.0-8.162","false","163","3.15","","",""
"1456.9000000059605","4","confid","","","html-slider-response","1450","1019723","0.0-4.0-10.162-0.162","","","","Rate your confidence","1",""
"483.40000000596046","i","choice","right","i","experimental","1457","1021987","0.0-4.0-8.163","true","164","3.25","","",""
"1978","5","confid","","","html-slider-response","1459","1024470","0.0-4.0-10.163-0.163","","","","Rate your confidence","1",""
"717.6999999880791","i","choice","right","i","experimental","1466","1026964","0.0-4.0-8.164","true","165","3.25","","",""
"6927","5","confid","","","html-slider-response","1468","1034394","0.0-4.0-10.164-0.164","","","","Rate your confidence","1",""
"820.0999999940395","e","choice","left","e","experimental","1475","1037004","0.0-4.0-8.165","true","166","3.15","","",""
"2294.5","2","confid","","","html-slider-response","1477","1039817","0.0-4.0-10.165-0.165","","","","Rate your confidence","1",""
"505.7000000178814","i","choice","right","i","experimental","1484","1042098","0.0-4.0-8.166","true","167","3.15","","",""
"1913.0999999940395","5","confid","","","html-slider-response","1486","1044514","0.0-4.0-10.166-0.166","","","","Rate your confidence","1",""
"493.69999998807907","e","choice","left","e","experimental","1493","1046796","0.0-4.0-8.167","true","168","3.05","","",""
"1448.5","3","confid","","","html-slider-response","1495","1048748","0.0-4.0-10.167-0.167","","","","Rate your confidence","1",""
"947.5999999940395","i","choice","left","e","experimental","1502","1051479","0.0-4.0-8.168","false","169","3.05","","",""
"2165.0999999940395","4","confid","","","html-slider-response","1504","1054147","0.0-4.0-10.168-0.168","","","","Rate your confidence","1",""
"575.1999999880791","e","choice","right","i","experimental","1511","1056497","0.0-4.0-8.169","false","170","3.15","","",""
"1968.7999999821186","4","confid","","","html-slider-response","1513","1058979","0.0-4.0-10.169-0.169","","","","Rate your confidence","1",""
"327.30000001192093","i","choice","right","i","experimental","1520","1061080","0.0-4.0-8.170","true","171","3.25","","",""
"1754.800000011921","6","confid","","","html-slider-response","1522","1063339","0.0-4.0-10.170-0.170","","","","Rate your confidence","1",""
"448.10000002384186","e","choice","left","e","experimental","1529","1065574","0.0-4.0-8.171","true","172","3.25","","",""
"1774.5","6","confid","","","html-slider-response","1531","1067853","0.0-4.0-10.171-0.171","","","","Rate your confidence","1",""
"531.5","i","choice","right","i","experimental","1538","1070176","0.0-4.0-8.172","true","173","3.15","","",""
"4007.0999999940395","6","confid","","","html-slider-response","1540","1074687","0.0-4.0-10.172-0.172","","","","Rate your confidence","1",""
"399.59999999403954","e","choice","left","e","experimental","1547","1076864","0.0-4.0-8.173","true","174","3.15","","",""
"2442.300000011921","5","confid","","","html-slider-response","1549","1079819","0.0-4.0-10.173-0.173","","","","Rate your confidence","1",""
"410.7000000178814","i","choice","left","e","experimental","1556","1082002","0.0-4.0-8.174","false","175","3.05","","",""
"3649.800000011921","3","confid","","","html-slider-response","1558","1086156","0.0-4.0-10.174-0.174","","","","Rate your confidence","1",""
"425.40000000596046","i","choice","right","i","experimental","1565","1088369","0.0-4.0-8.175","true","176","3.15","","",""
"1733.0999999940395","4","confid","","","html-slider-response","1567","1090607","0.0-4.0-10.175-0.175","","","","Rate your confidence","1",""
"618.1000000238419","i","choice","right","i","experimental","1574","1093008","0.0-4.0-8.176","true","177","3.15","","",""
"1678.9000000059605","3","confid","","","html-slider-response","1576","1095189","0.0-4.0-10.176-0.176","","","","Rate your confidence","1",""
"282.2000000178814","e","choice","left","e","experimental","1583","1097255","0.0-4.0-8.177","true","178","3.05","","",""
"4029.7000000178814","5","confid","","","html-slider-response","1585","1101797","0.0-4.0-10.177-0.177","","","","Rate your confidence","1",""
"475.59999999403954","e","choice","left","e","experimental","1592","1104053","0.0-4.0-8.178","true","179","3.05","","",""
"2310.0999999940395","5","confid","","","html-slider-response","1594","1106867","0.0-4.0-10.178-0.178","","","","Rate your confidence","1",""
"201.09999999403954","i","choice","right","i","experimental","1601","1108845","0.0-4.0-8.179","true","180","2.9499999999999997","","",""
"1752.2000000178814","5","confid","","","html-slider-response","1603","1111101","0.0-4.0-10.179-0.179","","","","Rate your confidence","1",""
"325.7999999821186","e","choice","left","e","experimental","1610","1113204","0.0-4.0-8.180","true","181","2.9499999999999997","","",""
"3067.7999999821186","6","confid","","","html-slider-response","1612","1116776","0.0-4.0-10.180-0.180","","","","Rate your confidence","1",""
"184.90000000596046","i","choice","right","i","experimental","1619","1118747","0.0-4.0-8.181","true","182","2.8499999999999996","","",""
"4174.5","3","confid","","","html-slider-response","1621","1123431","0.0-4.0-10.181-0.181","","","","Rate your confidence","1",""
"250.39999997615814","e","choice","left","e","experimental","1628","1125459","0.0-4.0-8.182","true","183","2.8499999999999996","","",""
"2589.2999999821186","6","confid","","","html-slider-response","1630","1128551","0.0-4.0-10.182-0.182","","","","Rate your confidence","1",""
"194.5","i","choice","right","i","experimental","1637","1130523","0.0-4.0-8.183","true","184","2.7499999999999996","","",""
"2039.7000000178814","5","confid","","","html-slider-response","1639","1133068","0.0-4.0-10.183-0.183","","","","Rate your confidence","1",""
"609.2999999821186","i","choice","right","i","experimental","1646","1135461","0.0-4.0-8.184","true","185","2.7499999999999996","","",""
"2487","6","confid","","","html-slider-response","1648","1138452","0.0-4.0-10.184-0.184","","","","Rate your confidence","1",""
"588.9000000059605","e","choice","left","e","experimental","1655","1140828","0.0-4.0-8.185","true","186","2.6499999999999995","","",""
"2118.4000000059605","4","confid","","","html-slider-response","1657","1143450","0.0-4.0-10.185-0.185","","","","Rate your confidence","1",""
"809.5","i","choice","right","i","experimental","1664","1146040","0.0-4.0-8.186","true","187","2.6499999999999995","","",""
"2674.2999999821186","5","confid","","","html-slider-response","1666","1149218","0.0-4.0-10.186-0.186","","","","Rate your confidence","1",""
"446.59999999403954","e","choice","left","e","experimental","1673","1151439","0.0-4.0-8.187","true","188","2.5499999999999994","","",""
"2555.0999999940395","4","confid","","","html-slider-response","1675","1154499","0.0-4.0-10.187-0.187","","","","Rate your confidence","1",""
"533.1999999880791","e","choice","right","i","experimental","1682","1156812","0.0-4.0-8.188","false","189","2.5499999999999994","","",""
"2019.0999999940395","5","confid","","","html-slider-response","1684","1159334","0.0-4.0-10.188-0.188","","","","Rate your confidence","1",""
"562.7000000178814","e","choice","left","e","experimental","1691","1161670","0.0-4.0-8.189","true","190","2.6499999999999995","","",""
"2514.5999999940395","5","confid","","","html-slider-response","1693","1164688","0.0-4.0-10.189-0.189","","","","Rate your confidence","1",""
"232.69999998807907","i","choice","right","i","experimental","1700","1166699","0.0-4.0-8.190","true","191","2.6499999999999995","","",""
"1890.0999999940395","6","confid","","","html-slider-response","1702","1169093","0.0-4.0-10.190-0.190","","","","Rate your confidence","1",""
"223.5","e","choice","left","e","experimental","1709","1171098","0.0-4.0-8.191","true","192","2.5499999999999994","","",""
"1691.5999999940395","6","confid","","","html-slider-response","1711","1173292","0.0-4.0-10.191-0.191","","","","Rate your confidence","1",""
"215.10000002384186","i","choice","right","i","experimental","1718","1175286","0.0-4.0-8.192","true","193","2.5499999999999994","","",""
"2101.800000011921","5","confid","","","html-slider-response","1720","1177893","0.0-4.0-10.192-0.192","","","","Rate your confidence","1",""
"946.9000000059605","e","choice","left","e","experimental","1727","1180620","0.0-4.0-8.193","true","194","2.4499999999999993","","",""
"2577.2999999821186","3","confid","","","html-slider-response","1729","1183701","0.0-4.0-10.193-0.193","","","","Rate your confidence","1","69713"
