"rt","response","task","target_side","correct_response","trial_type","trial_index","time_elapsed","internal_node_id","correct","trial_number","n_dots","stimulus","slider_start","participant"
"475.29999999701977","e","choice","left","e","practice","10","166429","0.0-4.0-8.0","true","1","4.25","","",""
"269.19999999925494","i","choice","right","i","practice","18","168997","0.0-4.0-8.1","true","2","4.25","","",""
"244.89999999850988","e","choice","left","e","practice","26","171538","0.0-4.0-8.2","true","3","3.85","","",""
"334.4000000022352","e","choice","right","i","practice","34","174164","0.0-4.0-8.3","false","4","3.85","","",""
"46.100000001490116","i","choice","right","i","practice","42","176507","0.0-4.0-8.4","true","5","4.25","","",""
"184.19999999925494","e","choice","left","e","practice","50","178991","0.0-4.0-8.5","true","6","4.25","","",""
"112.19999999925494","e","choice","left","e","practice","58","181394","0.0-4.0-8.6","true","7","4.05","","",""
"139.30000000074506","i","choice","right","i","practice","66","183821","0.0-4.0-8.7","true","8","4.05","","",""
"209.90000000223517","i","choice","right","i","practice","74","186333","0.0-4.0-8.8","true","9","3.8499999999999996","","",""
"278.30000000074506","e","choice","left","e","practice","82","188913","0.0-4.0-8.9","true","10","3.8499999999999996","","",""
"20","e","choice","left","e","practice","90","191228","0.0-4.0-8.10","true","11","3.6499999999999995","","",""
"183.09999999776483","i","choice","right","i","practice","98","193704","0.0-4.0-8.11","true","12","3.6499999999999995","","",""
"419.69999999925494","e","choice","left","e","practice","106","196416","0.0-4.0-8.12","true","13","3.5499999999999994","","",""
"96.80000000074506","i","choice","right","i","practice","114","198807","0.0-4.0-8.13","true","14","3.5499999999999994","","",""
"50.900000002235174","e","choice","left","e","practice","122","201155","0.0-4.0-8.14","true","15","3.4499999999999993","","",""
"277.69999999925494","e","choice","right","i","practice","130","203735","0.0-4.0-8.15","false","16","3.4499999999999993","","",""
"366.3999999985099","e","choice","left","e","practice","138","206405","0.0-4.0-8.16","true","17","3.5499999999999994","","",""
"487.20000000298023","e","choice","right","i","practice","146","209181","0.0-4.0-8.17","false","18","3.5499999999999994","","",""
"175.39999999850988","e","choice","right","i","practice","154","211660","0.0-4.0-8.18","false","19","3.6499999999999995","","",""
"353.80000000074506","e","choice","left","e","practice","162","214317","0.0-4.0-8.19","true","20","3.7499999999999996","","",""
"351.19999999925494","e","choice","right","i","practice","170","216970","0.0-4.0-8.20","false","21","3.7499999999999996","","",""
"330.19999999925494","e","choice","left","e","practice","178","219600","0.0-4.0-8.21","true","22","3.8499999999999996","","",""
"316.9000000022352","e","choice","left","e","practice","186","222216","0.0-4.0-8.22","true","23","3.8499999999999996","","",""
"111.69999999925494","e","choice","right","i","practice","194","224629","0.0-4.0-8.23","false","24","3.7499999999999996","","",""
"418.3999999985099","i","choice","right","i","practice","202","227350","0.0-4.0-8.24","true","25","3.8499999999999996","","",""
"19.900000002235174","e","choice","left","e","practice","210","229678","0.0-4.0-8.25","true","26","3.8499999999999996","","",""
"1924.1000000014901","i","choice","right","i","experimental","221","396173","0.0-4.0-8.26","true","27","3.7499999999999996","","",""
"11393.199999999255","3","confid","","","html-slider-response","223","408070","0.0-4.0-10.26-0.26","","","","Rate your confidence","1",""
"271.19999999925494","e","choice","left","e","experimental","230","410141","0.0-4.0-8.27","true","28","3.7499999999999996","","",""
"3062.699999999255","4","confid","","","html-slider-response","232","413708","0.0-4.0-10.27-0.27","","","","Rate your confidence","1",""
"6369.70000000298","i","choice","left","e","experimental","239","421862","0.0-4.0-8.28","false","29","3.6499999999999995","","",""
"65483.900000002235","2","confid","","","html-slider-response","241","487849","0.0-4.0-10.28-0.28","","","","Rate your confidence","1",""
"293.6000000014901","i","choice","right","i","experimental","248","489929","0.0-4.0-8.29","true","30","3.7499999999999996","","",""
"2973.89999999851","3","confid","","","html-slider-response","250","493408","0.0-4.0-10.29-0.29","","","","Rate your confidence","1",""
"250.60000000149012","e","choice","left","e","experimental","257","495448","0.0-4.0-8.30","true","31","3.7499999999999996","","",""
"4377.800000000745","3","confid","","","html-slider-response","259","500329","0.0-4.0-10.30-0.30","","","","Rate your confidence","1",""
"330","i","choice","right","i","experimental","266","502458","0.0-4.0-8.31","true","32","3.6499999999999995","","",""
"3797","4","confid","","","html-slider-response","268","506759","0.0-4.0-10.31-0.31","","","","Rate your confidence","1",""
"966.7000000029802","e","choice","left","e","experimental","275","509524","0.0-4.0-8.32","true","33","3.6499999999999995","","",""
"2210.5","5","confid","","","html-slider-response","277","512239","0.0-4.0-10.32-0.32","","","","Rate your confidence","1",""
"345.20000000298023","i","choice","right","i","experimental","284","514379","0.0-4.0-8.33","true","34","3.5499999999999994","","",""
"3038.099999997765","4","confid","","","html-slider-response","286","517922","0.0-4.0-10.33-0.33","","","","Rate your confidence","1",""
"1399.2000000029802","e","choice","left","e","experimental","293","521114","0.0-4.0-8.34","true","35","3.5499999999999994","","",""
"3092","4","confid","","","html-slider-response","295","524710","0.0-4.0-10.34-0.34","","","","Rate your confidence","1",""
"1733.300000000745","e","choice","right","i","experimental","302","528237","0.0-4.0-8.35","false","36","3.4499999999999993","","",""
"4685","3","confid","","","html-slider-response","304","533427","0.0-4.0-10.35-0.35","","","","Rate your confidence","1",""
"883.6999999992549","e","choice","right","i","experimental","311","536109","0.0-4.0-8.36","false","37","3.5499999999999994","","",""
"2629.199999999255","3","confid","","","html-slider-response","313","539244","0.0-4.0-10.36-0.36","","","","Rate your confidence","1",""
"1386.199999999255","e","choice","left","e","experimental","320","542415","0.0-4.0-8.37","true","38","3.6499999999999995","","",""
"3559.10000000149","3","confid","","","html-slider-response","322","546477","0.0-4.0-10.37-0.37","","","","Rate your confidence","1",""
"3914.699999999255","e","choice","right","i","experimental","329","552186","0.0-4.0-8.38","false","39","3.6499999999999995","","",""
"3695.400000002235","2","confid","","","html-slider-response","331","556387","0.0-4.0-10.38-0.38","","","","Rate your confidence","1",""
"757.3000000007451","e","choice","left","e","experimental","338","558938","0.0-4.0-8.39","true","40","3.7499999999999996","","",""
"2344.5","5","confid","","","html-slider-response","340","561786","0.0-4.0-10.39-0.39","","","","Rate your confidence","1",""
"325.5","e","choice","left","e","experimental","347","563916","0.0-4.0-8.40","true","41","3.7499999999999996","","",""
"2409","5","confid","","","html-slider-response","349","566829","0.0-4.0-10.40-0.40","","","","Rate your confidence","1",""
"1665.199999999255","i","choice","right","i","experimental","356","570300","0.0-4.0-8.41","true","42","3.6499999999999995","","",""
"4015.699999999255","3","confid","","","html-slider-response","358","574821","0.0-4.0-10.41-0.41","","","","Rate your confidence","1",""
"1074.699999999255","i","choice","right","i","experimental","365","577690","0.0-4.0-8.42","true","43","3.6499999999999995","","",""
"3514.900000002235","4","confid","","","html-slider-response","367","581708","0.0-4.0-10.42-0.42","","","","Rate your confidence","1",""
"1917.3999999985099","e","choice","left","e","experimental","374","585406","0.0-4.0-8.43","true","44","3.5499999999999994","","",""
"5738.89999999851","2","confid","","","html-slider-response","376","591647","0.0-4.0-10.43-0.43","","","","Rate your confidence","1",""
"1715.4000000022352","e","choice","right","i","experimental","383","595135","0.0-4.0-8.44","false","45","3.5499999999999994","","",""
"4403.5","4","confid","","","html-slider-response","385","600042","0.0-4.0-10.44-0.44","","","","Rate your confidence","1",""
"1085.300000000745","e","choice","left","e","experimental","392","602931","0.0-4.0-8.45","true","46","3.6499999999999995","","",""
"2056.800000000745","4","confid","","","html-slider-response","394","605492","0.0-4.0-10.45-0.45","","","","Rate your confidence","1",""
"1222.199999999255","i","choice","right","i","experimental","401","608505","0.0-4.0-8.46","true","47","3.6499999999999995","","",""
"3108.300000000745","5","confid","","","html-slider-response","403","612117","0.0-4.0-10.46-0.46","","","","Rate your confidence","1",""
"1035","e","choice","left","e","experimental","410","614942","0.0-4.0-8.47","true","48","3.5499999999999994","","",""
"6085.900000002235","6","confid","","","html-slider-response","412","621531","0.0-4.0-10.47-0.47","","","","Rate your confidence","1",""
"1205.800000000745","e","choice","left","e","experimental","419","624539","0.0-4.0-8.48","true","49","3.5499999999999994","","",""
"4892.5","5","confid","","","html-slider-response","421","629937","0.0-4.0-10.48-0.48","","","","Rate your confidence","1",""
"1348.8999999985099","i","choice","right","i","experimental","428","633083","0.0-4.0-8.49","true","50","3.4499999999999993","","",""
"2412","4","confid","","","html-slider-response","430","636000","0.0-4.0-10.49-0.49","","","","Rate your confidence","1",""
"1098.199999999255","i","choice","right","i","experimental","437","638890","0.0-4.0-8.50","true","51","3.4499999999999993","","",""
"2236.300000000745","4","confid","","","html-slider-response","439","641633","0.0-4.0-10.50-0.50","","","","Rate your confidence","1",""
"935.6000000014901","e","choice","left","e","experimental","446","644360","0.0-4.0-8.51","true","52","3.349999999999999","","",""
"1716.4000000022352","4","confid","","","html-slider-response","448","646580","0.0-4.0-10.51-0.51","","","","Rate your confidence","1",""
"1841.5999999977648","e","choice","left","e","experimental","455","650215","0.0-4.0-8.52","true","53","3.349999999999999","","",""
"2735.699999999255","5","confid","","","html-slider-response","457","653454","0.0-4.0-10.52-0.52","","","","Rate your confidence","1",""
"1774.5999999977648","e","choice","right","i","experimental","464","657012","0.0-4.0-8.53","false","54","3.249999999999999","","",""
"2584.800000000745","4","confid","","","html-slider-response","466","660101","0.0-4.0-10.53-0.53","","","","Rate your confidence","1",""
"787.8999999985099","e","choice","left","e","experimental","473","662686","0.0-4.0-8.54","true","55","3.349999999999999","","",""
"4259.699999999255","5","confid","","","html-slider-response","475","667453","0.0-4.0-10.54-0.54","","","","Rate your confidence","1",""
"1617.0999999977648","e","choice","right","i","experimental","482","670854","0.0-4.0-8.55","false","56","3.349999999999999","","",""
"2869.199999999255","1","confid","","","html-slider-response","484","674227","0.0-4.0-10.55-0.55","","","","Rate your confidence","1",""
"1239.6000000014901","e","choice","left","e","experimental","491","677265","0.0-4.0-8.56","true","57","3.4499999999999993","","",""
"1639.2000000029802","3","confid","","","html-slider-response","493","679408","0.0-4.0-10.56-0.56","","","","Rate your confidence","1",""
"747.4000000022352","i","choice","right","i","experimental","500","681947","0.0-4.0-8.57","true","58","3.4499999999999993","","",""
"46848.300000000745","3","confid","","","html-slider-response","502","729309","0.0-4.0-10.57-0.57","","","","Rate your confidence","1",""
"305.9000000022352","e","choice","left","e","experimental","509","731403","0.0-4.0-8.58","true","59","3.349999999999999","","",""
"3045","5","confid","","","html-slider-response","511","734953","0.0-4.0-10.58-0.58","","","","Rate your confidence","1",""
"559.1999999992549","e","choice","right","i","experimental","518","737314","0.0-4.0-8.59","false","60","3.349999999999999","","",""
"2190.2000000029802","4","confid","","","html-slider-response","520","740008","0.0-4.0-10.59-0.59","","","","Rate your confidence","1",""
"720.0999999977648","i","choice","right","i","experimental","527","742526","0.0-4.0-8.60","true","61","3.4499999999999993","","",""
"4461.60000000149","3","confid","","","html-slider-response","529","747493","0.0-4.0-10.60-0.60","","","","Rate your confidence","1",""
"376","e","choice","left","e","experimental","536","749659","0.0-4.0-8.61","true","62","3.4499999999999993","","",""
"3701.5","4","confid","","","html-slider-response","538","753864","0.0-4.0-10.61-0.61","","","","Rate your confidence","1",""
"1202.0999999977648","e","choice","left","e","experimental","545","756864","0.0-4.0-8.62","true","63","3.349999999999999","","",""
"3625.199999999255","4","confid","","","html-slider-response","547","760993","0.0-4.0-10.62-0.62","","","","Rate your confidence","1",""
"1102.4000000022352","i","choice","right","i","experimental","554","763903","0.0-4.0-8.63","true","64","3.349999999999999","","",""
"4584.099999997765","3","confid","","","html-slider-response","556","768991","0.0-4.0-10.63-0.63","","","","Rate your confidence","1",""
"603.7999999970198","e","choice","right","i","experimental","563","771392","0.0-4.0-8.64","false","65","3.249999999999999","","",""
"16190.5","4","confid","","","html-slider-response","565","788087","0.0-4.0-10.64-0.64","","","","Rate your confidence","1",""
"363.19999999925494","e","choice","left","e","experimental","572","790253","0.0-4.0-8.65","true","66","3.349999999999999","","",""
"2376.199999999255","4","confid","","","html-slider-response","574","793134","0.0-4.0-10.65-0.65","","","","Rate your confidence","1",""
"1919.8999999985099","e","choice","right","i","experimental","581","796849","0.0-4.0-8.66","false","67","3.349999999999999","","",""
"2420.10000000149","4","confid","","","html-slider-response","583","799776","0.0-4.0-10.66-0.66","","","","Rate your confidence","1",""
"106.5","e","choice","left","e","experimental","590","801679","0.0-4.0-8.67","true","68","3.4499999999999993","","",""
"3564.5","4","confid","","","html-slider-response","592","805747","0.0-4.0-10.67-0.67","","","","Rate your confidence","1",""
"299.69999999925494","e","choice","left","e","experimental","600","826488","0.0-4.0-8.68","true","69","3.4499999999999993","","",""
"4987.300000000745","4","confid","","","html-slider-response","602","831978","0.0-4.0-10.68-0.68","","","","Rate your confidence","1",""
"218.80000000074506","i","choice","right","i","experimental","609","833991","0.0-4.0-8.69","true","70","3.349999999999999","","",""
"3417.89999999851","5","confid","","","html-slider-response","611","837912","0.0-4.0-10.69-0.69","","","","Rate your confidence","1",""
"128","e","choice","left","e","experimental","618","839835","0.0-4.0-8.70","true","71","3.349999999999999","","",""
"2699","4","confid","","","html-slider-response","620","843039","0.0-4.0-10.70-0.70","","","","Rate your confidence","1",""
"438.5","e","choice","right","i","experimental","627","845266","0.0-4.0-8.71","false","72","3.249999999999999","","",""
"6380.199999999255","3","confid","","","html-slider-response","629","852150","0.0-4.0-10.71-0.71","","","","Rate your confidence","1",""
"165.60000000149012","e","choice","left","e","experimental","636","854118","0.0-4.0-8.72","true","73","3.349999999999999","","",""
"2538.099999997765","3","confid","","","html-slider-response","638","857159","0.0-4.0-10.72-0.72","","","","Rate your confidence","1",""
"314.0999999977648","i","choice","right","i","experimental","645","859275","0.0-4.0-8.73","true","74","3.349999999999999","","",""
"1648.0999999977648","3","confid","","","html-slider-response","647","861429","0.0-4.0-10.73-0.73","","","","Rate your confidence","1",""
"326.69999999925494","e","choice","left","e","experimental","654","863554","0.0-4.0-8.74","true","75","3.249999999999999","","",""
"2919.099999997765","4","confid","","","html-slider-response","656","866976","0.0-4.0-10.74-0.74","","","","Rate your confidence","1",""
"980.2000000029802","e","choice","right","i","experimental","663","869748","0.0-4.0-8.75","false","76","3.249999999999999","","",""
"1977.5","3","confid","","","html-slider-response","665","872229","0.0-4.0-10.75-0.75","","","","Rate your confidence","1",""
"216","i","choice","right","i","experimental","672","874253","0.0-4.0-8.76","true","77","3.349999999999999","","",""
"2027","3","confid","","","html-slider-response","674","876783","0.0-4.0-10.76-0.76","","","","Rate your confidence","1",""
"255.10000000149012","e","choice","left","e","experimental","681","878836","0.0-4.0-8.77","true","78","3.349999999999999","","",""
"3986.7999999970198","5","confid","","","html-slider-response","683","883327","0.0-4.0-10.77-0.77","","","","Rate your confidence","1",""
"286.69999999925494","e","choice","left","e","experimental","690","885412","0.0-4.0-8.78","true","79","3.249999999999999","","",""
"2963.699999999255","5","confid","","","html-slider-response","692","888880","0.0-4.0-10.78-0.78","","","","Rate your confidence","1",""
"500.3999999985099","e","choice","right","i","experimental","699","891175","0.0-4.0-8.79","false","80","3.249999999999999","","",""
"5122.10000000149","4","confid","","","html-slider-response","701","896802","0.0-4.0-10.79-0.79","","","","Rate your confidence","1",""
"31.099999997764826","i","choice","right","i","experimental","708","898628","0.0-4.0-8.80","true","81","3.349999999999999","","",""
"3601.39999999851","6","confid","","","html-slider-response","710","902736","0.0-4.0-10.80-0.80","","","","Rate your confidence","1",""
"401.30000000074506","e","choice","left","e","experimental","717","904929","0.0-4.0-8.81","true","82","3.349999999999999","","",""
"4195.800000000745","5","confid","","","html-slider-response","719","909629","0.0-4.0-10.81-0.81","","","","Rate your confidence","1",""
"45.600000001490116","e","choice","left","e","experimental","726","911480","0.0-4.0-8.82","true","83","3.249999999999999","","",""
"3358.800000000745","5","confid","","","html-slider-response","728","915342","0.0-4.0-10.82-0.82","","","","Rate your confidence","1",""
"123.30000000074506","i","choice","right","i","experimental","735","917253","0.0-4.0-8.83","true","84","3.249999999999999","","",""
"4615","6","confid","","","html-slider-response","737","922381","0.0-4.0-10.83-0.83","","","","Rate your confidence","1",""
"703.6000000014901","e","choice","left","e","experimental","744","924876","0.0-4.0-8.84","true","85","3.149999999999999","","",""
"2237.60000000149","4","confid","","","html-slider-response","746","927617","0.0-4.0-10.84-0.84","","","","Rate your confidence","1",""
"346.69999999925494","e","choice","right","i","experimental","753","929760","0.0-4.0-8.85","false","86","3.149999999999999","","",""
"3121.5","2","confid","","","html-slider-response","755","933386","0.0-4.0-10.85-0.85","","","","Rate your confidence","1",""
"429.80000000074506","e","choice","left","e","experimental","762","935613","0.0-4.0-8.86","true","87","3.249999999999999","","",""
"8210.60000000149","4","confid","","","html-slider-response","764","944327","0.0-4.0-10.86-0.86","","","","Rate your confidence","1",""
"491.19999999925494","i","choice","right","i","experimental","771","946616","0.0-4.0-8.87","true","88","3.249999999999999","","",""
"5146.300000000745","4","confid","","","html-slider-response","773","952266","0.0-4.0-10.87-0.87","","","","Rate your confidence","1",""
"89.5","i","choice","right","i","experimental","780","954147","0.0-4.0-8.88","true","89","3.149999999999999","","",""
"3431.39999999851","3","confid","","","html-slider-response","782","958085","0.0-4.0-10.88-0.88","","","","Rate your confidence","1",""
"307.1000000014901","e","choice","left","e","experimental","789","960193","0.0-4.0-8.89","true","90","3.149999999999999","","",""
"2744.599999997765","4","confid","","","html-slider-response","791","963442","0.0-4.0-10.89-0.89","","","","Rate your confidence","1",""
"303.3999999985099","i","choice","right","i","experimental","798","965539","0.0-4.0-8.90","true","91","3.049999999999999","","",""
"2511.800000000745","4","confid","","","html-slider-response","800","968568","0.0-4.0-10.90-0.90","","","","Rate your confidence","1",""
"171.20000000298023","e","choice","left","e","experimental","807","970532","0.0-4.0-8.91","true","92","3.049999999999999","","",""
"2533","6","confid","","","html-slider-response","809","973569","0.0-4.0-10.91-0.91","","","","Rate your confidence","1",""
"470.1000000014901","i","choice","right","i","experimental","816","975843","0.0-4.0-8.92","true","93","2.949999999999999","","",""
"4742","6","confid","","","html-slider-response","818","981088","0.0-4.0-10.92-0.92","","","","Rate your confidence","1",""
"4.199999999254942","e","choice","left","e","experimental","825","982899","0.0-4.0-8.93","true","94","2.949999999999999","","",""
"2101.599999997765","5","confid","","","html-slider-response","827","985504","0.0-4.0-10.93-0.93","","","","Rate your confidence","1",""
"437.79999999701977","e","choice","right","i","experimental","834","987737","0.0-4.0-8.94","false","95","2.8499999999999988","","",""
"1832.6000000014901","4","confid","","","html-slider-response","836","990073","0.0-4.0-10.94-0.94","","","","Rate your confidence","1",""
"114.90000000223517","e","choice","left","e","experimental","843","991984","0.0-4.0-8.95","true","96","2.949999999999999","","",""
"3915.900000002235","5","confid","","","html-slider-response","845","996404","0.0-4.0-10.95-0.95","","","","Rate your confidence","1",""
"400.30000000074506","e","choice","left","e","experimental","852","998595","0.0-4.0-8.96","true","97","2.949999999999999","","",""
"2369.699999999255","3","confid","","","html-slider-response","854","1001468","0.0-4.0-10.96-0.96","","","","Rate your confidence","1",""
"280","i","choice","right","i","experimental","861","1003552","0.0-4.0-8.97","true","98","2.8499999999999988","","",""
"1969.5999999977648","3","confid","","","html-slider-response","863","1006026","0.0-4.0-10.97-0.97","","","","Rate your confidence","1",""
"249.80000000074506","i","choice","right","i","experimental","870","1008071","0.0-4.0-8.98","true","99","2.8499999999999988","","",""
"2623.5","3","confid","","","html-slider-response","872","1011198","0.0-4.0-10.98-0.98","","","","Rate your confidence","1",""
"41.70000000298023","i","choice","left","e","experimental","879","1013035","0.0-4.0-8.99","false","100","2.7499999999999987","","",""
"1899.800000000745","3","confid","","","html-slider-response","881","1015439","0.0-4.0-10.99-0.99","","","","Rate your confidence","1",""
"227.69999999925494","e","choice","left","e","experimental","888","1017469","0.0-4.0-8.100","true","101","2.8499999999999988","","",""
"2119.199999999255","5","confid","","","html-slider-response","890","1020094","0.0-4.0-10.100-0.100","","","","Rate your confidence","1",""
"82.5","i","choice","right","i","experimental","897","1021973","0.0-4.0-8.101","true","102","2.8499999999999988","","",""
"2288.39999999851","5","confid","","","html-slider-response","899","1024766","0.0-4.0-10.101-0.101","","","","Rate your confidence","1",""
"552.8000000007451","i","choice","right","i","experimental","906","1027123","0.0-4.0-8.102","true","103","2.7499999999999987","","",""
"1601.1000000014901","5","confid","","","html-slider-response","908","1029228","0.0-4.0-10.102-0.102","","","","Rate your confidence","1",""
"261.19999999925494","e","choice","left","e","experimental","915","1031297","0.0-4.0-8.103","true","104","2.7499999999999987","","",""
"2342.39999999851","5","confid","","","html-slider-response","917","1034143","0.0-4.0-10.103-0.103","","","","Rate your confidence","1",""
"94.10000000149012","e","choice","left","e","experimental","924","1036022","0.0-4.0-8.104","true","105","2.6499999999999986","","",""
"6770.300000000745","3","confid","","","html-slider-response","926","1043308","0.0-4.0-10.104-0.104","","","","Rate your confidence","1",""
"387.30000000074506","e","choice","right","i","experimental","933","1045493","0.0-4.0-8.105","false","106","2.6499999999999986","","",""
"1617.6000000014901","4","confid","","","html-slider-response","935","1047615","0.0-4.0-10.105-0.105","","","","Rate your confidence","1",""
"134.29999999701977","e","choice","left","e","experimental","942","1049549","0.0-4.0-8.106","true","107","2.7499999999999987","","",""
"1746.5","4","confid","","","html-slider-response","944","1051801","0.0-4.0-10.106-0.106","","","","Rate your confidence","1",""
"42.69999999925494","i","choice","right","i","experimental","951","1053644","0.0-4.0-8.107","true","108","2.7499999999999987","","",""
"1814.5","5","confid","","","html-slider-response","953","1055964","0.0-4.0-10.107-0.107","","","","Rate your confidence","1",""
"269.30000000074506","e","choice","left","e","experimental","960","1058036","0.0-4.0-8.108","true","109","2.6499999999999986","","",""
"2505.400000002235","3","confid","","","html-slider-response","962","1061045","0.0-4.0-10.108-0.108","","","","Rate your confidence","1",""
"310.8999999985099","i","choice","right","i","experimental","969","1063155","0.0-4.0-8.109","true","110","2.6499999999999986","","",""
"1703.1000000014901","4","confid","","","html-slider-response","971","1065362","0.0-4.0-10.109-0.109","","","","Rate your confidence","1",""
"505.6000000014901","i","choice","left","e","experimental","979","1111434","0.0-4.0-8.110","false","111","2.5499999999999985","","",""
"2199.900000002235","6","confid","","","html-slider-response","981","1114138","0.0-4.0-10.110-0.110","","","","Rate your confidence","1",""
"552.6000000014901","i","choice","right","i","experimental","988","1116499","0.0-4.0-8.111","true","112","2.6499999999999986","","",""
"2649.39999999851","6","confid","","","html-slider-response","990","1119653","0.0-4.0-10.111-0.111","","","","Rate your confidence","1",""
"376.4000000022352","i","choice","right","i","experimental","997","1121833","0.0-4.0-8.112","true","113","2.6499999999999986","","",""
"2368.099999997765","5","confid","","","html-slider-response","999","1124705","0.0-4.0-10.112-0.112","","","","Rate your confidence","1",""
"72.09999999776483","e","choice","left","e","experimental","1006","1126574","0.0-4.0-8.113","true","114","2.5499999999999985","","",""
"2924.2000000029802","5","confid","","","html-slider-response","1008","1130002","0.0-4.0-10.113-0.113","","","","Rate your confidence","1",""
"148.30000000074506","e","choice","left","e","experimental","1015","1131941","0.0-4.0-8.114","true","115","2.5499999999999985","","",""
"2463.800000000745","5","confid","","","html-slider-response","1017","1134909","0.0-4.0-10.114-0.114","","","","Rate your confidence","1",""
"411.3999999985099","i","choice","right","i","experimental","1024","1137115","0.0-4.0-8.115","true","116","2.4499999999999984","","",""
"1788.300000000745","5","confid","","","html-slider-response","1026","1139408","0.0-4.0-10.115-0.115","","","","Rate your confidence","1",""
"267.8999999985099","i","choice","left","e","experimental","1033","1141473","0.0-4.0-8.116","false","117","2.4499999999999984","","",""
"1464.800000000745","5","confid","","","html-slider-response","1035","1143442","0.0-4.0-10.116-0.116","","","","Rate your confidence","1",""
"41.899999998509884","e","choice","right","i","experimental","1042","1145289","0.0-4.0-8.117","false","118","2.5499999999999985","","",""
"2862.099999997765","5","confid","","","html-slider-response","1044","1148658","0.0-4.0-10.117-0.117","","","","Rate your confidence","1",""
"122.30000000074506","e","choice","left","e","experimental","1051","1150591","0.0-4.0-8.118","true","119","2.6499999999999986","","",""
"2161.7000000029802","5","confid","","","html-slider-response","1053","1153256","0.0-4.0-10.118-0.118","","","","Rate your confidence","1",""
"940.2000000029802","i","choice","right","i","experimental","1060","1155996","0.0-4.0-8.119","true","120","2.6499999999999986","","",""
"1649.3999999985099","5","confid","","","html-slider-response","1062","1158161","0.0-4.0-10.119-0.119","","","","Rate your confidence","1",""
"62.29999999701977","i","choice","right","i","experimental","1069","1160019","0.0-4.0-8.120","true","121","2.5499999999999985","","",""
"1851.7000000029802","5","confid","","","html-slider-response","1071","1162378","0.0-4.0-10.120-0.120","","","","Rate your confidence","1",""
"154.40000000223517","i","choice","left","e","experimental","1078","1164324","0.0-4.0-8.121","false","122","2.5499999999999985","","",""
"1464","4","confid","","","html-slider-response","1080","1166294","0.0-4.0-10.121-0.121","","","","Rate your confidence","1",""
"345.79999999701977","i","choice","right","i","experimental","1087","1168440","0.0-4.0-8.122","true","123","2.6499999999999986","","",""
"1644.2999999970198","4","confid","","","html-slider-response","1089","1170588","0.0-4.0-10.122-0.122","","","","Rate your confidence","1",""
"356.1000000014901","e","choice","left","e","experimental","1096","1172734","0.0-4.0-8.123","true","124","2.6499999999999986","","",""
"1943.9000000022352","5","confid","","","html-slider-response","1098","1175193","0.0-4.0-10.123-0.123","","","","Rate your confidence","1",""
"317","e","choice","left","e","experimental","1105","1177303","0.0-4.0-8.124","true","125","2.5499999999999985","","",""
"4775.699999999255","3","confid","","","html-slider-response","1107","1182582","0.0-4.0-10.124-0.124","","","","Rate your confidence","1",""
"864.3999999985099","e","choice","right","i","experimental","1114","1185247","0.0-4.0-8.125","false","126","2.5499999999999985","","",""
"20873.199999999255","3","confid","","","html-slider-response","1116","1206624","0.0-4.0-10.125-0.125","","","","Rate your confidence","1",""
"279.79999999701977","i","choice","left","e","experimental","1123","1208710","0.0-4.0-8.126","false","127","2.6499999999999986","","",""
"2332.7000000029802","3","confid","","","html-slider-response","1125","1211546","0.0-4.0-10.126-0.126","","","","Rate your confidence","1",""
"414.19999999925494","i","choice","right","i","experimental","1132","1213766","0.0-4.0-8.127","true","128","2.7499999999999987","","",""
"1488.5","3","confid","","","html-slider-response","1134","1215759","0.0-4.0-10.127-0.127","","","","Rate your confidence","1",""
"118.30000000074506","i","choice","right","i","experimental","1141","1217684","0.0-4.0-8.128","true","129","2.7499999999999987","","",""
"1545.300000000745","3","confid","","","html-slider-response","1143","1219733","0.0-4.0-10.128-0.128","","","","Rate your confidence","1",""
"134.5","e","choice","left","e","experimental","1150","1221658","0.0-4.0-8.129","true","130","2.6499999999999986","","",""
"2718.699999999255","4","confid","","","html-slider-response","1152","1224881","0.0-4.0-10.129-0.129","","","","Rate your confidence","1",""
"209","i","choice","right","i","experimental","1159","1226895","0.0-4.0-8.130","true","131","2.6499999999999986","","",""
"1896.7999999970198","4","confid","","","html-slider-response","1161","1229297","0.0-4.0-10.130-0.130","","","","Rate your confidence","1",""
"10.899999998509884","e","choice","left","e","experimental","1168","1231109","0.0-4.0-8.131","true","132","2.5499999999999985","","",""
"1777.300000000745","3","confid","","","html-slider-response","1170","1233390","0.0-4.0-10.131-0.131","","","","Rate your confidence","1",""
"34.19999999925494","i","choice","right","i","experimental","1177","1235227","0.0-4.0-8.132","true","133","2.5499999999999985","","",""
"2070.39999999851","3","confid","","","html-slider-response","1179","1237802","0.0-4.0-10.132-0.132","","","","Rate your confidence","1",""
"2.800000000745058","i","choice","left","e","experimental","1186","1239606","0.0-4.0-8.133","false","134","2.4499999999999984","","",""
"1909.800000000745","3","confid","","","html-slider-response","1188","1242019","0.0-4.0-10.133-0.133","","","","Rate your confidence","1",""
"49.100000001490116","i","choice","right","i","experimental","1195","1243863","0.0-4.0-8.134","true","135","2.5499999999999985","","",""
"2097.800000000745","3","confid","","","html-slider-response","1197","1246467","0.0-4.0-10.134-0.134","","","","Rate your confidence","1",""
"554.5999999977648","i","choice","left","e","experimental","1204","1248815","0.0-4.0-8.135","false","136","2.5499999999999985","","",""
"1397.2999999970198","3","confid","","","html-slider-response","1206","1250716","0.0-4.0-10.135-0.135","","","","Rate your confidence","1",""
"109.39999999850988","e","choice","left","e","experimental","1213","1252629","0.0-4.0-8.136","true","137","2.6499999999999986","","",""
"2490.39999999851","4","confid","","","html-slider-response","1215","1255624","0.0-4.0-10.136-0.136","","","","Rate your confidence","1",""
"138.40000000223517","i","choice","right","i","experimental","1222","1257565","0.0-4.0-8.137","true","138","2.6499999999999986","","",""
"3012.099999997765","4","confid","","","html-slider-response","1224","1261083","0.0-4.0-10.137-0.137","","","","Rate your confidence","1",""
"207.89999999850988","e","choice","left","e","experimental","1231","1263091","0.0-4.0-8.138","true","139","2.5499999999999985","","",""
"2474.199999999255","4","confid","","","html-slider-response","1233","1266069","0.0-4.0-10.138-0.138","","","","Rate your confidence","1",""
"91.30000000074506","i","choice","right","i","experimental","1240","1267952","0.0-4.0-8.139","true","140","2.5499999999999985","","",""
"1815.1000000014901","2","confid","","","html-slider-response","1242","1270272","0.0-4.0-10.139-0.139","","","","Rate your confidence","1",""
"289.19999999925494","i","choice","right","i","experimental","1249","1272360","0.0-4.0-8.140","true","141","2.4499999999999984","","",""
"1864.7000000029802","2","confid","","","html-slider-response","1251","1274730","0.0-4.0-10.140-0.140","","","","Rate your confidence","1",""
"396.29999999701977","e","choice","left","e","experimental","1258","1276921","0.0-4.0-8.141","true","142","2.4499999999999984","","",""
"1861.6000000014901","2","confid","","","html-slider-response","1260","1279287","0.0-4.0-10.141-0.141","","","","Rate your confidence","1",""
"265","i","choice","right","i","experimental","1267","1281355","0.0-4.0-8.142","true","143","2.3499999999999983","","",""
"1265.199999999255","2","confid","","","html-slider-response","1269","1283124","0.0-4.0-10.142-0.142","","","","Rate your confidence","1",""
"241.09999999776483","e","choice","left","e","experimental","1276","1285176","0.0-4.0-8.143","true","144","2.3499999999999983","","",""
"3909.5","2","confid","","","html-slider-response","1278","1289589","0.0-4.0-10.143-0.143","","","","Rate your confidence","1",""
"364.79999999701977","e","choice","left","e","experimental","1285","1291743","0.0-4.0-8.144","true","145","2.2499999999999982","","",""
"2916.199999999255","4","confid","","","html-slider-response","1287","1295163","0.0-4.0-10.144-0.144","","","","Rate your confidence","1",""
"182.89999999850988","i","choice","right","i","experimental","1294","1297141","0.0-4.0-8.145","true","146","2.2499999999999982","","",""
"2199.39999999851","3","confid","","","html-slider-response","1296","1299845","0.0-4.0-10.145-0.145","","","","Rate your confidence","1",""
"424.4000000022352","e","choice","left","e","experimental","1303","1302058","0.0-4.0-8.146","true","147","2.149999999999998","","",""
"1759.300000000745","2","confid","","","html-slider-response","1305","1304322","0.0-4.0-10.146-0.146","","","","Rate your confidence","1",""
"395.5","e","choice","right","i","experimental","1312","1306514","0.0-4.0-8.147","false","148","2.149999999999998","","",""
"1907.7999999970198","2","confid","","","html-slider-response","1314","1308926","0.0-4.0-10.147-0.147","","","","Rate your confidence","1",""
"193","i","choice","right","i","experimental","1321","1310919","0.0-4.0-8.148","true","149","2.2499999999999982","","",""
"2105.699999999255","4","confid","","","html-slider-response","1323","1313529","0.0-4.0-10.148-0.148","","","","Rate your confidence","1",""
"161","e","choice","left","e","experimental","1330","1315493","0.0-4.0-8.149","true","150","2.2499999999999982","","",""
"1523.9000000022352","3","confid","","","html-slider-response","1332","1317521","0.0-4.0-10.149-0.149","","","","Rate your confidence","1",""
"260.70000000298023","e","choice","right","i","experimental","1339","1319579","0.0-4.0-8.150","false","151","2.149999999999998","","",""
"3682","3","confid","","","html-slider-response","1341","1323766","0.0-4.0-10.150-0.150","","","","Rate your confidence","1",""
"339.3999999985099","e","choice","left","e","experimental","1348","1325901","0.0-4.0-8.151","true","152","2.2499999999999982","","",""
"2121.60000000149","5","confid","","","html-slider-response","1350","1328528","0.0-4.0-10.151-0.151","","","","Rate your confidence","1",""
"28.700000002980232","i","choice","left","e","experimental","1358","1350445","0.0-4.0-8.152","false","153","2.2499999999999982","","",""
"3713.199999999255","3","confid","","","html-slider-response","1360","1354662","0.0-4.0-10.152-0.152","","","","Rate your confidence","1",""
"792.1999999992549","i","choice","right","i","experimental","1367","1357256","0.0-4.0-8.153","true","154","2.3499999999999983","","",""
"1468.0999999977648","3","confid","","","html-slider-response","1369","1359228","0.0-4.0-10.153-0.153","","","","Rate your confidence","1",""
"416.8999999985099","i","choice","right","i","experimental","1376","1361445","0.0-4.0-8.154","true","155","2.3499999999999983","","",""
"2924.7999999970198","5","confid","","","html-slider-response","1378","1364875","0.0-4.0-10.154-0.154","","","","Rate your confidence","1",""
"27.300000000745058","i","choice","left","e","experimental","1385","1366696","0.0-4.0-8.155","false","156","2.2499999999999982","","",""
"2473.7000000029802","5","confid","","","html-slider-response","1387","1369684","0.0-4.0-10.155-0.155","","","","Rate your confidence","1",""
"434.6000000014901","e","choice","left","e","experimental","1394","1371912","0.0-4.0-8.156","true","157","2.3499999999999983","","",""
"2207","5","confid","","","html-slider-response","1396","1374624","0.0-4.0-10.156-0.156","","","","Rate your confidence","1",""
"99.80000000074506","i","choice","right","i","experimental","1403","1376526","0.0-4.0-8.157","true","158","2.3499999999999983","","",""
"2564.199999999255","5","confid","","","html-slider-response","1405","1379596","0.0-4.0-10.157-0.157","","","","Rate your confidence","1",""
"1018.1000000014901","e","choice","left","e","experimental","1412","1382415","0.0-4.0-8.158","true","159","2.2499999999999982","","",""
"1583.1000000014901","5","confid","","","html-slider-response","1414","1384502","0.0-4.0-10.158-0.158","","","","Rate your confidence","1",""
"73.80000000074506","i","choice","right","i","experimental","1421","1386372","0.0-4.0-8.159","true","160","2.2499999999999982","","",""
"2324.39999999851","5","confid","","","html-slider-response","1423","1389204","0.0-4.0-10.159-0.159","","","","Rate your confidence","1",""
"127.5","e","choice","left","e","experimental","1430","1391132","0.0-4.0-8.160","true","161","2.149999999999998","","",""
"2136.5","5","confid","","","html-slider-response","1432","1393773","0.0-4.0-10.160-0.160","","","","Rate your confidence","1",""
"448.6000000014901","e","choice","right","i","experimental","1439","1396016","0.0-4.0-8.161","false","162","2.149999999999998","","",""
"1947.5999999977648","4","confid","","","html-slider-response","1441","1398469","0.0-4.0-10.161-0.161","","","","Rate your confidence","1",""
"516.1000000014901","e","choice","left","e","experimental","1448","1400784","0.0-4.0-8.162","true","163","2.2499999999999982","","",""
"2292.2999999970198","4","confid","","","html-slider-response","1450","1403581","0.0-4.0-10.162-0.162","","","","Rate your confidence","1",""
"266.5","e","choice","right","i","experimental","1457","1405650","0.0-4.0-8.163","false","164","2.2499999999999982","","",""
"61916.400000002235","3","confid","","","html-slider-response","1459","1468070","0.0-4.0-10.163-0.163","","","","Rate your confidence","1",""
"400.19999999925494","i","choice","right","i","experimental","1466","1470275","0.0-4.0-8.164","true","165","2.3499999999999983","","",""
"1835.8999999985099","4","confid","","","html-slider-response","1468","1472615","0.0-4.0-10.164-0.164","","","","Rate your confidence","1",""
"562","i","choice","left","e","experimental","1475","1474976","0.0-4.0-8.165","false","166","2.3499999999999983","","",""
"1760.3999999985099","3","confid","","","html-slider-response","1477","1477240","0.0-4.0-10.165-0.165","","","","Rate your confidence","1",""
"284.5","e","choice","left","e","experimental","1484","1479328","0.0-4.0-8.166","true","167","2.4499999999999984","","",""
"2459.89999999851","3","confid","","","html-slider-response","1486","1482292","0.0-4.0-10.166-0.166","","","","Rate your confidence","1",""
"432.3999999985099","i","choice","right","i","experimental","1493","1484525","0.0-4.0-8.167","true","168","2.4499999999999984","","",""
"1495.199999999255","3","confid","","","html-slider-response","1495","1486524","0.0-4.0-10.167-0.167","","","","Rate your confidence","1",""
"317.8999999985099","e","choice","right","i","experimental","1502","1488651","0.0-4.0-8.168","false","169","2.3499999999999983","","",""
"1447.199999999255","3","confid","","","html-slider-response","1504","1490602","0.0-4.0-10.168-0.168","","","","Rate your confidence","1",""
"207.39999999850988","e","choice","left","e","experimental","1511","1492621","0.0-4.0-8.169","true","170","2.4499999999999984","","",""
"1531.2000000029802","2","confid","","","html-slider-response","1513","1494655","0.0-4.0-10.169-0.169","","","","Rate your confidence","1",""
"193","e","choice","right","i","experimental","1520","1496647","0.0-4.0-8.170","false","171","2.4499999999999984","","",""
"2497","2","confid","","","html-slider-response","1522","1499658","0.0-4.0-10.170-0.170","","","","Rate your confidence","1",""
"301.5999999977648","e","choice","left","e","experimental","1529","1501755","0.0-4.0-8.171","true","172","2.5499999999999985","","",""
"2656","2","confid","","","html-slider-response","1531","1504915","0.0-4.0-10.171-0.171","","","","Rate your confidence","1",""
"218.69999999925494","e","choice","right","i","experimental","1538","1506936","0.0-4.0-8.172","false","173","2.5499999999999985","","",""
"1985.3999999985099","3","confid","","","html-slider-response","1540","1509426","0.0-4.0-10.172-0.172","","","","Rate your confidence","1",""
"21.699999999254942","e","choice","left","e","experimental","1547","1511251","0.0-4.0-8.173","true","174","2.6499999999999986","","",""
"2000.300000000745","3","confid","","","html-slider-response","1549","1513755","0.0-4.0-10.173-0.173","","","","Rate your confidence","1",""
"1189.699999999255","e","choice","left","e","experimental","1556","1516748","0.0-4.0-8.174","true","175","2.6499999999999986","","",""
"6565.89999999851","3","confid","","","html-slider-response","1558","1523830","0.0-4.0-10.174-0.174","","","","Rate your confidence","1",""
"1219.1000000014901","i","choice","right","i","experimental","1565","1526842","0.0-4.0-8.175","true","176","2.5499999999999985","","",""
"8097.5","3","confid","","","html-slider-response","1567","1535444","0.0-4.0-10.175-0.175","","","","Rate your confidence","1",""
"471.80000000074506","i","choice","right","i","experimental","1574","1537718","0.0-4.0-8.176","true","177","2.5499999999999985","","",""
"17680.60000000149","3","confid","","","html-slider-response","1576","1555906","0.0-4.0-10.176-0.176","","","","Rate your confidence","1",""
"249.80000000074506","e","choice","left","e","experimental","1583","1557952","0.0-4.0-8.177","true","178","2.4499999999999984","","",""
"1711.5999999977648","3","confid","","","html-slider-response","1585","1560168","0.0-4.0-10.177-0.177","","","","Rate your confidence","1",""
"447.1000000014901","e","choice","left","e","experimental","1592","1562411","0.0-4.0-8.178","true","179","2.4499999999999984","","",""
"1588.199999999255","3","confid","","","html-slider-response","1594","1564502","0.0-4.0-10.178-0.178","","","","Rate your confidence","1",""
"5.599999997764826","i","choice","right","i","experimental","1601","1566307","0.0-4.0-8.179","true","180","2.3499999999999983","","",""
"2595.699999999255","5","confid","","","html-slider-response","1603","1569407","0.0-4.0-10.179-0.179","","","","Rate your confidence","1",""
"262.80000000074506","i","choice","right","i","experimental","1610","1571471","0.0-4.0-8.180","true","181","2.3499999999999983","","",""
"5100.89999999851","4","confid","","","html-slider-response","1612","1577079","0.0-4.0-10.180-0.180","","","","Rate your confidence","1",""
"71.59999999776483","i","choice","left","e","experimental","1619","1578947","0.0-4.0-8.181","false","182","2.2499999999999982","","",""
"1541.199999999255","4","confid","","","html-slider-response","1621","1580993","0.0-4.0-10.181-0.181","","","","Rate your confidence","1",""
"416.19999999925494","i","choice","right","i","experimental","1628","1583197","0.0-4.0-8.182","true","183","2.3499999999999983","","",""
"2154.2999999970198","5","confid","","","html-slider-response","1630","1585857","0.0-4.0-10.182-0.182","","","","Rate your confidence","1",""
"658.8000000007451","e","choice","left","e","experimental","1637","1588316","0.0-4.0-8.183","true","184","2.3499999999999983","","",""
"2159.39999999851","5","confid","","","html-slider-response","1639","1590981","0.0-4.0-10.183-0.183","","","","Rate your confidence","1",""
"385.1000000014901","e","choice","left","e","experimental","1646","1593159","0.0-4.0-8.184","true","185","2.2499999999999982","","",""
"2451","5","confid","","","html-slider-response","1648","1596114","0.0-4.0-10.184-0.184","","","","Rate your confidence","1",""
"77.30000000074506","e","choice","right","i","experimental","1655","1597998","0.0-4.0-8.185","false","186","2.2499999999999982","","",""
"2556.2999999970198","5","confid","","","html-slider-response","1657","1601058","0.0-4.0-10.185-0.185","","","","Rate your confidence","1",""
"361.8999999985099","e","choice","left","e","experimental","1664","1603212","0.0-4.0-8.186","true","187","2.3499999999999983","","",""
"1341.8999999985099","5","confid","","","html-slider-response","1666","1605058","0.0-4.0-10.186-0.186","","","","Rate your confidence","1",""
"355","i","choice","right","i","experimental","1673","1607213","0.0-4.0-8.187","true","188","2.3499999999999983","","",""
"9065.900000002235","5","confid","","","html-slider-response","1675","1616783","0.0-4.0-10.187-0.187","","","","Rate your confidence","1",""
"8.199999999254942","e","choice","left","e","experimental","1682","1618595","0.0-4.0-8.188","true","189","2.2499999999999982","","",""
"2498.300000000745","6","confid","","","html-slider-response","1684","1621597","0.0-4.0-10.188-0.188","","","","Rate your confidence","1",""
"229.69999999925494","e","choice","right","i","experimental","1691","1623638","0.0-4.0-8.189","false","190","2.2499999999999982","","",""
"2611.400000002235","6","confid","","","html-slider-response","1693","1626753","0.0-4.0-10.189-0.189","","","","Rate your confidence","1",""
"334.69999999925494","e","choice","left","e","experimental","1700","1628886","0.0-4.0-8.190","true","191","2.3499999999999983","","",""
"1666","5","confid","","","html-slider-response","1702","1631056","0.0-4.0-10.190-0.190","","","","Rate your confidence","1",""
"251.69999999925494","e","choice","right","i","experimental","1709","1633107","0.0-4.0-8.191","false","192","2.3499999999999983","","",""
"1993.699999999255","5","confid","","","html-slider-response","1711","1635604","0.0-4.0-10.191-0.191","","","","Rate your confidence","1",""
"75.80000000074506","e","choice","right","i","experimental","1718","1637484","0.0-4.0-8.192","false","193","2.4499999999999984","","",""
"1642.300000000745","5","confid","","","html-slider-response","1720","1639630","0.0-4.0-10.192-0.192","","","","Rate your confidence","1",""
"319.5999999977648","i","choice","left","e","experimental","1727","1641754","0.0-4.0-8.193","false","194","2.5499999999999985","","",""
"2648.800000000745","4","confid","","","html-slider-response","1729","1644907","0.0-4.0-10.193-0.193","","","","Rate your confidence","1","38684"
