"rt","response","task","target_side","correct_response","trial_type","trial_index","time_elapsed","internal_node_id","correct","trial_number","n_dots","stimulus","slider_start","participant"
"3332","e","choice","left","e","practice","10","2236004","0.0-4.0-8.0","true","1","4.25","","",""
"681","i","choice","right","i","practice","18","2238977","0.0-4.0-8.1","true","2","4.25","","",""
"726","e","choice","left","e","practice","26","2241995","0.0-4.0-8.2","true","3","3.85","","",""
"647.9999999995343","e","choice","right","i","practice","34","2244930","0.0-4.0-8.3","false","4","3.85","","",""
"413","e","choice","right","i","practice","42","2247630","0.0-4.0-8.4","false","5","4.25","","",""
"9","i","choice","left","e","practice","50","2249930","0.0-4.0-8.5","false","6","4.65","","",""
"89","e","choice","left","e","practice","58","2252311","0.0-4.0-8.6","true","7","4.8500000000000005","","",""
"209","i","choice","right","i","practice","66","2254814","0.0-4.0-8.7","true","8","4.8500000000000005","","",""
"1384.9999999995343","e","choice","right","i","practice","74","2258492","0.0-4.0-8.8","false","9","4.65","","",""
"1258","i","choice","left","e","practice","82","2262043","0.0-4.0-8.9","false","10","4.8500000000000005","","",""
"1084","e","choice","left","e","practice","90","2265421","0.0-4.0-8.10","true","11","5.050000000000001","","",""
"482","i","choice","right","i","practice","98","2268193","0.0-4.0-8.11","true","12","5.050000000000001","","",""
"691","i","choice","right","i","practice","106","2271177","0.0-4.0-8.12","true","13","4.950000000000001","","",""
"458","e","choice","left","e","practice","114","2273925","0.0-4.0-8.13","true","14","4.950000000000001","","",""
"587","e","choice","left","e","practice","122","2276804","0.0-4.0-8.14","true","15","4.850000000000001","","",""
"422","i","choice","right","i","practice","130","2279517","0.0-4.0-8.15","true","16","4.850000000000001","","",""
"454","e","choice","right","i","practice","138","2282262","0.0-4.0-8.16","false","17","4.750000000000002","","",""
"452","i","choice","left","e","practice","146","2285008","0.0-4.0-8.17","false","18","4.850000000000001","","",""
"583","e","choice","left","e","practice","154","2287882","0.0-4.0-8.18","true","19","4.950000000000001","","",""
"359","i","choice","right","i","practice","162","2290531","0.0-4.0-8.19","true","20","4.950000000000001","","",""
"485","i","choice","right","i","practice","170","2293308","0.0-4.0-8.20","true","21","4.850000000000001","","",""
"144","e","choice","left","e","practice","178","2295742","0.0-4.0-8.21","true","22","4.850000000000001","","",""
"476","e","choice","left","e","practice","186","2298507","0.0-4.0-8.22","true","23","4.750000000000002","","",""
"527.9999999995343","i","choice","right","i","practice","194","2301325","0.0-4.0-8.23","true","24","4.750000000000002","","",""
"941","i","choice","right","i","practice","202","2304560","0.0-4.0-8.24","true","25","4.650000000000002","","",""
"440.00000000046566","e","choice","left","e","practice","210","2307289","0.0-4.0-8.25","true","26","4.650000000000002","","",""
"779.9999999995343","e","choice","left","e","experimental","221","2374825","0.0-4.0-8.26","true","27","4.5500000000000025","","",""
"10000","1","confid","","","html-slider-response","223","2385331","0.0-4.0-10.26-0.26","","","","Rate your confidence","1",""
"565.0000000004657","i","choice","right","i","experimental","230","2387680","0.0-4.0-8.27","true","28","4.5500000000000025","","",""
"3746","2","confid","","","html-slider-response","232","2391935","0.0-4.0-10.27-0.27","","","","Rate your confidence","1",""
"415","e","choice","left","e","experimental","239","2394135","0.0-4.0-8.28","true","29","4.450000000000003","","",""
"10364.000000000466","2","confid","","","html-slider-response","241","2405006","0.0-4.0-10.28-0.28","","","","Rate your confidence","1",""
"638","i","choice","right","i","experimental","248","2407429","0.0-4.0-8.29","true","30","4.450000000000003","","",""
"3166.0000000004657","2","confid","","","html-slider-response","250","2411102","0.0-4.0-10.29-0.29","","","","Rate your confidence","1",""
"1319.9999999995343","e","choice","left","e","experimental","257","2414210","0.0-4.0-8.30","true","31","4.350000000000003","","",""
"4169","4","confid","","","html-slider-response","259","2418886","0.0-4.0-10.30-0.30","","","","Rate your confidence","1",""
"851","i","choice","right","i","experimental","266","2421523","0.0-4.0-8.31","true","32","4.350000000000003","","",""
"4472","2","confid","","","html-slider-response","268","2426501","0.0-4.0-10.31-0.31","","","","Rate your confidence","1",""
"609","i","choice","right","i","experimental","275","2428896","0.0-4.0-8.32","true","33","4.2500000000000036","","",""
"4301","2","confid","","","html-slider-response","277","2433703","0.0-4.0-10.32-0.32","","","","Rate your confidence","1",""
"973","e","choice","left","e","experimental","284","2436461","0.0-4.0-8.33","true","34","4.2500000000000036","","",""
"2733","2","confid","","","html-slider-response","286","2439701","0.0-4.0-10.33-0.33","","","","Rate your confidence","1",""
"370.00000000046566","e","choice","left","e","experimental","293","2441860","0.0-4.0-8.34","true","35","4.150000000000004","","",""
"2694","5","confid","","","html-slider-response","295","2445061","0.0-4.0-10.34-0.34","","","","Rate your confidence","1",""
"472","i","choice","right","i","experimental","302","2447321","0.0-4.0-8.35","true","36","4.150000000000004","","",""
"3359.0000000004657","4","confid","","","html-slider-response","304","2451187","0.0-4.0-10.35-0.35","","","","Rate your confidence","1",""
"448.00000000046566","e","choice","left","e","experimental","311","2453417","0.0-4.0-8.36","true","37","4.050000000000004","","",""
"1959","4","confid","","","html-slider-response","313","2455883","0.0-4.0-10.36-0.36","","","","Rate your confidence","1",""
"487.00000000046566","i","choice","right","i","experimental","320","2458158","0.0-4.0-8.37","true","38","4.050000000000004","","",""
"2833","2","confid","","","html-slider-response","322","2461498","0.0-4.0-10.37-0.37","","","","Rate your confidence","1",""
"3208","e","choice","right","i","experimental","329","2466494","0.0-4.0-8.38","false","39","3.950000000000004","","",""
"2834","1","confid","","","html-slider-response","331","2469833","0.0-4.0-10.38-0.38","","","","Rate your confidence","1",""
"374.00000000046566","e","choice","left","e","experimental","338","2471995","0.0-4.0-8.39","true","40","4.050000000000004","","",""
"2555","4","confid","","","html-slider-response","340","2475057","0.0-4.0-10.39-0.39","","","","Rate your confidence","1",""
"499","i","choice","right","i","experimental","347","2477342","0.0-4.0-8.40","true","41","4.050000000000004","","",""
"5938","4","confid","","","html-slider-response","349","2483787","0.0-4.0-10.40-0.40","","","","Rate your confidence","1",""
"360","e","choice","left","e","experimental","356","2485932","0.0-4.0-8.41","true","42","3.950000000000004","","",""
"2722","4","confid","","","html-slider-response","358","2489162","0.0-4.0-10.41-0.41","","","","Rate your confidence","1",""
"398","i","choice","right","i","experimental","365","2491346","0.0-4.0-8.42","true","43","3.950000000000004","","",""
"1956","3","confid","","","html-slider-response","367","2493809","0.0-4.0-10.42-0.42","","","","Rate your confidence","1",""
"382","e","choice","left","e","experimental","374","2495979","0.0-4.0-8.43","true","44","3.850000000000004","","",""
"2858","3","confid","","","html-slider-response","376","2499343","0.0-4.0-10.43-0.43","","","","Rate your confidence","1",""
"652.0000000004657","e","choice","right","i","experimental","383","2501782","0.0-4.0-8.44","false","45","3.850000000000004","","",""
"6618.000000000466","1","confid","","","html-slider-response","385","2508906","0.0-4.0-10.44-0.44","","","","Rate your confidence","1",""
"531","e","choice","left","e","experimental","392","2511221","0.0-4.0-8.45","true","46","3.950000000000004","","",""
"3755","2","confid","","","html-slider-response","394","2515483","0.0-4.0-10.45-0.45","","","","Rate your confidence","1",""
"385","e","choice","left","e","experimental","401","2517655","0.0-4.0-8.46","true","47","3.950000000000004","","",""
"2265","2","confid","","","html-slider-response","403","2520425","0.0-4.0-10.46-0.46","","","","Rate your confidence","1",""
"832","i","choice","right","i","experimental","410","2523043","0.0-4.0-8.47","true","48","3.850000000000004","","",""
"53337.999999999534","1","confid","","","html-slider-response","412","2576885","0.0-4.0-10.47-0.47","","","","Rate your confidence","1",""
"387","e","choice","left","e","experimental","419","2579056","0.0-4.0-8.48","true","49","3.850000000000004","","",""
"4035","2","confid","","","html-slider-response","421","2583597","0.0-4.0-10.48-0.48","","","","Rate your confidence","1",""
"349","i","choice","right","i","experimental","428","2585732","0.0-4.0-8.49","true","50","3.750000000000004","","",""
"3118","2","confid","","","html-slider-response","430","2589358","0.0-4.0-10.49-0.49","","","","Rate your confidence","1",""
"1422.9999999995343","e","choice","right","i","experimental","437","2592568","0.0-4.0-8.50","false","51","3.750000000000004","","",""
"3473.9999999995343","1","confid","","","html-slider-response","439","2596549","0.0-4.0-10.50-0.50","","","","Rate your confidence","1",""
"456","e","choice","left","e","experimental","446","2598794","0.0-4.0-8.51","true","52","3.850000000000004","","",""
"3226","1","confid","","","html-slider-response","448","2602530","0.0-4.0-10.51-0.51","","","","Rate your confidence","1",""
"410","i","choice","right","i","experimental","455","2604728","0.0-4.0-8.52","true","53","3.850000000000004","","",""
"1315","2","confid","","","html-slider-response","457","2606550","0.0-4.0-10.52-0.52","","","","Rate your confidence","1",""
"717","e","choice","left","e","experimental","464","2609055","0.0-4.0-8.53","true","54","3.750000000000004","","",""
"2251","2","confid","","","html-slider-response","466","2611812","0.0-4.0-10.53-0.53","","","","Rate your confidence","1",""
"501","e","choice","left","e","experimental","473","2614101","0.0-4.0-8.54","true","55","3.750000000000004","","",""
"4622","1","confid","","","html-slider-response","475","2619230","0.0-4.0-10.54-0.54","","","","Rate your confidence","1",""
"405.00000000046566","e","choice","right","i","experimental","482","2621421","0.0-4.0-8.55","false","56","3.650000000000004","","",""
"3078","1","confid","","","html-slider-response","484","2625005","0.0-4.0-10.55-0.55","","","","Rate your confidence","1",""
"625","i","choice","right","i","experimental","491","2627421","0.0-4.0-8.56","true","57","3.750000000000004","","",""
"2076","2","confid","","","html-slider-response","493","2630004","0.0-4.0-10.56-0.56","","","","Rate your confidence","1",""
"409","e","choice","left","e","experimental","500","2632202","0.0-4.0-8.57","true","58","3.750000000000004","","",""
"3279","3","confid","","","html-slider-response","502","2635987","0.0-4.0-10.57-0.57","","","","Rate your confidence","1",""
"713","i","choice","right","i","experimental","509","2638485","0.0-4.0-8.58","true","59","3.650000000000004","","",""
"4149.000000000466","3","confid","","","html-slider-response","511","2643141","0.0-4.0-10.58-0.58","","","","Rate your confidence","1",""
"357.00000000046566","e","choice","left","e","experimental","518","2645286","0.0-4.0-8.59","true","60","3.650000000000004","","",""
"2098.0000000004657","4","confid","","","html-slider-response","520","2647891","0.0-4.0-10.59-0.59","","","","Rate your confidence","1",""
"1472","e","choice","right","i","experimental","527","2651148","0.0-4.0-8.60","false","61","3.550000000000004","","",""
"3199.0000000004657","1","confid","","","html-slider-response","529","2654852","0.0-4.0-10.60-0.60","","","","Rate your confidence","1",""
"335","e","choice","left","e","experimental","536","2656974","0.0-4.0-8.61","true","62","3.650000000000004","","",""
"3563","2","confid","","","html-slider-response","538","2661043","0.0-4.0-10.61-0.61","","","","Rate your confidence","1",""
"621","e","choice","right","i","experimental","545","2663452","0.0-4.0-8.62","false","63","3.650000000000004","","",""
"2823","1","confid","","","html-slider-response","547","2666781","0.0-4.0-10.62-0.62","","","","Rate your confidence","1",""
"572.0000000004657","e","choice","left","e","experimental","554","2669141","0.0-4.0-8.63","true","64","3.750000000000004","","",""
"3694","2","confid","","","html-slider-response","556","2673340","0.0-4.0-10.63-0.63","","","","Rate your confidence","1",""
"380","e","choice","left","e","experimental","563","2675508","0.0-4.0-8.64","true","65","3.750000000000004","","",""
"2050.9999999995343","2","confid","","","html-slider-response","565","2678065","0.0-4.0-10.64-0.64","","","","Rate your confidence","1",""
"396","i","choice","right","i","experimental","572","2680249","0.0-4.0-8.65","true","66","3.650000000000004","","",""
"5104.999999999534","2","confid","","","html-slider-response","574","2685860","0.0-4.0-10.65-0.65","","","","Rate your confidence","1",""
"615","e","choice","left","e","experimental","581","2688262","0.0-4.0-8.66","true","67","3.650000000000004","","",""
"2741","3","confid","","","html-slider-response","583","2691508","0.0-4.0-10.66-0.66","","","","Rate your confidence","1",""
"1058","i","choice","right","i","experimental","590","2694357","0.0-4.0-8.67","true","68","3.550000000000004","","",""
"8583","1","confid","","","html-slider-response","592","2703451","0.0-4.0-10.67-0.67","","","","Rate your confidence","1",""
"1900","e","choice","right","i","experimental","600","248830595","0.0-4.0-8.68","false","69","3.550000000000004","","",""
"8889","1","confid","","","html-slider-response","602","248839990","0.0-4.0-10.68-0.68","","","","Rate your confidence","1",""
"3046","i","choice","left","e","experimental","609","248844826","0.0-4.0-8.69","false","70","3.650000000000004","","",""
"8557","1","confid","","","html-slider-response","611","248853888","0.0-4.0-10.69-0.69","","","","Rate your confidence","1",""
"732","i","choice","right","i","experimental","618","248856404","0.0-4.0-8.70","true","71","3.750000000000004","","",""
"2874","2","confid","","","html-slider-response","620","248859785","0.0-4.0-10.70-0.70","","","","Rate your confidence","1",""
"1513.0000000018626","e","choice","left","e","experimental","627","248863084","0.0-4.0-8.71","true","72","3.750000000000004","","",""
"4551.999999998137","1","confid","","","html-slider-response","629","248868144","0.0-4.0-10.71-0.71","","","","Rate your confidence","1",""
"635.9999999981374","i","choice","right","i","experimental","636","248870568","0.0-4.0-8.72","true","73","3.650000000000004","","",""
"3116","1","confid","","","html-slider-response","638","248874191","0.0-4.0-10.72-0.72","","","","Rate your confidence","1",""
"444.99999999813735","i","choice","left","e","experimental","645","248876420","0.0-4.0-8.73","false","74","3.650000000000004","","",""
"5123","2","confid","","","html-slider-response","647","248882049","0.0-4.0-10.73-0.73","","","","Rate your confidence","1",""
"528","e","choice","left","e","experimental","654","248884361","0.0-4.0-8.74","true","75","3.750000000000004","","",""
"5944.000000001863","3","confid","","","html-slider-response","656","248890815","0.0-4.0-10.74-0.74","","","","Rate your confidence","1",""
"344.00000000186265","i","choice","right","i","experimental","663","248892939","0.0-4.0-8.75","true","76","3.750000000000004","","",""
"3185","3","confid","","","html-slider-response","665","248896630","0.0-4.0-10.75-0.75","","","","Rate your confidence","1",""
"57223","e","choice","left","e","experimental","672","248955637","0.0-4.0-8.76","true","77","3.650000000000004","","",""
"2751.9999999981374","1","confid","","","html-slider-response","674","248958893","0.0-4.0-10.76-0.76","","","","Rate your confidence","1",""
"9181","i","choice","right","i","experimental","681","248969861","0.0-4.0-8.77","true","78","3.650000000000004","","",""
"2455","1","confid","","","html-slider-response","683","248972822","0.0-4.0-10.77-0.77","","","","Rate your confidence","1",""
"602","e","choice","left","e","experimental","690","248975208","0.0-4.0-8.78","true","79","3.550000000000004","","",""
"2275.0000000018626","3","confid","","","html-slider-response","692","248977989","0.0-4.0-10.78-0.78","","","","Rate your confidence","1",""
"350","i","choice","right","i","experimental","699","248980124","0.0-4.0-8.79","true","80","3.550000000000004","","",""
"2647","3","confid","","","html-slider-response","701","248983278","0.0-4.0-10.79-0.79","","","","Rate your confidence","1",""
"420","i","choice","right","i","experimental","708","248985478","0.0-4.0-8.80","true","81","3.4500000000000037","","",""
"2676","3","confid","","","html-slider-response","710","248988659","0.0-4.0-10.80-0.80","","","","Rate your confidence","1",""
"918","e","choice","left","e","experimental","717","248991359","0.0-4.0-8.81","true","82","3.4500000000000037","","",""
"9183","2","confid","","","html-slider-response","719","249001049","0.0-4.0-10.81-0.81","","","","Rate your confidence","1",""
"327.00000000186265","i","choice","right","i","experimental","726","249003158","0.0-4.0-8.82","true","83","3.3500000000000036","","",""
"4235","4","confid","","","html-slider-response","728","249007898","0.0-4.0-10.82-0.82","","","","Rate your confidence","1",""
"359.00000000186265","e","choice","left","e","experimental","735","249010042","0.0-4.0-8.83","true","84","3.3500000000000036","","",""
"5247","3","confid","","","html-slider-response","737","249015796","0.0-4.0-10.83-0.83","","","","Rate your confidence","1",""
"540","e","choice","right","i","experimental","744","249018123","0.0-4.0-8.84","false","85","3.2500000000000036","","",""
"2083","3","confid","","","html-slider-response","746","249020713","0.0-4.0-10.84-0.84","","","","Rate your confidence","1",""
"412","e","choice","left","e","experimental","753","249022916","0.0-4.0-8.85","true","86","3.3500000000000036","","",""
"1960","4","confid","","","html-slider-response","755","249025384","0.0-4.0-10.85-0.85","","","","Rate your confidence","1",""
"1073","i","choice","right","i","experimental","762","249028243","0.0-4.0-8.86","true","87","3.3500000000000036","","",""
"4202","1","confid","","","html-slider-response","764","249032953","0.0-4.0-10.86-0.86","","","","Rate your confidence","1",""
"712","i","choice","left","e","experimental","771","249035454","0.0-4.0-8.87","false","88","3.2500000000000036","","",""
"89551.00000000186","1","confid","","","html-slider-response","773","249125511","0.0-4.0-10.87-0.87","","","","Rate your confidence","1",""
"312.99999999813735","i","choice","right","i","experimental","780","249127611","0.0-4.0-8.88","true","89","3.3500000000000036","","",""
"2125","3","confid","","","html-slider-response","782","249130242","0.0-4.0-10.88-0.88","","","","Rate your confidence","1",""
"501","e","choice","left","e","experimental","789","249132526","0.0-4.0-8.89","true","90","3.3500000000000036","","",""
"2618","2","confid","","","html-slider-response","791","249135650","0.0-4.0-10.89-0.89","","","","Rate your confidence","1",""
"1064","e","choice","left","e","experimental","798","249138500","0.0-4.0-8.90","true","91","3.2500000000000036","","",""
"2552","1","confid","","","html-slider-response","800","249141559","0.0-4.0-10.90-0.90","","","","Rate your confidence","1",""
"583","i","choice","right","i","experimental","807","249143926","0.0-4.0-8.91","true","92","3.2500000000000036","","",""
"2037","1","confid","","","html-slider-response","809","249146470","0.0-4.0-10.91-0.91","","","","Rate your confidence","1",""
"425.00000000186265","i","choice","left","e","experimental","816","249148681","0.0-4.0-8.92","false","93","3.1500000000000035","","",""
"2594","1","confid","","","html-slider-response","818","249151781","0.0-4.0-10.92-0.92","","","","Rate your confidence","1",""
"626","e","choice","right","i","experimental","825","249154193","0.0-4.0-8.93","false","94","3.2500000000000036","","",""
"2363.0000000018626","1","confid","","","html-slider-response","827","249157064","0.0-4.0-10.93-0.93","","","","Rate your confidence","1",""
"386.99999999813735","e","choice","left","e","experimental","834","249159236","0.0-4.0-8.94","true","95","3.3500000000000036","","",""
"1761","2","confid","","","html-slider-response","836","249161502","0.0-4.0-10.94-0.94","","","","Rate your confidence","1",""
"425","i","choice","right","i","experimental","843","249163713","0.0-4.0-8.95","true","96","3.3500000000000036","","",""
"8106","1","confid","","","html-slider-response","845","249172325","0.0-4.0-10.95-0.95","","","","Rate your confidence","1",""
"402","e","choice","left","e","experimental","852","249174509","0.0-4.0-8.96","true","97","3.2500000000000036","","",""
"2346","2","confid","","","html-slider-response","854","249177363","0.0-4.0-10.96-0.96","","","","Rate your confidence","1",""
"731","i","choice","right","i","experimental","861","249179880","0.0-4.0-8.97","true","98","3.2500000000000036","","",""
"2312","1","confid","","","html-slider-response","863","249182699","0.0-4.0-10.97-0.97","","","","Rate your confidence","1",""
"382","e","choice","left","e","experimental","870","249184865","0.0-4.0-8.98","true","99","3.1500000000000035","","",""
"2108","2","confid","","","html-slider-response","872","249187480","0.0-4.0-10.98-0.98","","","","Rate your confidence","1",""
"474","i","choice","right","i","experimental","879","249189740","0.0-4.0-8.99","true","100","3.1500000000000035","","",""
"2327","1","confid","","","html-slider-response","881","249192575","0.0-4.0-10.99-0.99","","","","Rate your confidence","1",""
"324","i","choice","right","i","experimental","888","249194686","0.0-4.0-8.100","true","101","3.0500000000000034","","",""
"2806","2","confid","","","html-slider-response","890","249197999","0.0-4.0-10.100-0.100","","","","Rate your confidence","1",""
"714","e","choice","left","e","experimental","897","249200497","0.0-4.0-8.101","true","102","3.0500000000000034","","",""
"1784","1","confid","","","html-slider-response","899","249202787","0.0-4.0-10.101-0.101","","","","Rate your confidence","1",""
"685","i","choice","left","e","experimental","906","249205256","0.0-4.0-8.102","false","103","2.9500000000000033","","",""
"2943","1","confid","","","html-slider-response","908","249208706","0.0-4.0-10.102-0.102","","","","Rate your confidence","1",""
"897","i","choice","right","i","experimental","915","249211389","0.0-4.0-8.103","true","104","3.0500000000000034","","",""
"3748","1","confid","","","html-slider-response","917","249215643","0.0-4.0-10.103-0.103","","","","Rate your confidence","1",""
"275.00000000186265","i","choice","right","i","experimental","924","249217705","0.0-4.0-8.104","true","105","3.0500000000000034","","",""
"2680.0000000018626","2","confid","","","html-slider-response","926","249220891","0.0-4.0-10.104-0.104","","","","Rate your confidence","1",""
"333","e","choice","left","e","experimental","933","249223009","0.0-4.0-8.105","true","106","2.9500000000000033","","",""
"2256","2","confid","","","html-slider-response","935","249225770","0.0-4.0-10.105-0.105","","","","Rate your confidence","1",""
"1396","e","choice","right","i","experimental","942","249228953","0.0-4.0-8.106","false","107","2.9500000000000033","","",""
"5159","2","confid","","","html-slider-response","944","249234619","0.0-4.0-10.106-0.106","","","","Rate your confidence","1",""
"465","e","choice","left","e","experimental","951","249236870","0.0-4.0-8.107","true","108","3.0500000000000034","","",""
"3260","2","confid","","","html-slider-response","953","249240636","0.0-4.0-10.107-0.107","","","","Rate your confidence","1",""
"21.000000001862645","i","choice","right","i","experimental","960","249242444","0.0-4.0-8.108","true","109","3.0500000000000034","","",""
"3743","3","confid","","","html-slider-response","962","249246693","0.0-4.0-10.108-0.108","","","","Rate your confidence","1",""
"411","e","choice","left","e","experimental","969","249248891","0.0-4.0-8.109","true","110","2.9500000000000033","","",""
"2334","3","confid","","","html-slider-response","971","249251731","0.0-4.0-10.109-0.109","","","","Rate your confidence","1",""
"955","e","choice","left","e","experimental","979","251723026","0.0-4.0-8.110","true","111","2.9500000000000033","","",""
"2839.0000000018626","1","confid","","","html-slider-response","981","251726373","0.0-4.0-10.110-0.110","","","","Rate your confidence","1",""
"591.0000000018626","e","choice","right","i","experimental","988","251728748","0.0-4.0-8.111","false","112","2.850000000000003","","",""
"5173.999999998137","2","confid","","","html-slider-response","990","251734430","0.0-4.0-10.111-0.111","","","","Rate your confidence","1",""
"328","i","choice","right","i","experimental","997","251736545","0.0-4.0-8.112","true","113","2.9500000000000033","","",""
"2758","2","confid","","","html-slider-response","999","251739813","0.0-4.0-10.112-0.112","","","","Rate your confidence","1",""
"331","e","choice","left","e","experimental","1006","251741931","0.0-4.0-8.113","true","114","2.9500000000000033","","",""
"2318.0000000018626","1","confid","","","html-slider-response","1008","251744755","0.0-4.0-10.113-0.113","","","","Rate your confidence","1",""
"361.99999999813735","e","choice","left","e","experimental","1015","251746902","0.0-4.0-8.114","true","115","2.850000000000003","","",""
"3241","2","confid","","","html-slider-response","1017","251750651","0.0-4.0-10.114-0.114","","","","Rate your confidence","1",""
"234","i","choice","right","i","experimental","1024","251752671","0.0-4.0-8.115","true","116","2.850000000000003","","",""
"2953.0000000018626","2","confid","","","html-slider-response","1026","251756131","0.0-4.0-10.115-0.115","","","","Rate your confidence","1",""
"980","i","choice","right","i","experimental","1033","251758906","0.0-4.0-8.116","true","117","2.750000000000003","","",""
"3708.0000000018626","1","confid","","","html-slider-response","1035","251763121","0.0-4.0-10.116-0.116","","","","Rate your confidence","1",""
"304","e","choice","left","e","experimental","1042","251765208","0.0-4.0-8.117","true","118","2.750000000000003","","",""
"3449","1","confid","","","html-slider-response","1044","251769162","0.0-4.0-10.117-0.117","","","","Rate your confidence","1",""
"743.0000000018626","e","choice","left","e","experimental","1051","251771692","0.0-4.0-8.118","true","119","2.650000000000003","","",""
"2482","1","confid","","","html-slider-response","1053","251774681","0.0-4.0-10.118-0.118","","","","Rate your confidence","1",""
"535","i","choice","right","i","experimental","1060","251777004","0.0-4.0-8.119","true","120","2.650000000000003","","",""
"2689.0000000018626","1","confid","","","html-slider-response","1062","251780200","0.0-4.0-10.119-0.119","","","","Rate your confidence","1",""
"354","e","choice","right","i","experimental","1069","251782342","0.0-4.0-8.120","false","121","2.550000000000003","","",""
"2512","1","confid","","","html-slider-response","1071","251785359","0.0-4.0-10.120-0.120","","","","Rate your confidence","1",""
"531.9999999981374","e","choice","left","e","experimental","1078","251787679","0.0-4.0-8.121","true","122","2.650000000000003","","",""
"9805","2","confid","","","html-slider-response","1080","251797991","0.0-4.0-10.121-0.121","","","","Rate your confidence","1",""
"1243","e","choice","left","e","experimental","1087","251801025","0.0-4.0-8.122","true","123","2.650000000000003","","",""
"4602","2","confid","","","html-slider-response","1089","251806134","0.0-4.0-10.122-0.122","","","","Rate your confidence","1",""
"420","i","choice","right","i","experimental","1096","251808340","0.0-4.0-8.123","true","124","2.550000000000003","","",""
"1796","1","confid","","","html-slider-response","1098","251810643","0.0-4.0-10.123-0.123","","","","Rate your confidence","1",""
"580","i","choice","right","i","experimental","1105","251813011","0.0-4.0-8.124","true","125","2.550000000000003","","",""
"1914","1","confid","","","html-slider-response","1107","251815433","0.0-4.0-10.124-0.124","","","","Rate your confidence","1",""
"280","e","choice","left","e","experimental","1114","251817498","0.0-4.0-8.125","true","126","2.450000000000003","","",""
"1948","2","confid","","","html-slider-response","1116","251819951","0.0-4.0-10.125-0.125","","","","Rate your confidence","1",""
"345.00000000186265","i","choice","right","i","experimental","1123","251822083","0.0-4.0-8.126","true","127","2.450000000000003","","",""
"2053","1","confid","","","html-slider-response","1125","251824646","0.0-4.0-10.126-0.126","","","","Rate your confidence","1",""
"523.0000000018626","e","choice","left","e","experimental","1132","251826958","0.0-4.0-8.127","true","128","2.3500000000000028","","",""
"3597","2","confid","","","html-slider-response","1134","251831062","0.0-4.0-10.127-0.127","","","","Rate your confidence","1",""
"438.99999999813735","e","choice","right","i","experimental","1141","251833290","0.0-4.0-8.128","false","129","2.3500000000000028","","",""
"1916.9999999981374","1","confid","","","html-slider-response","1143","251835714","0.0-4.0-10.128-0.128","","","","Rate your confidence","1",""
"442","e","choice","left","e","experimental","1150","251837942","0.0-4.0-8.129","true","130","2.450000000000003","","",""
"2432","1","confid","","","html-slider-response","1152","251840881","0.0-4.0-10.129-0.129","","","","Rate your confidence","1",""
"347","i","choice","left","e","experimental","1159","251843015","0.0-4.0-8.130","false","131","2.450000000000003","","",""
"1963","1","confid","","","html-slider-response","1161","251845486","0.0-4.0-10.130-0.130","","","","Rate your confidence","1",""
"496","e","choice","right","i","experimental","1168","251847772","0.0-4.0-8.131","false","132","2.550000000000003","","",""
"3023","1","confid","","","html-slider-response","1170","251851302","0.0-4.0-10.131-0.131","","","","Rate your confidence","1",""
"439.99999999813735","i","choice","left","e","experimental","1177","251853531","0.0-4.0-8.132","false","133","2.650000000000003","","",""
"2600","2","confid","","","html-slider-response","1179","251856637","0.0-4.0-10.132-0.132","","","","Rate your confidence","1",""
"668.0000000018626","e","choice","right","i","experimental","1186","251859091","0.0-4.0-8.133","false","134","2.750000000000003","","",""
"1987.9999999981374","2","confid","","","html-slider-response","1188","251861586","0.0-4.0-10.133-0.133","","","","Rate your confidence","1",""
"800","e","choice","right","i","experimental","1195","251864173","0.0-4.0-8.134","false","135","2.850000000000003","","",""
"2296.9999999981374","2","confid","","","html-slider-response","1197","251866976","0.0-4.0-10.134-0.134","","","","Rate your confidence","1",""
"658","e","choice","left","e","experimental","1204","251869424","0.0-4.0-8.135","true","136","2.9500000000000033","","",""
"1853","2","confid","","","html-slider-response","1206","251871783","0.0-4.0-10.135-0.135","","","","Rate your confidence","1",""
"439","i","choice","right","i","experimental","1213","251874010","0.0-4.0-8.136","true","137","2.9500000000000033","","",""
"1696","2","confid","","","html-slider-response","1215","251876213","0.0-4.0-10.136-0.136","","","","Rate your confidence","1",""
"780","e","choice","left","e","experimental","1222","251878784","0.0-4.0-8.137","true","138","2.850000000000003","","",""
"2610","1","confid","","","html-slider-response","1224","251881900","0.0-4.0-10.137-0.137","","","","Rate your confidence","1",""
"620.9999999981374","i","choice","right","i","experimental","1231","251884309","0.0-4.0-8.138","true","139","2.850000000000003","","",""
"2861.9999999981374","1","confid","","","html-slider-response","1233","251887675","0.0-4.0-10.138-0.138","","","","Rate your confidence","1",""
"327.00000000186265","e","choice","left","e","experimental","1240","251889785","0.0-4.0-8.139","true","140","2.750000000000003","","",""
"1406.0000000018626","3","confid","","","html-slider-response","1242","251891696","0.0-4.0-10.139-0.139","","","","Rate your confidence","1",""
"361.99999999813735","i","choice","left","e","experimental","1249","251893844","0.0-4.0-8.140","false","141","2.750000000000003","","",""
"4420","3","confid","","","html-slider-response","1251","251898770","0.0-4.0-10.140-0.140","","","","Rate your confidence","1",""
"1358","i","choice","right","i","experimental","1258","251901917","0.0-4.0-8.141","true","142","2.850000000000003","","",""
"2394","1","confid","","","html-slider-response","1260","251904816","0.0-4.0-10.141-0.141","","","","Rate your confidence","1",""
"843","e","choice","right","i","experimental","1267","251907447","0.0-4.0-8.142","false","143","2.850000000000003","","",""
"1978.9999999981374","2","confid","","","html-slider-response","1269","251909934","0.0-4.0-10.142-0.142","","","","Rate your confidence","1",""
"727.9999999981374","e","choice","left","e","experimental","1276","251912450","0.0-4.0-8.143","true","144","2.9500000000000033","","",""
"1989.0000000018626","2","confid","","","html-slider-response","1278","251914945","0.0-4.0-10.143-0.143","","","","Rate your confidence","1",""
"276","e","choice","left","e","experimental","1285","251916993","0.0-4.0-8.144","true","145","2.9500000000000033","","",""
"2697","2","confid","","","html-slider-response","1287","251920193","0.0-4.0-10.144-0.144","","","","Rate your confidence","1",""
"490","e","choice","right","i","experimental","1294","251922455","0.0-4.0-8.145","false","146","2.850000000000003","","",""
"1571","2","confid","","","html-slider-response","1296","251924529","0.0-4.0-10.145-0.145","","","","Rate your confidence","1",""
"62","e","choice","left","e","experimental","1303","251926377","0.0-4.0-8.146","true","147","2.9500000000000033","","",""
"2556","3","confid","","","html-slider-response","1305","251929439","0.0-4.0-10.146-0.146","","","","Rate your confidence","1",""
"879","i","choice","right","i","experimental","1312","251932108","0.0-4.0-8.147","true","148","2.9500000000000033","","",""
"12665.999999998137","2","confid","","","html-slider-response","1314","251945280","0.0-4.0-10.147-0.147","","","","Rate your confidence","1",""
"329.00000000186265","e","choice","left","e","experimental","1321","251947399","0.0-4.0-8.148","true","149","2.850000000000003","","",""
"2164","3","confid","","","html-slider-response","1323","251950070","0.0-4.0-10.148-0.148","","","","Rate your confidence","1",""
"844.0000000018626","i","choice","right","i","experimental","1330","251952703","0.0-4.0-8.149","true","150","2.850000000000003","","",""
"3302","1","confid","","","html-slider-response","1332","251956511","0.0-4.0-10.149-0.149","","","","Rate your confidence","1",""
"336","i","choice","right","i","experimental","1339","251958634","0.0-4.0-8.150","true","151","2.750000000000003","","",""
"4598","3","confid","","","html-slider-response","1341","251963737","0.0-4.0-10.150-0.150","","","","Rate your confidence","1",""
"337","e","choice","left","e","experimental","1348","251965864","0.0-4.0-8.151","true","152","2.750000000000003","","",""
"2396.9999999981374","2","confid","","","html-slider-response","1350","251968768","0.0-4.0-10.151-0.151","","","","Rate your confidence","1",""
"443","e","choice","right","i","experimental","1358","254425370","0.0-4.0-8.152","false","153","2.650000000000003","","",""
"4027","1","confid","","","html-slider-response","1360","254429907","0.0-4.0-10.152-0.152","","","","Rate your confidence","1",""
"436.00000000186265","e","choice","left","e","experimental","1367","254432130","0.0-4.0-8.153","true","154","2.750000000000003","","",""
"7359","2","confid","","","html-slider-response","1369","254439994","0.0-4.0-10.153-0.153","","","","Rate your confidence","1",""
"349.99999999813735","i","choice","left","e","experimental","1376","254442132","0.0-4.0-8.154","false","155","2.750000000000003","","",""
"2751","1","confid","","","html-slider-response","1378","254445392","0.0-4.0-10.154-0.154","","","","Rate your confidence","1",""
"580","e","choice","right","i","experimental","1385","254447762","0.0-4.0-8.155","false","156","2.850000000000003","","",""
"401387.00000000186","2","confid","","","html-slider-response","1387","254849649","0.0-4.0-10.155-0.155","","","","Rate your confidence","1",""
"742.9999999981374","e","choice","left","e","experimental","1394","254852181","0.0-4.0-8.156","true","157","2.9500000000000033","","",""
"2038.0000000018626","1","confid","","","html-slider-response","1396","254854728","0.0-4.0-10.156-0.156","","","","Rate your confidence","1",""
"319","i","choice","right","i","experimental","1403","254856837","0.0-4.0-8.157","true","158","2.9500000000000033","","",""
"2255.0000000018626","1","confid","","","html-slider-response","1405","254859598","0.0-4.0-10.157-0.157","","","","Rate your confidence","1",""
"423.0000000037253","e","choice","left","e","experimental","1412","254861808","0.0-4.0-8.158","true","159","2.850000000000003","","",""
"4429.000000001863","2","confid","","","html-slider-response","1414","254866745","0.0-4.0-10.158-0.158","","","","Rate your confidence","1",""
"761.0000000018626","e","choice","right","i","experimental","1421","254869295","0.0-4.0-8.159","false","160","2.850000000000003","","",""
"3903.0000000018626","1","confid","","","html-slider-response","1423","254873706","0.0-4.0-10.159-0.159","","","","Rate your confidence","1",""
"315.0000000037253","i","choice","right","i","experimental","1430","254875808","0.0-4.0-8.160","true","161","2.9500000000000033","","",""
"2408.0000000037253","2","confid","","","html-slider-response","1432","254878722","0.0-4.0-10.160-0.160","","","","Rate your confidence","1",""
"254.00000000186265","e","choice","left","e","experimental","1439","254880765","0.0-4.0-8.161","true","162","2.9500000000000033","","",""
"2243","3","confid","","","html-slider-response","1441","254883514","0.0-4.0-10.161-0.161","","","","Rate your confidence","1",""
"372","e","choice","left","e","experimental","1448","254885677","0.0-4.0-8.162","true","163","2.850000000000003","","",""
"2937.9999999981374","2","confid","","","html-slider-response","1450","254889123","0.0-4.0-10.162-0.162","","","","Rate your confidence","1",""
"300","e","choice","right","i","experimental","1457","254891214","0.0-4.0-8.163","false","164","2.850000000000003","","",""
"10890","2","confid","","","html-slider-response","1459","254902612","0.0-4.0-10.163-0.163","","","","Rate your confidence","1",""
"364.99999999813735","e","choice","right","i","experimental","1466","254904766","0.0-4.0-8.164","false","165","2.9500000000000033","","",""
"2641","2","confid","","","html-slider-response","1468","254907915","0.0-4.0-10.164-0.164","","","","Rate your confidence","1",""
"388.99999999813735","e","choice","left","e","experimental","1475","254910092","0.0-4.0-8.165","true","166","3.0500000000000034","","",""
"1836.0000000037253","2","confid","","","html-slider-response","1477","254912436","0.0-4.0-10.165-0.165","","","","Rate your confidence","1",""
"477.0000000037253","e","choice","left","e","experimental","1484","254914701","0.0-4.0-8.166","true","167","3.0500000000000034","","",""
"3233","2","confid","","","html-slider-response","1486","254918442","0.0-4.0-10.166-0.166","","","","Rate your confidence","1",""
"331.99999999813735","e","choice","right","i","experimental","1493","254920565","0.0-4.0-8.167","false","168","2.9500000000000033","","",""
"2297","2","confid","","","html-slider-response","1495","254923369","0.0-4.0-10.167-0.167","","","","Rate your confidence","1",""
"810","e","choice","right","i","experimental","1502","254925968","0.0-4.0-8.168","false","169","3.0500000000000034","","",""
"6921","1","confid","","","html-slider-response","1504","254933397","0.0-4.0-10.168-0.168","","","","Rate your confidence","1",""
"951","e","choice","left","e","experimental","1511","254936134","0.0-4.0-8.169","true","170","3.1500000000000035","","",""
"3699","2","confid","","","html-slider-response","1513","254940341","0.0-4.0-10.169-0.169","","","","Rate your confidence","1",""
"624","e","choice","left","e","experimental","1520","254942755","0.0-4.0-8.170","true","171","3.1500000000000035","","",""
"2549.0000000037253","2","confid","","","html-slider-response","1522","254945812","0.0-4.0-10.170-0.170","","","","Rate your confidence","1",""
"452","e","choice","right","i","experimental","1529","254948054","0.0-4.0-8.171","false","172","3.0500000000000034","","",""
"2449","2","confid","","","html-slider-response","1531","254951011","0.0-4.0-10.171-0.171","","","","Rate your confidence","1",""
"306","i","choice","right","i","experimental","1538","254953106","0.0-4.0-8.172","true","173","3.1500000000000035","","",""
"1789","2","confid","","","html-slider-response","1540","254955401","0.0-4.0-10.172-0.172","","","","Rate your confidence","1",""
"520","e","choice","left","e","experimental","1547","254957710","0.0-4.0-8.173","true","174","3.1500000000000035","","",""
"3228","3","confid","","","html-slider-response","1549","254961442","0.0-4.0-10.173-0.173","","","","Rate your confidence","1",""
"327","e","choice","right","i","experimental","1556","254963555","0.0-4.0-8.174","false","175","3.0500000000000034","","",""
"2683.9999999962747","2","confid","","","html-slider-response","1558","254966745","0.0-4.0-10.174-0.174","","","","Rate your confidence","1",""
"306","e","choice","left","e","experimental","1565","254968840","0.0-4.0-8.175","true","176","3.1500000000000035","","",""
"2451.9999999962747","2","confid","","","html-slider-response","1567","254971799","0.0-4.0-10.175-0.175","","","","Rate your confidence","1",""
"319","i","choice","left","e","experimental","1574","254973907","0.0-4.0-8.176","false","177","3.1500000000000035","","",""
"2995","2","confid","","","html-slider-response","1576","254977408","0.0-4.0-10.176-0.176","","","","Rate your confidence","1",""
"401","e","choice","right","i","experimental","1583","254979598","0.0-4.0-8.177","false","178","3.2500000000000036","","",""
"3221","1","confid","","","html-slider-response","1585","254983327","0.0-4.0-10.177-0.177","","","","Rate your confidence","1",""
"270","e","choice","left","e","experimental","1592","254985388","0.0-4.0-8.178","true","179","3.3500000000000036","","",""
"2071","2","confid","","","html-slider-response","1594","254987966","0.0-4.0-10.178-0.178","","","","Rate your confidence","1",""
"157.9999999962747","i","choice","right","i","experimental","1601","254989915","0.0-4.0-8.179","true","180","3.3500000000000036","","",""
"2704","2","confid","","","html-slider-response","1603","254993126","0.0-4.0-10.179-0.179","","","","Rate your confidence","1",""
"326","i","choice","right","i","experimental","1610","254995241","0.0-4.0-8.180","true","181","3.2500000000000036","","",""
"2026","2","confid","","","html-slider-response","1612","254997773","0.0-4.0-10.180-0.180","","","","Rate your confidence","1",""
"176","e","choice","left","e","experimental","1619","254999740","0.0-4.0-8.181","true","182","3.2500000000000036","","",""
"2605","3","confid","","","html-slider-response","1621","255002853","0.0-4.0-10.181-0.181","","","","Rate your confidence","1",""
"0","e","choice","left","e","experimental","1628","255004641","0.0-4.0-8.182","true","183","3.1500000000000035","","",""
"2994","3","confid","","","html-slider-response","1630","255008142","0.0-4.0-10.182-0.182","","","","Rate your confidence","1",""
"321","e","choice","right","i","experimental","1637","255010250","0.0-4.0-8.183","false","184","3.1500000000000035","","",""
"2310","1","confid","","","html-slider-response","1639","255013068","0.0-4.0-10.183-0.183","","","","Rate your confidence","1",""
"593","i","choice","right","i","experimental","1646","255015452","0.0-4.0-8.184","true","185","3.2500000000000036","","",""
"1731","2","confid","","","html-slider-response","1648","255017691","0.0-4.0-10.184-0.184","","","","Rate your confidence","1",""
"325","e","choice","left","e","experimental","1655","255019807","0.0-4.0-8.185","true","186","3.2500000000000036","","",""
"1936","3","confid","","","html-slider-response","1657","255022250","0.0-4.0-10.185-0.185","","","","Rate your confidence","1",""
"344","e","choice","left","e","experimental","1664","255024382","0.0-4.0-8.186","true","187","3.1500000000000035","","",""
"2843","2","confid","","","html-slider-response","1666","255027731","0.0-4.0-10.186-0.186","","","","Rate your confidence","1",""
"967","e","choice","right","i","experimental","1673","255030490","0.0-4.0-8.187","false","188","3.1500000000000035","","",""
"2902","1","confid","","","html-slider-response","1675","255033897","0.0-4.0-10.187-0.187","","","","Rate your confidence","1",""
"505","e","choice","left","e","experimental","1682","255036195","0.0-4.0-8.188","true","189","3.2500000000000036","","",""
"3154","1","confid","","","html-slider-response","1684","255039857","0.0-4.0-10.188-0.188","","","","Rate your confidence","1",""
"356","i","choice","right","i","experimental","1691","255042003","0.0-4.0-8.189","true","190","3.2500000000000036","","",""
"2305","1","confid","","","html-slider-response","1693","255044816","0.0-4.0-10.189-0.189","","","","Rate your confidence","1",""
"394","e","choice","right","i","experimental","1700","255047002","0.0-4.0-8.190","false","191","3.1500000000000035","","",""
"4010","2","confid","","","html-slider-response","1702","255051522","0.0-4.0-10.190-0.190","","","","Rate your confidence","1",""
"89","e","choice","left","e","experimental","1709","255053402","0.0-4.0-8.191","true","192","3.2500000000000036","","",""
"30340","2","confid","","","html-slider-response","1711","255084249","0.0-4.0-10.191-0.191","","","","Rate your confidence","1",""
"307.0000000037253","e","choice","left","e","experimental","1718","255086344","0.0-4.0-8.192","true","193","3.2500000000000036","","",""
"2229","2","confid","","","html-slider-response","1720","255089080","0.0-4.0-10.192-0.192","","","","Rate your confidence","1",""
"369","e","choice","right","i","experimental","1727","255091241","0.0-4.0-8.193","false","194","3.1500000000000035","","",""
"2963","1","confid","","","html-slider-response","1729","255094712","0.0-4.0-10.193-0.193","","","","Rate your confidence","1","14848"
