"rt","response","task","target_side","correct_response","trial_type","trial_index","time_elapsed","internal_node_id","correct","trial_number","n_dots","stimulus","slider_start","participant"
"338.5","i","choice","right","i","practice","10","35366","0.0-4.0-8.0","true","1","4.25","","",""
"425.89999997615814","e","choice","left","e","practice","18","38076","0.0-4.0-8.1","true","2","4.25","","",""
"127.19999998807907","e","choice","left","e","practice","26","40515","0.0-4.0-8.2","true","3","3.85","","",""
"435","i","choice","right","i","practice","34","43221","0.0-4.0-8.3","true","4","3.85","","",""
"258","i","choice","right","i","practice","42","45757","0.0-4.0-8.4","true","5","3.45","","",""
"243.4000000357628","e","choice","left","e","practice","50","48284","0.0-4.0-8.5","true","6","3.45","","",""
"251.10000002384186","e","choice","left","e","practice","58","50828","0.0-4.0-8.6","true","7","3.25","","",""
"247.30000001192093","i","choice","right","i","practice","66","53360","0.0-4.0-8.7","true","8","3.25","","",""
"361.0999999642372","i","choice","right","i","practice","74","55992","0.0-4.0-8.8","true","9","3.05","","",""
"142","e","choice","left","e","practice","82","58435","0.0-4.0-8.9","true","10","3.05","","",""
"165.0999999642372","e","choice","left","e","practice","90","60883","0.0-4.0-8.10","true","11","2.8499999999999996","","",""
"254.70000004768372","i","choice","right","i","practice","98","63429","0.0-4.0-8.11","true","12","2.8499999999999996","","",""
"285.30000001192093","e","choice","right","i","practice","106","66002","0.0-4.0-8.12","false","13","2.7499999999999996","","",""
"150.69999998807907","e","choice","left","e","practice","114","68448","0.0-4.0-8.13","true","14","2.8499999999999996","","",""
"232.19999998807907","e","choice","right","i","practice","122","70956","0.0-4.0-8.14","false","15","2.8499999999999996","","",""
"245.80000001192093","e","choice","left","e","practice","130","73483","0.0-4.0-8.15","true","16","2.9499999999999997","","",""
"565.8000000119209","e","choice","right","i","practice","138","76321","0.0-4.0-8.16","false","17","2.9499999999999997","","",""
"144.0999999642372","e","choice","left","e","practice","146","78751","0.0-4.0-8.17","true","18","3.05","","",""
"192.30000001192093","i","choice","right","i","practice","154","81227","0.0-4.0-8.18","true","19","3.05","","",""
"211.60000002384186","e","choice","left","e","practice","162","83723","0.0-4.0-8.19","true","20","2.9499999999999997","","",""
"421.5999999642372","i","choice","right","i","practice","170","86447","0.0-4.0-8.20","true","21","2.9499999999999997","","",""
"223.89999997615814","e","choice","left","e","practice","178","88947","0.0-4.0-8.21","true","22","2.8499999999999996","","",""
"385.10000002384186","i","choice","left","e","practice","186","91624","0.0-4.0-8.22","false","23","2.8499999999999996","","",""
"145.69999998807907","i","choice","right","i","practice","194","94053","0.0-4.0-8.23","true","24","2.9499999999999997","","",""
"212.29999995231628","e","choice","left","e","practice","202","96545","0.0-4.0-8.24","true","25","2.9499999999999997","","",""
"407.19999998807907","i","choice","right","i","practice","210","99248","0.0-4.0-8.25","true","26","2.8499999999999996","","",""
"267.69999998807907","i","choice","right","i","experimental","221","177671","0.0-4.0-8.26","true","27","2.8499999999999996","","",""
"3651.399999976158","4","confid","","","html-slider-response","223","181827","0.0-4.0-10.26-0.26","","","","Rate your confidence","1",""
"541.5","i","choice","left","e","experimental","230","184155","0.0-4.0-8.27","false","28","2.7499999999999996","","",""
"1671.300000011921","4","confid","","","html-slider-response","232","186331","0.0-4.0-10.27-0.27","","","","Rate your confidence","1",""
"106.80000001192093","e","choice","right","i","experimental","239","188212","0.0-4.0-8.28","false","29","2.8499999999999996","","",""
"3316.100000023842","3","confid","","","html-slider-response","241","192041","0.0-4.0-10.28-0.28","","","","Rate your confidence","1",""
"201.69999998807907","e","choice","left","e","experimental","248","194021","0.0-4.0-8.29","true","30","2.9499999999999997","","",""
"1617.0999999642372","5","confid","","","html-slider-response","250","196146","0.0-4.0-10.29-0.29","","","","Rate your confidence","1",""
"370.80000001192093","i","choice","right","i","experimental","257","198304","0.0-4.0-8.30","true","31","2.9499999999999997","","",""
"1959.1000000238419","5","confid","","","html-slider-response","259","200768","0.0-4.0-10.30-0.30","","","","Rate your confidence","1",""
"268.69999998807907","e","choice","left","e","experimental","266","202824","0.0-4.0-8.31","true","32","2.8499999999999996","","",""
"4511.300000011921","3","confid","","","html-slider-response","268","207840","0.0-4.0-10.31-0.31","","","","Rate your confidence","1",""
"277.5","e","choice","right","i","experimental","275","209902","0.0-4.0-8.32","false","33","2.8499999999999996","","",""
"2153.600000023842","5","confid","","","html-slider-response","277","212562","0.0-4.0-10.32-0.32","","","","Rate your confidence","1",""
"393.69999998807907","e","choice","left","e","experimental","284","214733","0.0-4.0-8.33","true","34","2.9499999999999997","","",""
"1962.699999988079","2","confid","","","html-slider-response","286","217199","0.0-4.0-10.33-0.33","","","","Rate your confidence","1",""
"129.5","i","choice","right","i","experimental","293","219125","0.0-4.0-8.34","true","35","2.9499999999999997","","",""
"2535.300000011921","5","confid","","","html-slider-response","295","222164","0.0-4.0-10.34-0.34","","","","Rate your confidence","1",""
"431.5","e","choice","left","e","experimental","302","224381","0.0-4.0-8.35","true","36","2.8499999999999996","","",""
"3245.5","4","confid","","","html-slider-response","304","228129","0.0-4.0-10.35-0.35","","","","Rate your confidence","1",""
"219.69999998807907","e","choice","left","e","experimental","311","230131","0.0-4.0-8.36","true","37","2.8499999999999996","","",""
"2262.699999988079","5","confid","","","html-slider-response","313","232898","0.0-4.0-10.36-0.36","","","","Rate your confidence","1",""
"349.30000001192093","i","choice","right","i","experimental","320","235030","0.0-4.0-8.37","true","38","2.7499999999999996","","",""
"2462.699999988079","5","confid","","","html-slider-response","322","238009","0.0-4.0-10.37-0.37","","","","Rate your confidence","1",""
"343.2999999523163","e","choice","left","e","experimental","329","240120","0.0-4.0-8.38","true","39","2.7499999999999996","","",""
"1893.8999999761581","4","confid","","","html-slider-response","331","242516","0.0-4.0-10.38-0.38","","","","Rate your confidence","1",""
"343.7000000476837","i","choice","right","i","experimental","338","244642","0.0-4.0-8.39","true","40","2.6499999999999995","","",""
"2049.899999976158","4","confid","","","html-slider-response","340","247196","0.0-4.0-10.39-0.39","","","","Rate your confidence","1",""
"820.5999999642372","e","choice","right","i","experimental","347","249799","0.0-4.0-8.40","false","41","2.6499999999999995","","",""
"2013","5","confid","","","html-slider-response","349","252314","0.0-4.0-10.40-0.40","","","","Rate your confidence","1",""
"234.0999999642372","i","choice","left","e","experimental","356","254335","0.0-4.0-8.41","false","42","2.7499999999999996","","",""
"1960.5","5","confid","","","html-slider-response","358","256799","0.0-4.0-10.41-0.41","","","","Rate your confidence","1",""
"269.7999999523163","e","choice","left","e","experimental","365","258845","0.0-4.0-8.42","true","43","2.8499999999999996","","",""
"2312","4","confid","","","html-slider-response","367","261669","0.0-4.0-10.42-0.42","","","","Rate your confidence","1",""
"164.89999997615814","i","choice","right","i","experimental","374","263611","0.0-4.0-8.43","true","44","2.8499999999999996","","",""
"2622.7000000476837","5","confid","","","html-slider-response","376","266737","0.0-4.0-10.43-0.43","","","","Rate your confidence","1",""
"502","i","choice","right","i","experimental","383","269011","0.0-4.0-8.44","true","45","2.7499999999999996","","",""
"1780.5","5","confid","","","html-slider-response","385","271294","0.0-4.0-10.44-0.44","","","","Rate your confidence","1",""
"251.5999999642372","e","choice","left","e","experimental","392","273314","0.0-4.0-8.45","true","46","2.7499999999999996","","",""
"1764.199999988079","5","confid","","","html-slider-response","394","275580","0.0-4.0-10.45-0.45","","","","Rate your confidence","1",""
"481.80000001192093","e","choice","right","i","experimental","401","277851","0.0-4.0-8.46","false","47","2.6499999999999995","","",""
"2832.600000023842","4","confid","","","html-slider-response","403","281188","0.0-4.0-10.46-0.46","","","","Rate your confidence","1",""
"300","e","choice","left","e","experimental","410","283261","0.0-4.0-8.47","true","48","2.7499999999999996","","",""
"2278.5","5","confid","","","html-slider-response","412","286044","0.0-4.0-10.47-0.47","","","","Rate your confidence","1",""
"139","i","choice","right","i","experimental","419","287953","0.0-4.0-8.48","true","49","2.7499999999999996","","",""
"1805.5999999642372","5","confid","","","html-slider-response","421","290272","0.0-4.0-10.48-0.48","","","","Rate your confidence","1",""
"493.0999999642372","e","choice","left","e","experimental","428","292539","0.0-4.0-8.49","true","50","2.6499999999999995","","",""
"3258.899999976158","5","confid","","","html-slider-response","430","296302","0.0-4.0-10.49-0.49","","","","Rate your confidence","1",""
"331.69999998807907","i","choice","left","e","experimental","437","298413","0.0-4.0-8.50","false","51","2.6499999999999995","","",""
"1878.5","5","confid","","","html-slider-response","439","300794","0.0-4.0-10.50-0.50","","","","Rate your confidence","1",""
"319.5","e","choice","right","i","experimental","446","302889","0.0-4.0-8.51","false","52","2.7499999999999996","","",""
"2053.699999988079","3","confid","","","html-slider-response","448","305445","0.0-4.0-10.51-0.51","","","","Rate your confidence","1",""
"410.69999998807907","i","choice","left","e","experimental","455","307637","0.0-4.0-8.52","false","53","2.8499999999999996","","",""
"2781.7999999523163","4","confid","","","html-slider-response","457","310931","0.0-4.0-10.52-0.52","","","","Rate your confidence","1",""
"89.40000003576279","i","choice","right","i","experimental","464","312803","0.0-4.0-8.53","true","54","2.9499999999999997","","",""
"1810.1000000238419","6","confid","","","html-slider-response","466","315116","0.0-4.0-10.53-0.53","","","","Rate your confidence","1",""
"205.20000004768372","i","choice","right","i","experimental","473","317109","0.0-4.0-8.54","true","55","2.9499999999999997","","",""
"1514.9000000357628","5","confid","","","html-slider-response","475","319128","0.0-4.0-10.54-0.54","","","","Rate your confidence","1",""
"345.69999998807907","i","choice","left","e","experimental","482","321256","0.0-4.0-8.55","false","56","2.8499999999999996","","",""
"4009.100000023842","4","confid","","","html-slider-response","484","325769","0.0-4.0-10.55-0.55","","","","Rate your confidence","1",""
"76.70000004768372","i","choice","right","i","experimental","491","327632","0.0-4.0-8.56","true","57","2.9499999999999997","","",""
"1657.5999999642372","6","confid","","","html-slider-response","493","329794","0.0-4.0-10.56-0.56","","","","Rate your confidence","1",""
"250.9000000357628","e","choice","left","e","experimental","500","331833","0.0-4.0-8.57","true","58","2.9499999999999997","","",""
"3080.099999964237","4","confid","","","html-slider-response","502","335417","0.0-4.0-10.57-0.57","","","","Rate your confidence","1",""
"1986.199999988079","e","choice","left","e","experimental","509","339182","0.0-4.0-8.58","true","59","2.8499999999999996","","",""
"25819.600000023842","3","confid","","","html-slider-response","511","365506","0.0-4.0-10.58-0.58","","","","Rate your confidence","1",""
"379.5999999642372","i","choice","right","i","experimental","518","367666","0.0-4.0-8.59","true","60","2.8499999999999996","","",""
"1698.300000011921","5","confid","","","html-slider-response","520","369867","0.0-4.0-10.59-0.59","","","","Rate your confidence","1",""
"566.3000000119209","i","choice","left","e","experimental","527","372224","0.0-4.0-8.60","false","61","2.7499999999999996","","",""
"1652.5999999642372","4","confid","","","html-slider-response","529","374381","0.0-4.0-10.60-0.60","","","","Rate your confidence","1",""
"411.60000002384186","i","choice","right","i","experimental","536","376574","0.0-4.0-8.61","true","62","2.8499999999999996","","",""
"2917.800000011921","5","confid","","","html-slider-response","538","379996","0.0-4.0-10.61-0.61","","","","Rate your confidence","1",""
"491.69999998807907","i","choice","right","i","experimental","545","382271","0.0-4.0-8.62","true","63","2.8499999999999996","","",""
"2100.300000011921","4","confid","","","html-slider-response","547","384875","0.0-4.0-10.62-0.62","","","","Rate your confidence","1",""
"342.69999998807907","e","choice","left","e","experimental","554","386995","0.0-4.0-8.63","true","64","2.7499999999999996","","",""
"1970.9000000357628","3","confid","","","html-slider-response","556","389469","0.0-4.0-10.63-0.63","","","","Rate your confidence","1",""
"153.30000001192093","e","choice","right","i","experimental","563","391407","0.0-4.0-8.64","false","65","2.7499999999999996","","",""
"2006.199999988079","5","confid","","","html-slider-response","565","393917","0.0-4.0-10.64-0.64","","","","Rate your confidence","1",""
"745.3000000119209","e","choice","left","e","experimental","572","396436","0.0-4.0-8.65","true","66","2.8499999999999996","","",""
"3505.7999999523163","3","confid","","","html-slider-response","574","400446","0.0-4.0-10.65-0.65","","","","Rate your confidence","1",""
"274.7999999523163","i","choice","right","i","experimental","581","402499","0.0-4.0-8.66","true","67","2.8499999999999996","","",""
"2259.5","5","confid","","","html-slider-response","583","405271","0.0-4.0-10.66-0.66","","","","Rate your confidence","1",""
"402.30000001192093","e","choice","left","e","experimental","590","407455","0.0-4.0-8.67","true","68","2.7499999999999996","","",""
"2155.199999988079","3","confid","","","html-slider-response","592","410113","0.0-4.0-10.67-0.67","","","","Rate your confidence","1",""
"129.9000000357628","i","choice","right","i","experimental","600","413713","0.0-4.0-8.68","true","69","2.7499999999999996","","",""
"1710.699999988079","5","confid","","","html-slider-response","602","415927","0.0-4.0-10.68-0.68","","","","Rate your confidence","1",""
"256.2999999523163","e","choice","left","e","experimental","609","417960","0.0-4.0-8.69","true","70","2.6499999999999995","","",""
"1706.199999988079","5","confid","","","html-slider-response","611","420169","0.0-4.0-10.69-0.69","","","","Rate your confidence","1",""
"84.80000001192093","e","choice","left","e","experimental","618","422033","0.0-4.0-8.70","true","71","2.6499999999999995","","",""
"2723.900000035763","5","confid","","","html-slider-response","620","425260","0.0-4.0-10.70-0.70","","","","Rate your confidence","1",""
"302.30000001192093","i","choice","right","i","experimental","627","427345","0.0-4.0-8.71","true","72","2.5499999999999994","","",""
"1731.9000000357628","4","confid","","","html-slider-response","629","429582","0.0-4.0-10.71-0.71","","","","Rate your confidence","1",""
"219.0999999642372","e","choice","left","e","experimental","636","431586","0.0-4.0-8.72","true","73","2.5499999999999994","","",""
"1809.8999999761581","5","confid","","","html-slider-response","638","433900","0.0-4.0-10.72-0.72","","","","Rate your confidence","1",""
"189.80000001192093","i","choice","right","i","experimental","645","435875","0.0-4.0-8.73","true","74","2.4499999999999993","","",""
"2180.899999976158","5","confid","","","html-slider-response","647","438561","0.0-4.0-10.73-0.73","","","","Rate your confidence","1",""
"299.89999997615814","i","choice","left","e","experimental","654","440650","0.0-4.0-8.74","false","75","2.4499999999999993","","",""
"2367.5","5","confid","","","html-slider-response","656","443521","0.0-4.0-10.74-0.74","","","","Rate your confidence","1",""
"301.0999999642372","i","choice","right","i","experimental","663","445609","0.0-4.0-8.75","true","76","2.5499999999999994","","",""
"2475.100000023842","3","confid","","","html-slider-response","665","448589","0.0-4.0-10.75-0.75","","","","Rate your confidence","1",""
"271.60000002384186","e","choice","left","e","experimental","672","450642","0.0-4.0-8.76","true","77","2.5499999999999994","","",""
"1919.5","5","confid","","","html-slider-response","674","453066","0.0-4.0-10.76-0.76","","","","Rate your confidence","1",""
"297.89999997615814","i","choice","right","i","experimental","681","455142","0.0-4.0-8.77","true","78","2.4499999999999993","","",""
"1941.800000011921","5","confid","","","html-slider-response","683","457588","0.0-4.0-10.77-0.77","","","","Rate your confidence","1",""
"262.30000001192093","e","choice","left","e","experimental","690","459639","0.0-4.0-8.78","true","79","2.4499999999999993","","",""
"3197.300000011921","5","confid","","","html-slider-response","692","463341","0.0-4.0-10.78-0.78","","","","Rate your confidence","1",""
"365.7999999523163","e","choice","right","i","experimental","699","465494","0.0-4.0-8.79","false","80","2.349999999999999","","",""
"3410.300000011921","5","confid","","","html-slider-response","701","469409","0.0-4.0-10.79-0.79","","","","Rate your confidence","1",""
"2050.300000011921","e","choice","right","i","experimental","708","473247","0.0-4.0-8.80","false","81","2.4499999999999993","","",""
"3228.300000011921","2","confid","","","html-slider-response","710","476980","0.0-4.0-10.80-0.80","","","","Rate your confidence","1",""
"461.80000001192093","i","choice","left","e","experimental","717","479220","0.0-4.0-8.81","false","82","2.5499999999999994","","",""
"3049.899999976158","4","confid","","","html-slider-response","719","482783","0.0-4.0-10.81-0.81","","","","Rate your confidence","1",""
"1211.800000011921","e","choice","left","e","experimental","726","485775","0.0-4.0-8.82","true","83","2.6499999999999995","","",""
"2493","2","confid","","","html-slider-response","728","488772","0.0-4.0-10.82-0.82","","","","Rate your confidence","1",""
"142","i","choice","right","i","experimental","735","490702","0.0-4.0-8.83","true","84","2.6499999999999995","","",""
"2847.599999964237","4","confid","","","html-slider-response","737","494052","0.0-4.0-10.83-0.83","","","","Rate your confidence","1",""
"294.39999997615814","i","choice","left","e","experimental","744","496127","0.0-4.0-8.84","false","85","2.5499999999999994","","",""
"1852.699999988079","4","confid","","","html-slider-response","746","498485","0.0-4.0-10.84-0.84","","","","Rate your confidence","1",""
"393.60000002384186","e","choice","right","i","experimental","753","500670","0.0-4.0-8.85","false","86","2.6499999999999995","","",""
"1865.199999988079","5","confid","","","html-slider-response","755","503050","0.0-4.0-10.85-0.85","","","","Rate your confidence","1",""
"58.09999996423721","i","choice","left","e","experimental","762","504882","0.0-4.0-8.86","false","87","2.7499999999999996","","",""
"2754.5","4","confid","","","html-slider-response","764","508140","0.0-4.0-10.86-0.86","","","","Rate your confidence","1",""
"195.10000002384186","i","choice","right","i","experimental","771","510116","0.0-4.0-8.87","true","88","2.8499999999999996","","",""
"1503.699999988079","3","confid","","","html-slider-response","773","512123","0.0-4.0-10.87-0.87","","","","Rate your confidence","1",""
"104.19999998807907","e","choice","left","e","experimental","780","514007","0.0-4.0-8.88","true","89","2.8499999999999996","","",""
"3956.600000023842","4","confid","","","html-slider-response","782","518468","0.0-4.0-10.88-0.88","","","","Rate your confidence","1",""
"369.5","i","choice","right","i","experimental","789","520607","0.0-4.0-8.89","true","90","2.7499999999999996","","",""
"1806.300000011921","5","confid","","","html-slider-response","791","522916","0.0-4.0-10.89-0.89","","","","Rate your confidence","1",""
"162.89999997615814","e","choice","right","i","experimental","798","524879","0.0-4.0-8.90","false","91","2.7499999999999996","","",""
"3170.599999964237","2","confid","","","html-slider-response","800","528553","0.0-4.0-10.90-0.90","","","","Rate your confidence","1",""
"255.69999998807907","e","choice","left","e","experimental","807","530586","0.0-4.0-8.91","true","92","2.8499999999999996","","",""
"2984.100000023842","3","confid","","","html-slider-response","809","534075","0.0-4.0-10.91-0.91","","","","Rate your confidence","1",""
"122.5","i","choice","right","i","experimental","816","535984","0.0-4.0-8.92","true","93","2.8499999999999996","","",""
"1459","3","confid","","","html-slider-response","818","537947","0.0-4.0-10.92-0.92","","","","Rate your confidence","1",""
"331.5","e","choice","left","e","experimental","825","540058","0.0-4.0-8.93","true","94","2.7499999999999996","","",""
"4034.300000011921","2","confid","","","html-slider-response","827","544596","0.0-4.0-10.93-0.93","","","","Rate your confidence","1",""
"148.69999998807907","e","choice","right","i","experimental","834","546533","0.0-4.0-8.94","false","95","2.7499999999999996","","",""
"2432.400000035763","2","confid","","","html-slider-response","836","549469","0.0-4.0-10.94-0.94","","","","Rate your confidence","1",""
"33.09999996423721","e","choice","left","e","experimental","843","551290","0.0-4.0-8.95","true","96","2.8499999999999996","","",""
"1956.0999999642372","4","confid","","","html-slider-response","845","553750","0.0-4.0-10.95-0.95","","","","Rate your confidence","1",""
"198.9000000357628","i","choice","right","i","experimental","852","555742","0.0-4.0-8.96","true","97","2.8499999999999996","","",""
"2292.100000023842","5","confid","","","html-slider-response","854","558550","0.0-4.0-10.96-0.96","","","","Rate your confidence","1",""
"204.5999999642372","e","choice","left","e","experimental","861","560531","0.0-4.0-8.97","true","98","2.7499999999999996","","",""
"2707.5","4","confid","","","html-slider-response","863","563741","0.0-4.0-10.97-0.97","","","","Rate your confidence","1",""
"330.5999999642372","i","choice","left","e","experimental","870","565851","0.0-4.0-8.98","false","99","2.7499999999999996","","",""
"2111.7000000476837","3","confid","","","html-slider-response","872","568475","0.0-4.0-10.98-0.98","","","","Rate your confidence","1",""
"196.10000002384186","i","choice","right","i","experimental","879","570456","0.0-4.0-8.99","true","100","2.8499999999999996","","",""
"1964.300000011921","5","confid","","","html-slider-response","881","572924","0.0-4.0-10.99-0.99","","","","Rate your confidence","1",""
"98.5","i","choice","right","i","experimental","888","574800","0.0-4.0-8.100","true","101","2.8499999999999996","","",""
"1740.8999999761581","4","confid","","","html-slider-response","890","577046","0.0-4.0-10.100-0.100","","","","Rate your confidence","1",""
"24.80000001192093","i","choice","left","e","experimental","897","578848","0.0-4.0-8.101","false","102","2.7499999999999996","","",""
"1647","3","confid","","","html-slider-response","899","580999","0.0-4.0-10.101-0.101","","","","Rate your confidence","1",""
"71","e","choice","left","e","experimental","906","582847","0.0-4.0-8.102","true","103","2.8499999999999996","","",""
"2259.2999999523163","4","confid","","","html-slider-response","908","585610","0.0-4.0-10.102-0.102","","","","Rate your confidence","1",""
"707.3999999761581","e","choice","right","i","experimental","915","588095","0.0-4.0-8.103","false","104","2.8499999999999996","","",""
"9198.300000011921","2","confid","","","html-slider-response","917","597797","0.0-4.0-10.103-0.103","","","","Rate your confidence","1",""
"643.1999999880791","e","choice","right","i","experimental","924","600225","0.0-4.0-8.104","false","105","2.9499999999999997","","",""
"1889.1000000238419","3","confid","","","html-slider-response","926","602618","0.0-4.0-10.104-0.104","","","","Rate your confidence","1",""
"258.30000001192093","e","choice","left","e","experimental","933","604655","0.0-4.0-8.105","true","106","3.05","","",""
"1819.2999999523163","3","confid","","","html-slider-response","935","606987","0.0-4.0-10.105-0.105","","","","Rate your confidence","1",""
"1097.5","e","choice","left","e","experimental","942","609868","0.0-4.0-8.106","true","107","3.05","","",""
"2617.800000011921","4","confid","","","html-slider-response","944","612989","0.0-4.0-10.106-0.106","","","","Rate your confidence","1",""
"801.8999999761581","i","choice","right","i","experimental","951","615569","0.0-4.0-8.107","true","108","2.9499999999999997","","",""
"2510.900000035763","2","confid","","","html-slider-response","953","618592","0.0-4.0-10.107-0.107","","","","Rate your confidence","1",""
"564.8000000119209","i","choice","left","e","experimental","960","620947","0.0-4.0-8.108","false","109","2.9499999999999997","","",""
"3194.600000023842","3","confid","","","html-slider-response","962","624645","0.0-4.0-10.108-0.108","","","","Rate your confidence","1",""
"477","i","choice","right","i","experimental","969","626937","0.0-4.0-8.109","true","110","3.05","","",""
"2171.100000023842","4","confid","","","html-slider-response","971","629613","0.0-4.0-10.109-0.109","","","","Rate your confidence","1",""
"996.0999999642372","e","choice","left","e","experimental","979","640246","0.0-4.0-8.110","true","111","3.05","","",""
"4310.800000011921","4","confid","","","html-slider-response","981","645061","0.0-4.0-10.110-0.110","","","","Rate your confidence","1",""
"730.3000000119209","i","choice","right","i","experimental","988","647575","0.0-4.0-8.111","true","112","2.9499999999999997","","",""
"4072.100000023842","5","confid","","","html-slider-response","990","652150","0.0-4.0-10.111-0.111","","","","Rate your confidence","1",""
"26.599999964237213","i","choice","right","i","experimental","997","653953","0.0-4.0-8.112","true","113","2.9499999999999997","","",""
"2056.100000023842","4","confid","","","html-slider-response","999","656512","0.0-4.0-10.112-0.112","","","","Rate your confidence","1",""
"113.59999996423721","e","choice","left","e","experimental","1006","658411","0.0-4.0-8.113","true","114","2.8499999999999996","","",""
"1921.199999988079","4","confid","","","html-slider-response","1008","660837","0.0-4.0-10.113-0.113","","","","Rate your confidence","1",""
"14.800000011920929","i","choice","right","i","experimental","1015","662631","0.0-4.0-8.114","true","115","2.8499999999999996","","",""
"2908.5","5","confid","","","html-slider-response","1017","666053","0.0-4.0-10.114-0.114","","","","Rate your confidence","1",""
"246.80000001192093","e","choice","left","e","experimental","1024","668076","0.0-4.0-8.115","true","116","2.7499999999999996","","",""
"1929","4","confid","","","html-slider-response","1026","670510","0.0-4.0-10.115-0.115","","","","Rate your confidence","1",""
"428.60000002384186","e","choice","right","i","experimental","1033","672717","0.0-4.0-8.116","false","117","2.7499999999999996","","",""
"1808.9000000357628","5","confid","","","html-slider-response","1035","675031","0.0-4.0-10.116-0.116","","","","Rate your confidence","1",""
"86.70000004768372","e","choice","left","e","experimental","1042","676899","0.0-4.0-8.117","true","118","2.8499999999999996","","",""
"2276.300000011921","4","confid","","","html-slider-response","1044","679679","0.0-4.0-10.117-0.117","","","","Rate your confidence","1",""
"345.9000000357628","e","choice","left","e","experimental","1051","681812","0.0-4.0-8.118","true","119","2.8499999999999996","","",""
"2643.599999964237","5","confid","","","html-slider-response","1053","684959","0.0-4.0-10.118-0.118","","","","Rate your confidence","1",""
"81","i","choice","right","i","experimental","1060","686818","0.0-4.0-8.119","true","120","2.7499999999999996","","",""
"2501.2999999523163","5","confid","","","html-slider-response","1062","689834","0.0-4.0-10.119-0.119","","","","Rate your confidence","1",""
"1440","i","choice","right","i","experimental","1069","693052","0.0-4.0-8.120","true","121","2.7499999999999996","","",""
"2243.199999988079","4","confid","","","html-slider-response","1071","695799","0.0-4.0-10.120-0.120","","","","Rate your confidence","1",""
"74.80000001192093","e","choice","left","e","experimental","1078","697651","0.0-4.0-8.121","true","122","2.6499999999999995","","",""
"2832.800000011921","5","confid","","","html-slider-response","1080","700987","0.0-4.0-10.121-0.121","","","","Rate your confidence","1",""
"708.9000000357628","i","choice","right","i","experimental","1087","703483","0.0-4.0-8.122","true","123","2.6499999999999995","","",""
"2018","3","confid","","","html-slider-response","1089","706006","0.0-4.0-10.122-0.122","","","","Rate your confidence","1",""
"865.6999999880791","e","choice","left","e","experimental","1096","708657","0.0-4.0-8.123","true","124","2.5499999999999994","","",""
"2100.899999976158","3","confid","","","html-slider-response","1098","711272","0.0-4.0-10.123-0.123","","","","Rate your confidence","1",""
"1126.4000000357628","i","choice","left","e","experimental","1105","714182","0.0-4.0-8.124","false","125","2.5499999999999994","","",""
"3631.099999964237","3","confid","","","html-slider-response","1107","718317","0.0-4.0-10.124-0.124","","","","Rate your confidence","1",""
"0.2999999523162842","e","choice","right","i","experimental","1114","720116","0.0-4.0-8.125","false","126","2.6499999999999995","","",""
"1871.7999999523163","4","confid","","","html-slider-response","1116","722491","0.0-4.0-10.125-0.125","","","","Rate your confidence","1",""
"150","i","choice","right","i","experimental","1123","724430","0.0-4.0-8.126","true","127","2.7499999999999996","","",""
"1919","4","confid","","","html-slider-response","1125","726853","0.0-4.0-10.126-0.126","","","","Rate your confidence","1",""
"209.69999998807907","e","choice","left","e","experimental","1132","728841","0.0-4.0-8.127","true","128","2.7499999999999996","","",""
"2287.199999988079","4","confid","","","html-slider-response","1134","731632","0.0-4.0-10.127-0.127","","","","Rate your confidence","1",""
"294.5","i","choice","right","i","experimental","1141","733704","0.0-4.0-8.128","true","129","2.6499999999999995","","",""
"1508.699999988079","5","confid","","","html-slider-response","1143","735716","0.0-4.0-10.128-0.128","","","","Rate your confidence","1",""
"327.30000001192093","e","choice","left","e","experimental","1150","737822","0.0-4.0-8.129","true","130","2.6499999999999995","","",""
"3548.100000023842","4","confid","","","html-slider-response","1152","741874","0.0-4.0-10.129-0.129","","","","Rate your confidence","1",""
"163.4000000357628","e","choice","left","e","experimental","1159","743822","0.0-4.0-8.130","true","131","2.5499999999999994","","",""
"1859","5","confid","","","html-slider-response","1161","746186","0.0-4.0-10.130-0.130","","","","Rate your confidence","1",""
"159.80000001192093","i","choice","right","i","experimental","1168","748121","0.0-4.0-8.131","true","132","2.5499999999999994","","",""
"1833.5","5","confid","","","html-slider-response","1170","750459","0.0-4.0-10.131-0.131","","","","Rate your confidence","1",""
"157.89999997615814","e","choice","left","e","experimental","1177","752398","0.0-4.0-8.132","true","133","2.4499999999999993","","",""
"3306.100000023842","6","confid","","","html-slider-response","1179","756208","0.0-4.0-10.132-0.132","","","","Rate your confidence","1",""
"163.70000004768372","i","choice","right","i","experimental","1186","758152","0.0-4.0-8.133","true","134","2.4499999999999993","","",""
"2154.2999999523163","6","confid","","","html-slider-response","1188","760811","0.0-4.0-10.133-0.133","","","","Rate your confidence","1",""
"573.5","i","choice","left","e","experimental","1195","763170","0.0-4.0-8.134","false","135","2.349999999999999","","",""
"2046.8999999761581","5","confid","","","html-slider-response","1197","765721","0.0-4.0-10.134-0.134","","","","Rate your confidence","1",""
"6.100000023841858","i","choice","right","i","experimental","1204","767506","0.0-4.0-8.135","true","136","2.4499999999999993","","",""
"1657.6000000238419","6","confid","","","html-slider-response","1206","769668","0.0-4.0-10.135-0.135","","","","Rate your confidence","1",""
"167.4000000357628","i","choice","left","e","experimental","1213","771624","0.0-4.0-8.136","false","137","2.4499999999999993","","",""
"2586.900000035763","6","confid","","","html-slider-response","1215","774714","0.0-4.0-10.136-0.136","","","","Rate your confidence","1",""
"248.0999999642372","i","choice","right","i","experimental","1222","776741","0.0-4.0-8.137","true","138","2.5499999999999994","","",""
"2306.100000023842","6","confid","","","html-slider-response","1224","779552","0.0-4.0-10.137-0.137","","","","Rate your confidence","1",""
"310.39999997615814","i","choice","right","i","experimental","1231","781642","0.0-4.0-8.138","true","139","2.5499999999999994","","",""
"1884.0999999642372","3","confid","","","html-slider-response","1233","784030","0.0-4.0-10.138-0.138","","","","Rate your confidence","1",""
"97.89999997615814","e","choice","left","e","experimental","1240","785906","0.0-4.0-8.139","true","140","2.4499999999999993","","",""
"2604.199999988079","5","confid","","","html-slider-response","1242","789014","0.0-4.0-10.139-0.139","","","","Rate your confidence","1",""
"41.30000001192093","i","choice","right","i","experimental","1249","790847","0.0-4.0-8.140","true","141","2.4499999999999993","","",""
"1705.300000011921","5","confid","","","html-slider-response","1251","793056","0.0-4.0-10.140-0.140","","","","Rate your confidence","1",""
"449","i","choice","left","e","experimental","1258","795285","0.0-4.0-8.141","false","142","2.349999999999999","","",""
"2000.6000000238419","2","confid","","","html-slider-response","1260","797790","0.0-4.0-10.141-0.141","","","","Rate your confidence","1",""
"46.39999997615814","i","choice","right","i","experimental","1267","799618","0.0-4.0-8.142","true","143","2.4499999999999993","","",""
"1822.4000000357628","5","confid","","","html-slider-response","1269","801954","0.0-4.0-10.142-0.142","","","","Rate your confidence","1",""
"229.5999999642372","e","choice","left","e","experimental","1276","803974","0.0-4.0-8.143","true","144","2.4499999999999993","","",""
"2516.199999988079","6","confid","","","html-slider-response","1278","806995","0.0-4.0-10.143-0.143","","","","Rate your confidence","1",""
"1193.699999988079","e","choice","left","e","experimental","1285","809978","0.0-4.0-8.144","true","145","2.349999999999999","","",""
"1896.6000000238419","5","confid","","","html-slider-response","1287","812379","0.0-4.0-10.144-0.144","","","","Rate your confidence","1",""
"108.79999995231628","i","choice","right","i","experimental","1294","814280","0.0-4.0-8.145","true","146","2.349999999999999","","",""
"1694.5","6","confid","","","html-slider-response","1296","816478","0.0-4.0-10.145-0.145","","","","Rate your confidence","1",""
"174","e","choice","left","e","experimental","1303","818431","0.0-4.0-8.146","true","147","2.249999999999999","","",""
"1561.699999988079","6","confid","","","html-slider-response","1305","820495","0.0-4.0-10.146-0.146","","","","Rate your confidence","1",""
"362.5","i","choice","right","i","experimental","1312","822636","0.0-4.0-8.147","true","148","2.249999999999999","","",""
"1875.300000011921","5","confid","","","html-slider-response","1314","825015","0.0-4.0-10.147-0.147","","","","Rate your confidence","1",""
"291.4000000357628","e","choice","left","e","experimental","1321","827079","0.0-4.0-8.148","true","149","2.149999999999999","","",""
"2485.699999988079","5","confid","","","html-slider-response","1323","830068","0.0-4.0-10.148-0.148","","","","Rate your confidence","1",""
"350.19999998807907","i","choice","right","i","experimental","1330","832206","0.0-4.0-8.149","true","150","2.149999999999999","","",""
"1704.699999988079","6","confid","","","html-slider-response","1332","834414","0.0-4.0-10.149-0.149","","","","Rate your confidence","1",""
"434.10000002384186","e","choice","left","e","experimental","1339","836628","0.0-4.0-8.150","true","151","2.049999999999999","","",""
"1702.5999999642372","3","confid","","","html-slider-response","1341","838835","0.0-4.0-10.150-0.150","","","","Rate your confidence","1",""
"467.5999999642372","e","choice","right","i","experimental","1348","841091","0.0-4.0-8.151","false","152","2.049999999999999","","",""
"3439.900000035763","5","confid","","","html-slider-response","1350","845035","0.0-4.0-10.151-0.151","","","","Rate your confidence","1",""
"254.9000000357628","i","choice","right","i","experimental","1358","847854","0.0-4.0-8.152","true","153","2.149999999999999","","",""
"1503.5999999642372","6","confid","","","html-slider-response","1360","849872","0.0-4.0-10.152-0.152","","","","Rate your confidence","1",""
"312.4000000357628","i","choice","left","e","experimental","1367","851966","0.0-4.0-8.153","false","154","2.149999999999999","","",""
"2230.199999988079","5","confid","","","html-slider-response","1369","854701","0.0-4.0-10.153-0.153","","","","Rate your confidence","1",""
"1509.7000000476837","i","choice","left","e","experimental","1376","857998","0.0-4.0-8.154","false","155","2.249999999999999","","",""
"2888.099999964237","3","confid","","","html-slider-response","1378","861391","0.0-4.0-10.154-0.154","","","","Rate your confidence","1",""
"307.5","i","choice","right","i","experimental","1385","863479","0.0-4.0-8.155","true","156","2.349999999999999","","",""
"54438.69999998808","3","confid","","","html-slider-response","1387","918422","0.0-4.0-10.155-0.155","","","","Rate your confidence","1",""
"730.1999999880791","i","choice","right","i","experimental","1394","920942","0.0-4.0-8.156","true","157","2.349999999999999","","",""
"2811.699999988079","5","confid","","","html-slider-response","1396","924257","0.0-4.0-10.156-0.156","","","","Rate your confidence","1",""
"246.89999997615814","i","choice","left","e","experimental","1403","926281","0.0-4.0-8.157","false","158","2.249999999999999","","",""
"1888.8999999761581","4","confid","","","html-slider-response","1405","928685","0.0-4.0-10.157-0.157","","","","Rate your confidence","1",""
"375","i","choice","right","i","experimental","1412","930849","0.0-4.0-8.158","true","159","2.349999999999999","","",""
"4293","4","confid","","","html-slider-response","1414","935645","0.0-4.0-10.158-0.158","","","","Rate your confidence","1",""
"204.10000002384186","e","choice","left","e","experimental","1421","937637","0.0-4.0-8.159","true","160","2.349999999999999","","",""
"2244.699999988079","4","confid","","","html-slider-response","1423","940386","0.0-4.0-10.159-0.159","","","","Rate your confidence","1",""
"291.89999997615814","i","choice","left","e","experimental","1430","942468","0.0-4.0-8.160","false","161","2.249999999999999","","",""
"1453.7999999523163","4","confid","","","html-slider-response","1432","944427","0.0-4.0-10.160-0.160","","","","Rate your confidence","1",""
"422.5","i","choice","right","i","experimental","1439","946630","0.0-4.0-8.161","true","162","2.349999999999999","","",""
"1707.300000011921","4","confid","","","html-slider-response","1441","948841","0.0-4.0-10.161-0.161","","","","Rate your confidence","1",""
"391.10000002384186","i","choice","right","i","experimental","1448","951014","0.0-4.0-8.162","true","163","2.349999999999999","","",""
"2212.5","3","confid","","","html-slider-response","1450","953730","0.0-4.0-10.162-0.162","","","","Rate your confidence","1",""
"427.89999997615814","e","choice","left","e","experimental","1457","955936","0.0-4.0-8.163","true","164","2.249999999999999","","",""
"1915.0999999642372","5","confid","","","html-slider-response","1459","958355","0.0-4.0-10.163-0.163","","","","Rate your confidence","1",""
"465","e","choice","left","e","experimental","1466","960599","0.0-4.0-8.164","true","165","2.249999999999999","","",""
"2803.100000023842","4","confid","","","html-slider-response","1468","963907","0.0-4.0-10.164-0.164","","","","Rate your confidence","1",""
"238.80000001192093","i","choice","right","i","experimental","1475","965946","0.0-4.0-8.165","true","166","2.149999999999999","","",""
"2936.199999988079","5","confid","","","html-slider-response","1477","969385","0.0-4.0-10.165-0.165","","","","Rate your confidence","1",""
"263.30000001192093","i","choice","right","i","experimental","1484","971434","0.0-4.0-8.166","true","167","2.149999999999999","","",""
"1774.5","4","confid","","","html-slider-response","1486","973713","0.0-4.0-10.166-0.166","","","","Rate your confidence","1",""
"606.7999999523163","e","choice","left","e","experimental","1493","976106","0.0-4.0-8.167","true","168","2.049999999999999","","",""
"2841.2999999523163","5","confid","","","html-slider-response","1495","979454","0.0-4.0-10.167-0.167","","","","Rate your confidence","1",""
"92.09999996423721","i","choice","left","e","experimental","1502","981325","0.0-4.0-8.168","false","169","2.049999999999999","","",""
"1818.699999988079","5","confid","","","html-slider-response","1504","983649","0.0-4.0-10.168-0.168","","","","Rate your confidence","1",""
"258","i","choice","right","i","experimental","1511","985688","0.0-4.0-8.169","true","170","2.149999999999999","","",""
"1747.2999999523163","5","confid","","","html-slider-response","1513","987940","0.0-4.0-10.169-0.169","","","","Rate your confidence","1",""
"30.80000001192093","i","choice","left","e","experimental","1520","989761","0.0-4.0-8.170","false","171","2.149999999999999","","",""
"2782.899999976158","5","confid","","","html-slider-response","1522","993048","0.0-4.0-10.170-0.170","","","","Rate your confidence","1",""
"287.5","e","choice","right","i","experimental","1529","995126","0.0-4.0-8.171","false","172","2.249999999999999","","",""
"2159.100000023842","3","confid","","","html-slider-response","1531","997789","0.0-4.0-10.171-0.171","","","","Rate your confidence","1",""
"200.69999998807907","i","choice","right","i","experimental","1538","999772","0.0-4.0-8.172","true","173","2.349999999999999","","",""
"2261.2999999523163","6","confid","","","html-slider-response","1540","1002538","0.0-4.0-10.172-0.172","","","","Rate your confidence","1",""
"350.9000000357628","i","choice","left","e","experimental","1547","1004680","0.0-4.0-8.173","false","174","2.349999999999999","","",""
"2375.599999964237","5","confid","","","html-slider-response","1549","1007560","0.0-4.0-10.173-0.173","","","","Rate your confidence","1",""
"235.39999997615814","e","choice","left","e","experimental","1556","1009575","0.0-4.0-8.174","true","175","2.4499999999999993","","",""
"2239.300000011921","4","confid","","","html-slider-response","1558","1012317","0.0-4.0-10.174-0.174","","","","Rate your confidence","1",""
"292.30000001192093","i","choice","right","i","experimental","1565","1014392","0.0-4.0-8.175","true","176","2.4499999999999993","","",""
"1797.3999999761581","2","confid","","","html-slider-response","1567","1016694","0.0-4.0-10.175-0.175","","","","Rate your confidence","1",""
"373.89999997615814","i","choice","right","i","experimental","1574","1018847","0.0-4.0-8.176","true","177","2.349999999999999","","",""
"2188.800000011921","4","confid","","","html-slider-response","1576","1021540","0.0-4.0-10.176-0.176","","","","Rate your confidence","1",""
"203.39999997615814","e","choice","left","e","experimental","1583","1023523","0.0-4.0-8.177","true","178","2.349999999999999","","",""
"1787.7000000476837","5","confid","","","html-slider-response","1585","1025815","0.0-4.0-10.177-0.177","","","","Rate your confidence","1",""
"424.89999997615814","i","choice","right","i","experimental","1592","1028021","0.0-4.0-8.178","true","179","2.249999999999999","","",""
"2376.099999964237","5","confid","","","html-slider-response","1594","1030900","0.0-4.0-10.178-0.178","","","","Rate your confidence","1",""
"919.7000000476837","e","choice","left","e","experimental","1601","1033611","0.0-4.0-8.179","true","180","2.249999999999999","","",""
"2689.399999976158","6","confid","","","html-slider-response","1603","1036805","0.0-4.0-10.179-0.179","","","","Rate your confidence","1",""
"257.60000002384186","e","choice","left","e","experimental","1610","1038857","0.0-4.0-8.180","true","181","2.149999999999999","","",""
"1971.699999988079","6","confid","","","html-slider-response","1612","1041333","0.0-4.0-10.180-0.180","","","","Rate your confidence","1",""
"463.19999998807907","i","choice","right","i","experimental","1619","1043576","0.0-4.0-8.181","true","182","2.149999999999999","","",""
"2558.5","3","confid","","","html-slider-response","1621","1046639","0.0-4.0-10.181-0.181","","","","Rate your confidence","1",""
"568.6000000238419","e","choice","right","i","experimental","1628","1048988","0.0-4.0-8.182","false","183","2.049999999999999","","",""
"2845","4","confid","","","html-slider-response","1630","1052337","0.0-4.0-10.182-0.182","","","","Rate your confidence","1",""
"283.4000000357628","e","choice","left","e","experimental","1637","1054407","0.0-4.0-8.183","true","184","2.149999999999999","","",""
"2312.900000035763","5","confid","","","html-slider-response","1639","1057227","0.0-4.0-10.183-0.183","","","","Rate your confidence","1",""
"312.69999998807907","i","choice","left","e","experimental","1646","1059327","0.0-4.0-8.184","false","185","2.149999999999999","","",""
"1992.3999999761581","6","confid","","","html-slider-response","1648","1061823","0.0-4.0-10.184-0.184","","","","Rate your confidence","1",""
"400.0999999642372","i","choice","right","i","experimental","1655","1064003","0.0-4.0-8.185","true","186","2.249999999999999","","",""
"1677","2","confid","","","html-slider-response","1657","1066185","0.0-4.0-10.185-0.185","","","","Rate your confidence","1",""
"427.69999998807907","e","choice","right","i","experimental","1664","1068391","0.0-4.0-8.186","false","187","2.249999999999999","","",""
"1844.199999988079","4","confid","","","html-slider-response","1666","1070739","0.0-4.0-10.186-0.186","","","","Rate your confidence","1",""
"623.0999999642372","i","choice","left","e","experimental","1673","1073149","0.0-4.0-8.187","false","188","2.349999999999999","","",""
"2821.5","5","confid","","","html-slider-response","1675","1076474","0.0-4.0-10.187-0.187","","","","Rate your confidence","1",""
"292.0999999642372","e","choice","left","e","experimental","1682","1078550","0.0-4.0-8.188","true","189","2.4499999999999993","","",""
"1687.0999999642372","5","confid","","","html-slider-response","1684","1080742","0.0-4.0-10.188-0.188","","","","Rate your confidence","1",""
"263.4000000357628","i","choice","right","i","experimental","1691","1082792","0.0-4.0-8.189","true","190","2.4499999999999993","","",""
"1633.4000000357628","4","confid","","","html-slider-response","1693","1084930","0.0-4.0-10.189-0.189","","","","Rate your confidence","1",""
"646.8999999761581","e","choice","right","i","experimental","1700","1087352","0.0-4.0-8.190","false","191","2.349999999999999","","",""
"3903.5","2","confid","","","html-slider-response","1702","1091759","0.0-4.0-10.190-0.190","","","","Rate your confidence","1",""
"228.10000002384186","e","choice","left","e","experimental","1709","1093769","0.0-4.0-8.191","true","192","2.4499999999999993","","",""
"2214.800000011921","5","confid","","","html-slider-response","1711","1096487","0.0-4.0-10.191-0.191","","","","Rate your confidence","1",""
"531.2999999523163","e","choice","left","e","experimental","1718","1098810","0.0-4.0-8.192","true","193","2.4499999999999993","","",""
"1982.800000011921","5","confid","","","html-slider-response","1720","1101297","0.0-4.0-10.192-0.192","","","","Rate your confidence","1",""
"290.60000002384186","i","choice","right","i","experimental","1727","1103374","0.0-4.0-8.193","true","194","2.349999999999999","","",""
"2203.600000023842","4","confid","","","html-slider-response","1729","1106081","0.0-4.0-10.193-0.193","","","","Rate your confidence","1","36786"
