"rt","response","task","target_side","correct_response","trial_type","trial_index","time_elapsed","internal_node_id","correct","trial_number","n_dots","stimulus","slider_start","participant"
"308.79999999998836","e","choice","left","e","practice","10","44221","0.0-4.0-8.0","true","1","4.25","","",""
"232.80000000001746","i","choice","right","i","practice","18","46750","0.0-4.0-8.1","true","2","4.25","","",""
"324.3999999999942","i","choice","right","i","practice","26","49347","0.0-4.0-8.2","true","3","3.85","","",""
"290.3999999999942","e","choice","left","e","practice","34","51940","0.0-4.0-8.3","true","4","3.85","","",""
"278.8999999999942","i","choice","left","e","practice","42","54517","0.0-4.0-8.4","false","5","3.45","","",""
"314.5","i","choice","right","i","practice","50","57107","0.0-4.0-8.5","true","6","3.85","","",""
"677","i","choice","right","i","practice","58","60073","0.0-4.0-8.6","true","7","3.85","","",""
"331.5","e","choice","left","e","practice","66","62694","0.0-4.0-8.7","true","8","3.65","","",""
"416.30000000001746","i","choice","right","i","practice","74","65384","0.0-4.0-8.8","true","9","3.65","","",""
"306","e","choice","left","e","practice","82","67964","0.0-4.0-8.9","true","10","3.4499999999999997","","",""
"332.29999999998836","e","choice","left","e","practice","90","70590","0.0-4.0-8.10","true","11","3.4499999999999997","","",""
"366.5","i","choice","right","i","practice","98","73277","0.0-4.0-8.11","true","12","3.3499999999999996","","",""
"423.8999999999942","i","choice","right","i","practice","106","75999","0.0-4.0-8.12","true","13","3.3499999999999996","","",""
"299.1000000000058","e","choice","left","e","practice","114","78573","0.0-4.0-8.13","true","14","3.2499999999999996","","",""
"504.19999999998254","i","choice","right","i","practice","122","81354","0.0-4.0-8.14","true","15","3.2499999999999996","","",""
"263.0999999999767","e","choice","left","e","practice","130","83920","0.0-4.0-8.15","true","16","3.1499999999999995","","",""
"309.5","i","choice","right","i","practice","138","86545","0.0-4.0-8.16","true","17","3.1499999999999995","","",""
"480.5","e","choice","left","e","practice","146","89303","0.0-4.0-8.17","true","18","3.0499999999999994","","",""
"356.0999999999767","e","choice","left","e","practice","154","91971","0.0-4.0-8.18","true","19","3.0499999999999994","","",""
"492.80000000004657","i","choice","right","i","practice","162","94770","0.0-4.0-8.19","true","20","2.9499999999999993","","",""
"521","i","choice","right","i","practice","170","97563","0.0-4.0-8.20","true","21","2.9499999999999993","","",""
"313.79999999998836","e","choice","left","e","practice","178","100177","0.0-4.0-8.21","true","22","2.849999999999999","","",""
"427.8999999999651","i","choice","right","i","practice","186","102901","0.0-4.0-8.22","true","23","2.849999999999999","","",""
"166.09999999997672","e","choice","left","e","practice","194","105358","0.0-4.0-8.23","true","24","2.749999999999999","","",""
"297.70000000001164","e","choice","right","i","practice","202","107949","0.0-4.0-8.24","false","25","2.749999999999999","","",""
"281.3999999999651","e","choice","left","e","practice","210","110530","0.0-4.0-8.25","true","26","2.849999999999999","","",""
"269.8999999999651","i","choice","right","i","experimental","221","131639","0.0-4.0-8.26","true","27","2.849999999999999","","",""
"4361.600000000035","4","confid","","","html-slider-response","223","136504","0.0-4.0-10.26-0.26","","","","Rate your confidence","1",""
"966.2999999999884","i","choice","left","e","experimental","230","139243","0.0-4.0-8.27","false","28","2.749999999999999","","",""
"3492.7999999999884","2","confid","","","html-slider-response","232","143241","0.0-4.0-10.27-0.27","","","","Rate your confidence","1",""
"530.5999999999767","e","choice","left","e","experimental","239","145547","0.0-4.0-8.28","true","29","2.849999999999999","","",""
"3218.2000000000116","2","confid","","","html-slider-response","241","149269","0.0-4.0-10.28-0.28","","","","Rate your confidence","1",""
"380.5","i","choice","right","i","experimental","248","151449","0.0-4.0-8.29","true","30","2.849999999999999","","",""
"2759.7000000000116","2","confid","","","html-slider-response","250","154712","0.0-4.0-10.29-0.29","","","","Rate your confidence","1",""
"392.70000000001164","e","choice","left","e","experimental","257","156880","0.0-4.0-8.30","true","31","2.749999999999999","","",""
"4412.099999999977","3","confid","","","html-slider-response","259","161795","0.0-4.0-10.30-0.30","","","","Rate your confidence","1",""
"310.79999999998836","i","choice","right","i","experimental","266","163882","0.0-4.0-8.31","true","32","2.749999999999999","","",""
"2713","4","confid","","","html-slider-response","268","167099","0.0-4.0-10.31-0.31","","","","Rate your confidence","1",""
"342.69999999995343","e","choice","left","e","experimental","275","169216","0.0-4.0-8.32","true","33","2.649999999999999","","",""
"3520.8000000000466","2","confid","","","html-slider-response","277","173240","0.0-4.0-10.32-0.32","","","","Rate your confidence","1",""
"322.70000000001164","i","choice","right","i","experimental","284","175359","0.0-4.0-8.33","true","34","2.649999999999999","","",""
"2371.2000000000116","3","confid","","","html-slider-response","286","178233","0.0-4.0-10.33-0.33","","","","Rate your confidence","1",""
"314.70000000001164","e","choice","left","e","experimental","293","180345","0.0-4.0-8.34","true","35","2.549999999999999","","",""
"3135.8000000000466","4","confid","","","html-slider-response","295","183984","0.0-4.0-10.34-0.34","","","","Rate your confidence","1",""
"449.29999999998836","i","choice","right","i","experimental","302","186231","0.0-4.0-8.35","true","36","2.549999999999999","","",""
"4799.399999999965","3","confid","","","html-slider-response","304","191534","0.0-4.0-10.35-0.35","","","","Rate your confidence","1",""
"461.0999999999767","e","choice","left","e","experimental","311","193790","0.0-4.0-8.36","true","37","2.449999999999999","","",""
"15272.5","3","confid","","","html-slider-response","313","209566","0.0-4.0-10.36-0.36","","","","Rate your confidence","1",""
"321.5","e","choice","right","i","experimental","320","211659","0.0-4.0-8.37","false","38","2.449999999999999","","",""
"2948","3","confid","","","html-slider-response","322","215111","0.0-4.0-10.37-0.37","","","","Rate your confidence","1",""
"319.5","e","choice","left","e","experimental","329","217204","0.0-4.0-8.38","true","39","2.549999999999999","","",""
"3011.899999999965","4","confid","","","html-slider-response","331","220719","0.0-4.0-10.38-0.38","","","","Rate your confidence","1",""
"367","i","choice","right","i","experimental","338","222860","0.0-4.0-8.39","true","40","2.549999999999999","","",""
"4151.200000000012","2","confid","","","html-slider-response","340","227518","0.0-4.0-10.39-0.39","","","","Rate your confidence","1",""
"275.5999999999767","e","choice","right","i","experimental","347","229589","0.0-4.0-8.40","false","41","2.449999999999999","","",""
"2629.9000000000233","3","confid","","","html-slider-response","349","232722","0.0-4.0-10.40-0.40","","","","Rate your confidence","1",""
"268.5999999999767","e","choice","left","e","experimental","356","234785","0.0-4.0-8.41","true","42","2.549999999999999","","",""
"2942.9000000000233","3","confid","","","html-slider-response","358","238232","0.0-4.0-10.41-0.41","","","","Rate your confidence","1",""
"282.5999999999767","e","choice","left","e","experimental","365","240310","0.0-4.0-8.42","true","43","2.549999999999999","","",""
"4114.899999999965","3","confid","","","html-slider-response","367","244929","0.0-4.0-10.42-0.42","","","","Rate your confidence","1",""
"316","e","choice","right","i","experimental","374","247017","0.0-4.0-8.43","false","44","2.449999999999999","","",""
"4502.699999999953","2","confid","","","html-slider-response","376","252024","0.0-4.0-10.43-0.43","","","","Rate your confidence","1",""
"450.80000000004657","e","choice","left","e","experimental","383","254255","0.0-4.0-8.44","true","45","2.549999999999999","","",""
"4283.399999999965","2","confid","","","html-slider-response","385","259042","0.0-4.0-10.44-0.44","","","","Rate your confidence","1",""
"749.0999999999767","i","choice","right","i","experimental","392","261566","0.0-4.0-8.45","true","46","2.549999999999999","","",""
"5844.400000000023","2","confid","","","html-slider-response","394","267915","0.0-4.0-10.45-0.45","","","","Rate your confidence","1",""
"459.3999999999651","e","choice","right","i","experimental","401","270171","0.0-4.0-8.46","false","47","2.449999999999999","","",""
"3130.7000000000116","2","confid","","","html-slider-response","403","273806","0.0-4.0-10.46-0.46","","","","Rate your confidence","1",""
"444.4000000000233","e","choice","left","e","experimental","410","276025","0.0-4.0-8.47","true","48","2.549999999999999","","",""
"2974.100000000035","2","confid","","","html-slider-response","412","279503","0.0-4.0-10.47-0.47","","","","Rate your confidence","1",""
"1016.5","e","choice","left","e","experimental","419","282314","0.0-4.0-8.48","true","49","2.549999999999999","","",""
"4185.400000000023","2","confid","","","html-slider-response","421","287004","0.0-4.0-10.48-0.48","","","","Rate your confidence","1",""
"311.30000000004657","e","choice","right","i","experimental","428","289113","0.0-4.0-8.49","false","50","2.449999999999999","","",""
"3735.399999999965","3","confid","","","html-slider-response","430","293352","0.0-4.0-10.49-0.49","","","","Rate your confidence","1",""
"416.79999999998836","e","choice","right","i","experimental","437","295576","0.0-4.0-8.50","false","51","2.549999999999999","","",""
"12225.200000000012","2","confid","","","html-slider-response","439","308304","0.0-4.0-10.50-0.50","","","","Rate your confidence","1",""
"315.5","e","choice","left","e","experimental","446","310397","0.0-4.0-8.51","true","52","2.649999999999999","","",""
"4308","3","confid","","","html-slider-response","448","315209","0.0-4.0-10.51-0.51","","","","Rate your confidence","1",""
"443.20000000001164","i","choice","right","i","experimental","455","317428","0.0-4.0-8.52","true","53","2.649999999999999","","",""
"3047.1999999999534","3","confid","","","html-slider-response","457","320978","0.0-4.0-10.52-0.52","","","","Rate your confidence","1",""
"386.20000000001164","e","choice","left","e","experimental","464","323158","0.0-4.0-8.53","true","54","2.549999999999999","","",""
"3774.7999999999884","3","confid","","","html-slider-response","466","327437","0.0-4.0-10.53-0.53","","","","Rate your confidence","1",""
"395.79999999998836","e","choice","right","i","experimental","473","329625","0.0-4.0-8.54","false","55","2.549999999999999","","",""
"2957.0999999999767","4","confid","","","html-slider-response","475","333087","0.0-4.0-10.54-0.54","","","","Rate your confidence","1",""
"244","e","choice","left","e","experimental","482","335127","0.0-4.0-8.55","true","56","2.649999999999999","","",""
"2509.2000000000116","5","confid","","","html-slider-response","484","338140","0.0-4.0-10.55-0.55","","","","Rate your confidence","1",""
"675.1000000000349","i","choice","right","i","experimental","491","340618","0.0-4.0-8.56","true","57","2.649999999999999","","",""
"3790.100000000035","4","confid","","","html-slider-response","493","344912","0.0-4.0-10.56-0.56","","","","Rate your confidence","1",""
"275.19999999995343","e","choice","left","e","experimental","500","346963","0.0-4.0-8.57","true","58","2.549999999999999","","",""
"3210.9000000000233","4","confid","","","html-slider-response","502","350678","0.0-4.0-10.57-0.57","","","","Rate your confidence","1",""
"290.19999999995343","e","choice","left","e","experimental","509","352743","0.0-4.0-8.58","true","59","2.549999999999999","","",""
"3396.5999999999767","3","confid","","","html-slider-response","511","356644","0.0-4.0-10.58-0.58","","","","Rate your confidence","1",""
"633.8000000000466","i","choice","right","i","experimental","518","359078","0.0-4.0-8.59","true","60","2.449999999999999","","",""
"3504.6999999999534","3","confid","","","html-slider-response","520","363086","0.0-4.0-10.59-0.59","","","","Rate your confidence","1",""
"282.89999999990687","e","choice","left","e","experimental","527","365144","0.0-4.0-8.60","true","61","2.449999999999999","","",""
"3004.9000000000233","3","confid","","","html-slider-response","529","368652","0.0-4.0-10.60-0.60","","","","Rate your confidence","1",""
"670.5999999999767","i","choice","right","i","experimental","536","371098","0.0-4.0-8.61","true","62","2.3499999999999988","","",""
"2935.899999999907","2","confid","","","html-slider-response","538","374538","0.0-4.0-10.61-0.61","","","","Rate your confidence","1",""
"300.20000000006985","e","choice","left","e","experimental","545","376613","0.0-4.0-8.62","true","63","2.3499999999999988","","",""
"4751.5","4","confid","","","html-slider-response","547","381869","0.0-4.0-10.62-0.62","","","","Rate your confidence","1",""
"308.4000000000233","e","choice","right","i","experimental","554","383972","0.0-4.0-8.63","false","64","2.2499999999999987","","",""
"2896.79999999993","2","confid","","","html-slider-response","556","387373","0.0-4.0-10.63-0.63","","","","Rate your confidence","1",""
"299.5","e","choice","right","i","experimental","563","389449","0.0-4.0-8.64","false","65","2.3499999999999988","","",""
"2670.8000000000466","4","confid","","","html-slider-response","565","392624","0.0-4.0-10.64-0.64","","","","Rate your confidence","1",""
"256.79999999993015","e","choice","left","e","experimental","572","394675","0.0-4.0-8.65","true","66","2.449999999999999","","",""
"2843.79999999993","4","confid","","","html-slider-response","574","398023","0.0-4.0-10.65-0.65","","","","Rate your confidence","1",""
"304.30000000004657","e","choice","right","i","experimental","581","400103","0.0-4.0-8.66","false","67","2.449999999999999","","",""
"2600.8000000000466","3","confid","","","html-slider-response","583","403227","0.0-4.0-10.66-0.66","","","","Rate your confidence","1",""
"409.9000000000233","e","choice","left","e","experimental","590","405411","0.0-4.0-8.67","true","68","2.549999999999999","","",""
"3137.6999999999534","3","confid","","","html-slider-response","592","409053","0.0-4.0-10.67-0.67","","","","Rate your confidence","1",""
"241.10000000009313","e","choice","left","e","experimental","600","565916","0.0-4.0-8.68","true","69","2.549999999999999","","",""
"3334.600000000093","4","confid","","","html-slider-response","602","569755","0.0-4.0-10.68-0.68","","","","Rate your confidence","1",""
"248.5","e","choice","right","i","experimental","609","571779","0.0-4.0-8.69","false","70","2.449999999999999","","",""
"2670.399999999907","5","confid","","","html-slider-response","611","574954","0.0-4.0-10.69-0.69","","","","Rate your confidence","1",""
"262.5","e","choice","right","i","experimental","618","576992","0.0-4.0-8.70","false","71","2.549999999999999","","",""
"2781.3000000000466","5","confid","","","html-slider-response","620","580278","0.0-4.0-10.70-0.70","","","","Rate your confidence","1",""
"315.30000000004657","e","choice","left","e","experimental","627","582369","0.0-4.0-8.71","true","72","2.649999999999999","","",""
"3129.4000000001397","3","confid","","","html-slider-response","629","586023","0.0-4.0-10.71-0.71","","","","Rate your confidence","1",""
"256.9000000001397","e","choice","right","i","experimental","636","588056","0.0-4.0-8.72","false","73","2.649999999999999","","",""
"2955.7999999998137","3","confid","","","html-slider-response","638","591516","0.0-4.0-10.72-0.72","","","","Rate your confidence","1",""
"332.69999999995343","e","choice","left","e","experimental","645","593625","0.0-4.0-8.73","true","74","2.749999999999999","","",""
"2894.5","3","confid","","","html-slider-response","647","597024","0.0-4.0-10.73-0.73","","","","Rate your confidence","1",""
"342.19999999995343","e","choice","right","i","experimental","654","599144","0.0-4.0-8.74","false","75","2.749999999999999","","",""
"3131.9000000001397","3","confid","","","html-slider-response","656","602780","0.0-4.0-10.74-0.74","","","","Rate your confidence","1",""
"273.80000000004657","e","choice","left","e","experimental","663","604847","0.0-4.0-8.75","true","76","2.849999999999999","","",""
"3142.9000000001397","5","confid","","","html-slider-response","665","608494","0.0-4.0-10.75-0.75","","","","Rate your confidence","1",""
"294.5","e","choice","left","e","experimental","672","610591","0.0-4.0-8.76","true","77","2.849999999999999","","",""
"3772","4","confid","","","html-slider-response","674","614867","0.0-4.0-10.76-0.76","","","","Rate your confidence","1",""
"502.30000000004657","e","choice","right","i","experimental","681","617145","0.0-4.0-8.77","false","78","2.749999999999999","","",""
"15209.699999999953","4","confid","","","html-slider-response","683","632859","0.0-4.0-10.77-0.77","","","","Rate your confidence","1",""
"281.30000000004657","e","choice","right","i","experimental","690","634919","0.0-4.0-8.78","false","79","2.849999999999999","","",""
"3070.100000000093","3","confid","","","html-slider-response","692","638493","0.0-4.0-10.78-0.78","","","","Rate your confidence","1",""
"523.9000000001397","i","choice","left","e","experimental","699","640792","0.0-4.0-8.79","false","80","2.9499999999999993","","",""
"2853.8000000000466","2","confid","","","html-slider-response","701","644150","0.0-4.0-10.79-0.79","","","","Rate your confidence","1",""
"278.0999999998603","e","choice","left","e","experimental","708","646227","0.0-4.0-8.80","true","81","3.0499999999999994","","",""
"2572.1999999999534","4","confid","","","html-slider-response","710","649304","0.0-4.0-10.80-0.80","","","","Rate your confidence","1",""
"313.89999999990687","e","choice","right","i","experimental","717","651415","0.0-4.0-8.81","false","82","3.0499999999999994","","",""
"2560.100000000093","3","confid","","","html-slider-response","719","654479","0.0-4.0-10.81-0.81","","","","Rate your confidence","1",""
"1992.1000000000931","e","choice","left","e","experimental","726","658250","0.0-4.0-8.82","true","83","3.1499999999999995","","",""
"4872.09999999986","1","confid","","","html-slider-response","728","663626","0.0-4.0-10.82-0.82","","","","Rate your confidence","1",""
"420.0999999998603","i","choice","right","i","experimental","735","665822","0.0-4.0-8.83","true","84","3.1499999999999995","","",""
"2985.5","3","confid","","","html-slider-response","737","669312","0.0-4.0-10.83-0.83","","","","Rate your confidence","1",""
"735.2999999998137","e","choice","left","e","experimental","744","671843","0.0-4.0-8.84","true","85","3.0499999999999994","","",""
"2365.1999999999534","2","confid","","","html-slider-response","746","674713","0.0-4.0-10.84-0.84","","","","Rate your confidence","1",""
"1451","e","choice","right","i","experimental","753","677938","0.0-4.0-8.85","false","86","3.0499999999999994","","",""
"3290.100000000093","2","confid","","","html-slider-response","755","681733","0.0-4.0-10.85-0.85","","","","Rate your confidence","1",""
"274.69999999995343","e","choice","left","e","experimental","762","683806","0.0-4.0-8.86","true","87","3.1499999999999995","","",""
"2909","4","confid","","","html-slider-response","764","687219","0.0-4.0-10.86-0.86","","","","Rate your confidence","1",""
"300.39999999990687","e","choice","right","i","experimental","771","689297","0.0-4.0-8.87","false","88","3.1499999999999995","","",""
"2694.3000000000466","3","confid","","","html-slider-response","773","692496","0.0-4.0-10.87-0.87","","","","Rate your confidence","1",""
"274.39999999990687","e","choice","left","e","experimental","780","694547","0.0-4.0-8.88","true","89","3.2499999999999996","","",""
"2920.5","3","confid","","","html-slider-response","782","697972","0.0-4.0-10.88-0.88","","","","Rate your confidence","1",""
"328.5","e","choice","right","i","experimental","789","700075","0.0-4.0-8.89","false","90","3.2499999999999996","","",""
"2848.5999999998603","3","confid","","","html-slider-response","791","703429","0.0-4.0-10.89-0.89","","","","Rate your confidence","1",""
"304.5","e","choice","right","i","experimental","798","705509","0.0-4.0-8.90","false","91","3.3499999999999996","","",""
"2954.0999999998603","3","confid","","","html-slider-response","800","708967","0.0-4.0-10.90-0.90","","","","Rate your confidence","1",""
"286","e","choice","left","e","experimental","807","711030","0.0-4.0-8.91","true","92","3.4499999999999997","","",""
"2830.1999999999534","3","confid","","","html-slider-response","809","714365","0.0-4.0-10.91-0.91","","","","Rate your confidence","1",""
"305.30000000004657","e","choice","right","i","experimental","816","716445","0.0-4.0-8.92","false","93","3.4499999999999997","","",""
"3717.600000000093","3","confid","","","html-slider-response","818","720667","0.0-4.0-10.92-0.92","","","","Rate your confidence","1",""
"338.80000000004657","e","choice","left","e","experimental","825","722783","0.0-4.0-8.93","true","94","3.55","","",""
"3214.100000000093","4","confid","","","html-slider-response","827","726501","0.0-4.0-10.93-0.93","","","","Rate your confidence","1",""
"280.5999999998603","e","choice","right","i","experimental","834","728558","0.0-4.0-8.94","false","95","3.55","","",""
"3467.0999999998603","4","confid","","","html-slider-response","836","732529","0.0-4.0-10.94-0.94","","","","Rate your confidence","1",""
"280.79999999981374","e","choice","left","e","experimental","843","734604","0.0-4.0-8.95","true","96","3.65","","",""
"2538.600000000093","4","confid","","","html-slider-response","845","737647","0.0-4.0-10.95-0.95","","","","Rate your confidence","1",""
"239.19999999995343","e","choice","left","e","experimental","852","739682","0.0-4.0-8.96","true","97","3.65","","",""
"3356.5","5","confid","","","html-slider-response","854","743543","0.0-4.0-10.96-0.96","","","","Rate your confidence","1",""
"295.10000000009313","e","choice","right","i","experimental","861","745620","0.0-4.0-8.97","false","98","3.55","","",""
"2790.3000000000466","4","confid","","","html-slider-response","863","748915","0.0-4.0-10.97-0.97","","","","Rate your confidence","1",""
"244.5999999998603","e","choice","left","e","experimental","870","750935","0.0-4.0-8.98","true","99","3.65","","",""
"2946.899999999907","4","confid","","","html-slider-response","872","754386","0.0-4.0-10.98-0.98","","","","Rate your confidence","1",""
"1084","e","choice","right","i","experimental","879","757246","0.0-4.0-8.99","false","100","3.65","","",""
"4581.899999999907","3","confid","","","html-slider-response","881","762333","0.0-4.0-10.99-0.99","","","","Rate your confidence","1",""
"1205.6000000000931","i","choice","right","i","experimental","888","765315","0.0-4.0-8.100","true","101","3.75","","",""
"2837.0999999998603","2","confid","","","html-slider-response","890","768656","0.0-4.0-10.100-0.100","","","","Rate your confidence","1",""
"249.0999999998603","e","choice","left","e","experimental","897","770703","0.0-4.0-8.101","true","102","3.75","","",""
"3683.8000000000466","4","confid","","","html-slider-response","899","774891","0.0-4.0-10.101-0.101","","","","Rate your confidence","1",""
"285.80000000004657","e","choice","left","e","experimental","906","776976","0.0-4.0-8.102","true","103","3.65","","",""
"2359.100000000093","4","confid","","","html-slider-response","908","779840","0.0-4.0-10.102-0.102","","","","Rate your confidence","1",""
"1625.3000000000466","i","choice","right","i","experimental","915","783241","0.0-4.0-8.103","true","104","3.65","","",""
"3909.5","2","confid","","","html-slider-response","917","787655","0.0-4.0-10.103-0.103","","","","Rate your confidence","1",""
"215.80000000004657","e","choice","left","e","experimental","924","789647","0.0-4.0-8.104","true","105","3.55","","",""
"2771.0999999998603","4","confid","","","html-slider-response","926","792923","0.0-4.0-10.104-0.104","","","","Rate your confidence","1",""
"298","e","choice","right","i","experimental","933","794996","0.0-4.0-8.105","false","106","3.55","","",""
"2702","4","confid","","","html-slider-response","935","798202","0.0-4.0-10.105-0.105","","","","Rate your confidence","1",""
"333.79999999981374","e","choice","left","e","experimental","942","800313","0.0-4.0-8.106","true","107","3.65","","",""
"2880.899999999907","3","confid","","","html-slider-response","944","803699","0.0-4.0-10.106-0.106","","","","Rate your confidence","1",""
"321.80000000004657","e","choice","right","i","experimental","951","805818","0.0-4.0-8.107","false","108","3.65","","",""
"2988.6999999999534","3","confid","","","html-slider-response","953","809311","0.0-4.0-10.107-0.107","","","","Rate your confidence","1",""
"343.39999999990687","e","choice","left","e","experimental","960","811429","0.0-4.0-8.108","true","109","3.75","","",""
"2971","3","confid","","","html-slider-response","962","814905","0.0-4.0-10.108-0.108","","","","Rate your confidence","1",""
"301","i","choice","right","i","experimental","969","816982","0.0-4.0-8.109","true","110","3.75","","",""
"4607.800000000047","3","confid","","","html-slider-response","971","822117","0.0-4.0-10.109-0.109","","","","Rate your confidence","1",""
"220.9000000001397","e","choice","left","e","experimental","979","826880","0.0-4.0-8.110","true","111","3.65","","",""
"2983.3000000000466","5","confid","","","html-slider-response","981","830367","0.0-4.0-10.110-0.110","","","","Rate your confidence","1",""
"358.10000000009313","i","choice","right","i","experimental","988","832528","0.0-4.0-8.111","true","112","3.65","","",""
"3272.6999999999534","4","confid","","","html-slider-response","990","836304","0.0-4.0-10.111-0.111","","","","Rate your confidence","1",""
"396.39999999990687","i","choice","right","i","experimental","997","838478","0.0-4.0-8.112","true","113","3.55","","",""
"2730.100000000093","3","confid","","","html-slider-response","999","841713","0.0-4.0-10.112-0.112","","","","Rate your confidence","1",""
"253.30000000004657","e","choice","left","e","experimental","1006","843744","0.0-4.0-8.113","true","114","3.55","","",""
"2369.3000000000466","3","confid","","","html-slider-response","1008","846619","0.0-4.0-10.113-0.113","","","","Rate your confidence","1",""
"263.10000000009313","e","choice","left","e","experimental","1015","848659","0.0-4.0-8.114","true","115","3.4499999999999997","","",""
"2608","4","confid","","","html-slider-response","1017","851771","0.0-4.0-10.114-0.114","","","","Rate your confidence","1",""
"298.10000000009313","e","choice","right","i","experimental","1024","853846","0.0-4.0-8.115","false","116","3.4499999999999997","","",""
"2525.399999999907","2","confid","","","html-slider-response","1026","856876","0.0-4.0-10.115-0.115","","","","Rate your confidence","1",""
"423.9000000001397","i","choice","right","i","experimental","1033","859077","0.0-4.0-8.116","true","117","3.55","","",""
"2904.899999999907","2","confid","","","html-slider-response","1035","862486","0.0-4.0-10.116-0.116","","","","Rate your confidence","1",""
"335.70000000018626","e","choice","left","e","experimental","1042","864621","0.0-4.0-8.117","true","118","3.55","","",""
"2768.1999999999534","2","confid","","","html-slider-response","1044","867894","0.0-4.0-10.117-0.117","","","","Rate your confidence","1",""
"303.5","i","choice","right","i","experimental","1051","869974","0.0-4.0-8.118","true","119","3.4499999999999997","","",""
"2594.5","3","confid","","","html-slider-response","1053","873073","0.0-4.0-10.118-0.118","","","","Rate your confidence","1",""
"530","e","choice","left","e","experimental","1060","875402","0.0-4.0-8.119","true","120","3.4499999999999997","","",""
"4064.6999999999534","1","confid","","","html-slider-response","1062","879971","0.0-4.0-10.119-0.119","","","","Rate your confidence","1",""
"261.4000000001397","i","choice","right","i","experimental","1069","882010","0.0-4.0-8.120","true","121","3.3499999999999996","","",""
"2835.8000000000466","2","confid","","","html-slider-response","1071","885373","0.0-4.0-10.120-0.120","","","","Rate your confidence","1",""
"346.30000000004657","e","choice","left","e","experimental","1078","887496","0.0-4.0-8.121","true","122","3.3499999999999996","","",""
"2777.2999999998137","2","confid","","","html-slider-response","1080","890777","0.0-4.0-10.121-0.121","","","","Rate your confidence","1",""
"261","i","choice","right","i","experimental","1087","892843","0.0-4.0-8.122","true","123","3.2499999999999996","","",""
"5969","3","confid","","","html-slider-response","1089","899317","0.0-4.0-10.122-0.122","","","","Rate your confidence","1",""
"232.0999999998603","e","choice","left","e","experimental","1096","901326","0.0-4.0-8.123","true","124","3.2499999999999996","","",""
"2436.100000000093","3","confid","","","html-slider-response","1098","904266","0.0-4.0-10.123-0.123","","","","Rate your confidence","1",""
"353.30000000004657","i","choice","right","i","experimental","1105","906420","0.0-4.0-8.124","true","125","3.1499999999999995","","",""
"5299.800000000047","2","confid","","","html-slider-response","1107","912224","0.0-4.0-10.124-0.124","","","","Rate your confidence","1",""
"307.60000000009313","e","choice","left","e","experimental","1114","914332","0.0-4.0-8.125","true","126","3.1499999999999995","","",""
"4257.199999999953","3","confid","","","html-slider-response","1116","919094","0.0-4.0-10.125-0.125","","","","Rate your confidence","1",""
"335.80000000004657","e","choice","left","e","experimental","1123","921207","0.0-4.0-8.126","true","127","3.0499999999999994","","",""
"3048.6999999999534","3","confid","","","html-slider-response","1125","924760","0.0-4.0-10.126-0.126","","","","Rate your confidence","1",""
"292.9000000001397","i","choice","right","i","experimental","1132","926830","0.0-4.0-8.127","true","128","3.0499999999999994","","",""
"2958.8000000000466","3","confid","","","html-slider-response","1134","930293","0.0-4.0-10.127-0.127","","","","Rate your confidence","1",""
"331.80000000004657","e","choice","left","e","experimental","1141","932404","0.0-4.0-8.128","true","129","2.9499999999999993","","",""
"4019.1999999999534","3","confid","","","html-slider-response","1143","936928","0.0-4.0-10.128-0.128","","","","Rate your confidence","1",""
"358.89999999990687","e","choice","right","i","experimental","1150","939065","0.0-4.0-8.129","false","130","2.9499999999999993","","",""
"3044.3000000000466","3","confid","","","html-slider-response","1152","942613","0.0-4.0-10.129-0.129","","","","Rate your confidence","1",""
"291.80000000004657","i","choice","right","i","experimental","1159","944714","0.0-4.0-8.130","true","131","3.0499999999999994","","",""
"3270.5","3","confid","","","html-slider-response","1161","948490","0.0-4.0-10.130-0.130","","","","Rate your confidence","1",""
"616","e","choice","left","e","experimental","1168","950902","0.0-4.0-8.131","true","132","3.0499999999999994","","",""
"3044.1999999999534","1","confid","","","html-slider-response","1170","954451","0.0-4.0-10.131-0.131","","","","Rate your confidence","1",""
"554.1000000000931","i","choice","left","e","experimental","1177","956781","0.0-4.0-8.132","false","133","2.9499999999999993","","",""
"3590.5","1","confid","","","html-slider-response","1179","960876","0.0-4.0-10.132-0.132","","","","Rate your confidence","1",""
"348.19999999995343","e","choice","right","i","experimental","1186","963007","0.0-4.0-8.133","false","134","3.0499999999999994","","",""
"2549.8000000000466","2","confid","","","html-slider-response","1188","966062","0.0-4.0-10.133-0.133","","","","Rate your confidence","1",""
"257.19999999995343","i","choice","right","i","experimental","1195","968096","0.0-4.0-8.134","true","135","3.1499999999999995","","",""
"2874.2999999998137","3","confid","","","html-slider-response","1197","971497","0.0-4.0-10.134-0.134","","","","Rate your confidence","1",""
"321.19999999995343","e","choice","left","e","experimental","1204","973597","0.0-4.0-8.135","true","136","3.1499999999999995","","",""
"3602.5999999998603","3","confid","","","html-slider-response","1206","977704","0.0-4.0-10.135-0.135","","","","Rate your confidence","1",""
"304.29999999981374","e","choice","left","e","experimental","1213","979808","0.0-4.0-8.136","true","137","3.0499999999999994","","",""
"3179","3","confid","","","html-slider-response","1215","983492","0.0-4.0-10.136-0.136","","","","Rate your confidence","1",""
"274.0999999998603","i","choice","right","i","experimental","1222","985569","0.0-4.0-8.137","true","138","3.0499999999999994","","",""
"3286","2","confid","","","html-slider-response","1224","989359","0.0-4.0-10.137-0.137","","","","Rate your confidence","1",""
"260","i","choice","right","i","experimental","1231","991419","0.0-4.0-8.138","true","139","2.9499999999999993","","",""
"3479.9000000001397","2","confid","","","html-slider-response","1233","995403","0.0-4.0-10.138-0.138","","","","Rate your confidence","1",""
"289.30000000004657","e","choice","left","e","experimental","1240","997470","0.0-4.0-8.139","true","140","2.9499999999999993","","",""
"3469.1999999999534","3","confid","","","html-slider-response","1242","1001444","0.0-4.0-10.139-0.139","","","","Rate your confidence","1",""
"279.19999999995343","e","choice","left","e","experimental","1249","1003500","0.0-4.0-8.140","true","141","2.849999999999999","","",""
"2820.5999999998603","4","confid","","","html-slider-response","1251","1006825","0.0-4.0-10.140-0.140","","","","Rate your confidence","1",""
"778.8000000000466","e","choice","right","i","experimental","1258","1009406","0.0-4.0-8.141","false","142","2.849999999999999","","",""
"2450.9000000001397","2","confid","","","html-slider-response","1260","1012361","0.0-4.0-10.141-0.141","","","","Rate your confidence","1",""
"555.5999999998603","e","choice","right","i","experimental","1267","1014714","0.0-4.0-8.142","false","143","2.9499999999999993","","",""
"2723.100000000093","2","confid","","","html-slider-response","1269","1017941","0.0-4.0-10.142-0.142","","","","Rate your confidence","1",""
"309.29999999981374","e","choice","left","e","experimental","1276","1020027","0.0-4.0-8.143","true","144","3.0499999999999994","","",""
"3642.3000000000466","3","confid","","","html-slider-response","1278","1024174","0.0-4.0-10.143-0.143","","","","Rate your confidence","1",""
"294","e","choice","right","i","experimental","1285","1026245","0.0-4.0-8.144","false","145","3.0499999999999994","","",""
"2774.8000000000466","4","confid","","","html-slider-response","1287","1029524","0.0-4.0-10.144-0.144","","","","Rate your confidence","1",""
"289.39999999990687","e","choice","left","e","experimental","1294","1031591","0.0-4.0-8.145","true","146","3.1499999999999995","","",""
"3191.100000000093","3","confid","","","html-slider-response","1296","1035288","0.0-4.0-10.145-0.145","","","","Rate your confidence","1",""
"318.4000000001397","e","choice","left","e","experimental","1303","1037383","0.0-4.0-8.146","true","147","3.1499999999999995","","",""
"3117.100000000093","4","confid","","","html-slider-response","1305","1041005","0.0-4.0-10.146-0.146","","","","Rate your confidence","1",""
"248.39999999990687","i","choice","right","i","experimental","1312","1043031","0.0-4.0-8.147","true","148","3.0499999999999994","","",""
"4377.199999999953","3","confid","","","html-slider-response","1314","1047913","0.0-4.0-10.147-0.147","","","","Rate your confidence","1",""
"299.10000000009313","e","choice","right","i","experimental","1321","1049989","0.0-4.0-8.148","false","149","3.0499999999999994","","",""
"2499","3","confid","","","html-slider-response","1323","1052992","0.0-4.0-10.148-0.148","","","","Rate your confidence","1",""
"606.5","e","choice","left","e","experimental","1330","1055399","0.0-4.0-8.149","true","150","3.1499999999999995","","",""
"3556","3","confid","","","html-slider-response","1332","1059460","0.0-4.0-10.149-0.149","","","","Rate your confidence","1",""
"275","e","choice","left","e","experimental","1339","1061513","0.0-4.0-8.150","true","151","3.1499999999999995","","",""
"2587.399999999907","4","confid","","","html-slider-response","1341","1064605","0.0-4.0-10.150-0.150","","","","Rate your confidence","1",""
"284.30000000004657","i","choice","right","i","experimental","1348","1066667","0.0-4.0-8.151","true","152","3.0499999999999994","","",""
"2742.0999999998603","3","confid","","","html-slider-response","1350","1069937","0.0-4.0-10.151-0.151","","","","Rate your confidence","1",""
"275.80000000004657","e","choice","left","e","experimental","1358","1107870","0.0-4.0-8.152","true","153","3.0499999999999994","","",""
"3277.6999999999534","4","confid","","","html-slider-response","1360","1111652","0.0-4.0-10.152-0.152","","","","Rate your confidence","1",""
"978.1000000000931","e","choice","right","i","experimental","1367","1114407","0.0-4.0-8.153","false","154","2.9499999999999993","","",""
"2537.4000000001397","2","confid","","","html-slider-response","1369","1117450","0.0-4.0-10.153-0.153","","","","Rate your confidence","1",""
"661.5999999998603","e","choice","right","i","experimental","1376","1119911","0.0-4.0-8.154","false","155","3.0499999999999994","","",""
"3022.2000000001863","2","confid","","","html-slider-response","1378","1123437","0.0-4.0-10.154-0.154","","","","Rate your confidence","1",""
"192.5","e","choice","left","e","experimental","1385","1125430","0.0-4.0-8.155","true","156","3.1499999999999995","","",""
"2810","4","confid","","","html-slider-response","1387","1128744","0.0-4.0-10.155-0.155","","","","Rate your confidence","1",""
"281.5","e","choice","left","e","experimental","1394","1130801","0.0-4.0-8.156","true","157","3.1499999999999995","","",""
"2484.5","4","confid","","","html-slider-response","1396","1133790","0.0-4.0-10.156-0.156","","","","Rate your confidence","1",""
"337.30000000004657","e","choice","right","i","experimental","1403","1135906","0.0-4.0-8.157","false","158","3.0499999999999994","","",""
"2511.5","3","confid","","","html-slider-response","1405","1138922","0.0-4.0-10.157-0.157","","","","Rate your confidence","1",""
"300.10000000009313","e","choice","right","i","experimental","1412","1141002","0.0-4.0-8.158","false","159","3.1499999999999995","","",""
"2961.3000000000466","3","confid","","","html-slider-response","1414","1144467","0.0-4.0-10.158-0.158","","","","Rate your confidence","1",""
"295.89999999990687","e","choice","left","e","experimental","1421","1146564","0.0-4.0-8.159","true","160","3.2499999999999996","","",""
"3391.399999999907","3","confid","","","html-slider-response","1423","1150459","0.0-4.0-10.159-0.159","","","","Rate your confidence","1",""
"282.19999999995343","e","choice","left","e","experimental","1430","1152520","0.0-4.0-8.160","true","161","3.2499999999999996","","",""
"2939.600000000093","3","confid","","","html-slider-response","1432","1155964","0.0-4.0-10.160-0.160","","","","Rate your confidence","1",""
"543.4000000001397","e","choice","right","i","experimental","1439","1158286","0.0-4.0-8.161","false","162","3.1499999999999995","","",""
"5762.5","2","confid","","","html-slider-response","1441","1164554","0.0-4.0-10.161-0.161","","","","Rate your confidence","1",""
"405.70000000018626","e","choice","left","e","experimental","1448","1166737","0.0-4.0-8.162","true","163","3.2499999999999996","","",""
"2617.6999999999534","2","confid","","","html-slider-response","1450","1169859","0.0-4.0-10.162-0.162","","","","Rate your confidence","1",""
"489.89999999990687","i","choice","right","i","experimental","1457","1172127","0.0-4.0-8.163","true","164","3.2499999999999996","","",""
"3969.7000000001863","2","confid","","","html-slider-response","1459","1176601","0.0-4.0-10.163-0.163","","","","Rate your confidence","1",""
"402","i","choice","right","i","experimental","1466","1178780","0.0-4.0-8.164","true","165","3.1499999999999995","","",""
"2579.3000000000466","2","confid","","","html-slider-response","1468","1181864","0.0-4.0-10.164-0.164","","","","Rate your confidence","1",""
"359.30000000004657","i","choice","left","e","experimental","1475","1184019","0.0-4.0-8.165","false","166","3.1499999999999995","","",""
"2481.9000000001397","2","confid","","","html-slider-response","1477","1187005","0.0-4.0-10.165-0.165","","","","Rate your confidence","1",""
"275.5999999998603","e","choice","left","e","experimental","1484","1189084","0.0-4.0-8.166","true","167","3.2499999999999996","","",""
"3505","2","confid","","","html-slider-response","1486","1193093","0.0-4.0-10.166-0.166","","","","Rate your confidence","1",""
"253.4000000001397","i","choice","right","i","experimental","1493","1195146","0.0-4.0-8.167","true","168","3.2499999999999996","","",""
"2526.3000000000466","4","confid","","","html-slider-response","1495","1198179","0.0-4.0-10.167-0.167","","","","Rate your confidence","1",""
"345.69999999995343","e","choice","left","e","experimental","1502","1200302","0.0-4.0-8.168","true","169","3.1499999999999995","","",""
"2963.0999999998603","3","confid","","","html-slider-response","1504","1203770","0.0-4.0-10.168-0.168","","","","Rate your confidence","1",""
"3883.1999999999534","i","choice","right","i","experimental","1511","1209431","0.0-4.0-8.169","true","170","3.1499999999999995","","",""
"3085.1999999999534","2","confid","","","html-slider-response","1513","1213021","0.0-4.0-10.169-0.169","","","","Rate your confidence","1",""
"333.60000000009313","e","choice","left","e","experimental","1520","1215133","0.0-4.0-8.170","true","171","3.0499999999999994","","",""
"3414.399999999907","3","confid","","","html-slider-response","1522","1219052","0.0-4.0-10.170-0.170","","","","Rate your confidence","1",""
"411.5","i","choice","right","i","experimental","1529","1221258","0.0-4.0-8.171","true","172","3.0499999999999994","","",""
"2901.0999999998603","2","confid","","","html-slider-response","1531","1224664","0.0-4.0-10.171-0.171","","","","Rate your confidence","1",""
"262.39999999990687","e","choice","left","e","experimental","1538","1226725","0.0-4.0-8.172","true","173","2.9499999999999993","","",""
"3725.6999999999534","4","confid","","","html-slider-response","1540","1230955","0.0-4.0-10.172-0.172","","","","Rate your confidence","1",""
"507.10000000009313","e","choice","right","i","experimental","1547","1233265","0.0-4.0-8.173","false","174","2.9499999999999993","","",""
"2967.3000000000466","2","confid","","","html-slider-response","1549","1236738","0.0-4.0-10.173-0.173","","","","Rate your confidence","1",""
"226.60000000009313","e","choice","left","e","experimental","1556","1238766","0.0-4.0-8.174","true","175","3.0499999999999994","","",""
"2634.5","3","confid","","","html-slider-response","1558","1241905","0.0-4.0-10.174-0.174","","","","Rate your confidence","1",""
"358.39999999990687","e","choice","right","i","experimental","1565","1244045","0.0-4.0-8.175","false","176","3.0499999999999994","","",""
"2917.4000000001397","2","confid","","","html-slider-response","1567","1247467","0.0-4.0-10.175-0.175","","","","Rate your confidence","1",""
"723.6000000000931","i","choice","left","e","experimental","1574","1249969","0.0-4.0-8.176","false","177","3.1499999999999995","","",""
"2540.100000000093","3","confid","","","html-slider-response","1576","1253014","0.0-4.0-10.176-0.176","","","","Rate your confidence","1",""
"855.8000000000466","i","choice","right","i","experimental","1583","1255647","0.0-4.0-8.177","true","178","3.2499999999999996","","",""
"2992.1999999999534","3","confid","","","html-slider-response","1585","1259144","0.0-4.0-10.177-0.177","","","","Rate your confidence","1",""
"291","e","choice","left","e","experimental","1592","1261238","0.0-4.0-8.178","true","179","3.2499999999999996","","",""
"3062.6999999999534","3","confid","","","html-slider-response","1594","1264805","0.0-4.0-10.178-0.178","","","","Rate your confidence","1",""
"316","i","choice","right","i","experimental","1601","1266898","0.0-4.0-8.179","true","180","3.1499999999999995","","",""
"3012.8000000000466","2","confid","","","html-slider-response","1603","1270416","0.0-4.0-10.179-0.179","","","","Rate your confidence","1",""
"264.0999999998603","e","choice","left","e","experimental","1610","1272481","0.0-4.0-8.180","true","181","3.1499999999999995","","",""
"2426.3000000000466","3","confid","","","html-slider-response","1612","1275412","0.0-4.0-10.180-0.180","","","","Rate your confidence","1",""
"506.5","i","choice","right","i","experimental","1619","1277716","0.0-4.0-8.181","true","182","3.0499999999999994","","",""
"2665.899999999907","3","confid","","","html-slider-response","1621","1280887","0.0-4.0-10.181-0.181","","","","Rate your confidence","1",""
"302.70000000018626","e","choice","right","i","experimental","1628","1282968","0.0-4.0-8.182","false","183","3.0499999999999994","","",""
"3354.8000000000466","4","confid","","","html-slider-response","1630","1286828","0.0-4.0-10.182-0.182","","","","Rate your confidence","1",""
"225.19999999995343","e","choice","left","e","experimental","1637","1288832","0.0-4.0-8.183","true","184","3.1499999999999995","","",""
"2267","4","confid","","","html-slider-response","1639","1291603","0.0-4.0-10.183-0.183","","","","Rate your confidence","1",""
"247.5","i","choice","right","i","experimental","1646","1293628","0.0-4.0-8.184","true","185","3.1499999999999995","","",""
"2653.5","3","confid","","","html-slider-response","1648","1296786","0.0-4.0-10.184-0.184","","","","Rate your confidence","1",""
"250.39999999990687","i","choice","left","e","experimental","1655","1298832","0.0-4.0-8.185","false","186","3.0499999999999994","","",""
"2897.1999999999534","3","confid","","","html-slider-response","1657","1302233","0.0-4.0-10.185-0.185","","","","Rate your confidence","1",""
"287","e","choice","left","e","experimental","1664","1304330","0.0-4.0-8.186","true","187","3.1499999999999995","","",""
"2667.600000000093","3","confid","","","html-slider-response","1666","1307502","0.0-4.0-10.186-0.186","","","","Rate your confidence","1",""
"702.0999999998603","i","choice","right","i","experimental","1673","1310005","0.0-4.0-8.187","true","188","3.1499999999999995","","",""
"3347.8000000000466","3","confid","","","html-slider-response","1675","1313858","0.0-4.0-10.187-0.187","","","","Rate your confidence","1",""
"266.5","i","choice","right","i","experimental","1682","1315904","0.0-4.0-8.188","true","189","3.0499999999999994","","",""
"2896.8000000000466","3","confid","","","html-slider-response","1684","1319324","0.0-4.0-10.188-0.188","","","","Rate your confidence","1",""
"347.60000000009313","e","choice","left","e","experimental","1691","1321449","0.0-4.0-8.189","true","190","3.0499999999999994","","",""
"2496","3","confid","","","html-slider-response","1693","1324451","0.0-4.0-10.189-0.189","","","","Rate your confidence","1",""
"293.20000000018626","i","choice","right","i","experimental","1700","1326521","0.0-4.0-8.190","true","191","2.9499999999999993","","",""
"3210.7000000001863","3","confid","","","html-slider-response","1702","1330237","0.0-4.0-10.190-0.190","","","","Rate your confidence","1",""
"252.0999999998603","e","choice","left","e","experimental","1709","1332283","0.0-4.0-8.191","true","192","2.9499999999999993","","",""
"2806","5","confid","","","html-slider-response","1711","1335594","0.0-4.0-10.191-0.191","","","","Rate your confidence","1",""
"301.30000000004657","e","choice","left","e","experimental","1718","1337697","0.0-4.0-8.192","true","193","2.849999999999999","","",""
"3362.3000000000466","4","confid","","","html-slider-response","1720","1341565","0.0-4.0-10.192-0.192","","","","Rate your confidence","1",""
"283.0999999998603","i","choice","right","i","experimental","1727","1343648","0.0-4.0-8.193","true","194","2.849999999999999","","",""
"2962.899999999907","3","confid","","","html-slider-response","1729","1347117","0.0-4.0-10.193-0.193","","","","Rate your confidence","1","38259"
