"rt","response","task","target_side","correct_response","trial_type","trial_index","time_elapsed","internal_node_id","correct","trial_number","n_dots","stimulus","slider_start","participant"
"1085.8999999910593","e","choice","right","i","practice","10","65923","0.0-4.0-8.0","false","1","4.25","","",""
"609.3999999910593","e","choice","left","e","practice","18","68808","0.0-4.0-8.1","true","2","4.65","","",""
"922.6000000089407","e","choice","right","i","practice","26","71999","0.0-4.0-8.2","false","3","4.65","","",""
"524.0999999940395","i","choice","left","e","practice","34","74793","0.0-4.0-8.3","false","4","5.050000000000001","","",""
"413.20000000298023","i","choice","right","i","practice","42","77486","0.0-4.0-8.4","true","5","5.450000000000001","","",""
"404.69999998807907","e","choice","left","e","practice","50","80168","0.0-4.0-8.5","true","6","5.450000000000001","","",""
"555.1000000089407","i","choice","right","i","practice","58","82999","0.0-4.0-8.6","true","7","5.250000000000001","","",""
"479.70000000298023","e","choice","left","e","practice","66","85749","0.0-4.0-8.7","true","8","5.250000000000001","","",""
"360.70000000298023","e","choice","left","e","practice","74","88385","0.0-4.0-8.8","true","9","5.050000000000001","","",""
"433.29999999701977","i","choice","right","i","practice","82","91093","0.0-4.0-8.9","true","10","5.050000000000001","","",""
"320.70000000298023","i","choice","right","i","practice","90","93685","0.0-4.0-8.10","true","11","4.8500000000000005","","",""
"407.20000000298023","e","choice","left","e","practice","98","96364","0.0-4.0-8.11","true","12","4.8500000000000005","","",""
"459.09999999403954","e","choice","left","e","practice","106","99091","0.0-4.0-8.12","true","13","4.750000000000001","","",""
"256.40000000596046","i","choice","right","i","practice","114","101622","0.0-4.0-8.13","true","14","4.750000000000001","","",""
"511.5","i","choice","right","i","practice","122","104408","0.0-4.0-8.14","true","15","4.650000000000001","","",""
"499.70000000298023","e","choice","left","e","practice","130","107182","0.0-4.0-8.15","true","16","4.650000000000001","","",""
"317.59999999403954","e","choice","left","e","practice","138","109776","0.0-4.0-8.16","true","17","4.550000000000002","","",""
"323.29999999701977","i","choice","right","i","practice","146","112374","0.0-4.0-8.17","true","18","4.550000000000002","","",""
"439.29999999701977","e","choice","left","e","practice","154","115090","0.0-4.0-8.18","true","19","4.450000000000002","","",""
"400.20000000298023","i","choice","right","i","practice","162","117765","0.0-4.0-8.19","true","20","4.450000000000002","","",""
"313.8999999910593","e","choice","left","e","practice","170","120358","0.0-4.0-8.20","true","21","4.350000000000002","","",""
"417","i","choice","right","i","practice","178","123048","0.0-4.0-8.21","true","22","4.350000000000002","","",""
"469","e","choice","left","e","practice","186","125791","0.0-4.0-8.22","true","23","4.250000000000003","","",""
"442.19999998807907","i","choice","right","i","practice","194","128503","0.0-4.0-8.23","true","24","4.250000000000003","","",""
"404.29999999701977","i","choice","right","i","practice","202","131183","0.0-4.0-8.24","true","25","4.150000000000003","","",""
"411.59999999403954","e","choice","left","e","practice","210","133868","0.0-4.0-8.25","true","26","4.150000000000003","","",""
"309.5","e","choice","left","e","experimental","221","166867","0.0-4.0-8.26","true","27","4.050000000000003","","",""
"4121.5999999940395","6","confid","","","html-slider-response","223","171491","0.0-4.0-10.26-0.26","","","","Rate your confidence","1",""
"1042","i","choice","right","i","experimental","230","174307","0.0-4.0-8.27","true","28","4.050000000000003","","",""
"3693.2999999970198","3","confid","","","html-slider-response","232","178503","0.0-4.0-10.27-0.27","","","","Rate your confidence","1",""
"611.8000000119209","e","choice","left","e","experimental","239","180887","0.0-4.0-8.28","true","29","3.9500000000000033","","",""
"2234.5999999940395","6","confid","","","html-slider-response","241","183624","0.0-4.0-10.28-0.28","","","","Rate your confidence","1",""
"1009.8999999910593","i","choice","right","i","experimental","248","186403","0.0-4.0-8.29","true","30","3.9500000000000033","","",""
"2041.2999999970198","4","confid","","","html-slider-response","250","188952","0.0-4.0-10.29-0.29","","","","Rate your confidence","1",""
"1447.2000000029802","e","choice","right","i","experimental","257","192170","0.0-4.0-8.30","false","31","3.850000000000003","","",""
"2177.2999999970198","3","confid","","","html-slider-response","259","194849","0.0-4.0-10.30-0.30","","","","Rate your confidence","1",""
"271.8999999910593","e","choice","left","e","experimental","266","196896","0.0-4.0-8.31","true","32","3.9500000000000033","","",""
"4525.100000008941","4","confid","","","html-slider-response","268","201923","0.0-4.0-10.31-0.31","","","","Rate your confidence","1",""
"390.70000000298023","e","choice","left","e","experimental","275","204082","0.0-4.0-8.32","true","33","3.9500000000000033","","",""
"3284","6","confid","","","html-slider-response","277","207868","0.0-4.0-10.32-0.32","","","","Rate your confidence","1",""
"426.09999999403954","e","choice","right","i","experimental","284","210069","0.0-4.0-8.33","false","34","3.850000000000003","","",""
"2638.2999999970198","6","confid","","","html-slider-response","286","213210","0.0-4.0-10.33-0.33","","","","Rate your confidence","1",""
"1223.2999999970198","e","choice","right","i","experimental","293","216212","0.0-4.0-8.34","false","35","3.9500000000000033","","",""
"4199.300000011921","4","confid","","","html-slider-response","295","220914","0.0-4.0-10.34-0.34","","","","Rate your confidence","1",""
"1834.5999999940395","e","choice","left","e","experimental","302","224517","0.0-4.0-8.35","true","36","4.050000000000003","","",""
"3249.5","5","confid","","","html-slider-response","304","228268","0.0-4.0-10.35-0.35","","","","Rate your confidence","1",""
"791","e","choice","left","e","experimental","311","230832","0.0-4.0-8.36","true","37","4.050000000000003","","",""
"2948.199999988079","4","confid","","","html-slider-response","313","234282","0.0-4.0-10.36-0.36","","","","Rate your confidence","1",""
"683.6999999880791","i","choice","right","i","experimental","320","236740","0.0-4.0-8.37","true","38","3.9500000000000033","","",""
"2785.5999999940395","4","confid","","","html-slider-response","322","240028","0.0-4.0-10.37-0.37","","","","Rate your confidence","1",""
"579.4000000059605","i","choice","right","i","experimental","329","242376","0.0-4.0-8.38","true","39","3.9500000000000033","","",""
"3203.5","5","confid","","","html-slider-response","331","246083","0.0-4.0-10.38-0.38","","","","Rate your confidence","1",""
"329","e","choice","left","e","experimental","338","248181","0.0-4.0-8.39","true","40","3.850000000000003","","",""
"2519.5999999940395","6","confid","","","html-slider-response","340","251203","0.0-4.0-10.39-0.39","","","","Rate your confidence","1",""
"619.2999999970198","i","choice","right","i","experimental","347","253591","0.0-4.0-8.40","true","41","3.850000000000003","","",""
"2574.1000000089407","6","confid","","","html-slider-response","349","256666","0.0-4.0-10.40-0.40","","","","Rate your confidence","1",""
"512.7000000029802","e","choice","left","e","experimental","356","258954","0.0-4.0-8.41","true","42","3.750000000000003","","",""
"2364","6","confid","","","html-slider-response","358","261821","0.0-4.0-10.41-0.41","","","","Rate your confidence","1",""
"492.09999999403954","e","choice","left","e","experimental","365","264088","0.0-4.0-8.42","true","43","3.750000000000003","","",""
"2632.2999999970198","6","confid","","","html-slider-response","367","267223","0.0-4.0-10.42-0.42","","","","Rate your confidence","1",""
"946.2000000029802","i","choice","right","i","experimental","374","269946","0.0-4.0-8.43","true","44","3.650000000000003","","",""
"4031.2000000029802","2","confid","","","html-slider-response","376","274480","0.0-4.0-10.43-0.43","","","","Rate your confidence","1",""
"1201.7999999970198","i","choice","right","i","experimental","383","277452","0.0-4.0-8.44","true","45","3.650000000000003","","",""
"2629.5","2","confid","","","html-slider-response","385","280584","0.0-4.0-10.44-0.44","","","","Rate your confidence","1",""
"322.30000001192093","e","choice","left","e","experimental","392","282676","0.0-4.0-8.45","true","46","3.550000000000003","","",""
"2739","5","confid","","","html-slider-response","394","285917","0.0-4.0-10.45-0.45","","","","Rate your confidence","1",""
"1302.5999999940395","e","choice","left","e","experimental","401","288996","0.0-4.0-8.46","true","47","3.550000000000003","","",""
"3752.2000000029802","1","confid","","","html-slider-response","403","293251","0.0-4.0-10.46-0.46","","","","Rate your confidence","1",""
"535","e","choice","right","i","experimental","410","295559","0.0-4.0-8.47","false","48","3.450000000000003","","",""
"1703.4000000059605","3","confid","","","html-slider-response","412","297765","0.0-4.0-10.47-0.47","","","","Rate your confidence","1",""
"585.8000000119209","e","choice","left","e","experimental","419","300122","0.0-4.0-8.48","true","49","3.550000000000003","","",""
"3264.2000000029802","4","confid","","","html-slider-response","421","303889","0.0-4.0-10.48-0.48","","","","Rate your confidence","1",""
"494.19999998807907","i","choice","right","i","experimental","428","306153","0.0-4.0-8.49","true","50","3.550000000000003","","",""
"2297.7999999970198","5","confid","","","html-slider-response","430","308954","0.0-4.0-10.49-0.49","","","","Rate your confidence","1",""
"469","e","choice","left","e","experimental","437","311196","0.0-4.0-8.50","true","51","3.450000000000003","","",""
"3014.1000000089407","4","confid","","","html-slider-response","439","314713","0.0-4.0-10.50-0.50","","","","Rate your confidence","1",""
"600.0999999940395","i","choice","right","i","experimental","446","317089","0.0-4.0-8.51","true","52","3.450000000000003","","",""
"1733.7999999970198","5","confid","","","html-slider-response","448","319325","0.0-4.0-10.51-0.51","","","","Rate your confidence","1",""
"564.9000000059605","e","choice","left","e","experimental","455","321660","0.0-4.0-8.52","true","53","3.3500000000000028","","",""
"1767.2999999970198","5","confid","","","html-slider-response","457","323929","0.0-4.0-10.52-0.52","","","","Rate your confidence","1",""
"697.5","i","choice","right","i","experimental","464","326397","0.0-4.0-8.53","true","54","3.3500000000000028","","",""
"1607.8999999910593","5","confid","","","html-slider-response","466","328507","0.0-4.0-10.53-0.53","","","","Rate your confidence","1",""
"407","e","choice","left","e","experimental","473","330683","0.0-4.0-8.54","true","55","3.2500000000000027","","",""
"2173.8999999910593","5","confid","","","html-slider-response","475","333360","0.0-4.0-10.54-0.54","","","","Rate your confidence","1",""
"310.20000000298023","i","choice","right","i","experimental","482","335445","0.0-4.0-8.55","true","56","3.2500000000000027","","",""
"1734.7999999970198","5","confid","","","html-slider-response","484","337682","0.0-4.0-10.55-0.55","","","","Rate your confidence","1",""
"349.3999999910593","i","choice","right","i","experimental","491","339808","0.0-4.0-8.56","true","57","3.1500000000000026","","",""
"1769.5999999940395","5","confid","","","html-slider-response","493","342080","0.0-4.0-10.56-0.56","","","","Rate your confidence","1",""
"465.70000000298023","e","choice","left","e","experimental","500","344315","0.0-4.0-8.57","true","58","3.1500000000000026","","",""
"2458","4","confid","","","html-slider-response","502","347276","0.0-4.0-10.57-0.57","","","","Rate your confidence","1",""
"643","e","choice","right","i","experimental","509","349690","0.0-4.0-8.58","false","59","3.0500000000000025","","",""
"1784.5","4","confid","","","html-slider-response","511","351977","0.0-4.0-10.58-0.58","","","","Rate your confidence","1",""
"454.59999999403954","i","choice","left","e","experimental","518","354202","0.0-4.0-8.59","false","60","3.1500000000000026","","",""
"2496.5","4","confid","","","html-slider-response","520","357200","0.0-4.0-10.59-0.59","","","","Rate your confidence","1",""
"489.29999999701977","i","choice","right","i","experimental","527","359465","0.0-4.0-8.60","true","61","3.2500000000000027","","",""
"1962.0999999940395","4","confid","","","html-slider-response","529","361930","0.0-4.0-10.60-0.60","","","","Rate your confidence","1",""
"877.2000000029802","e","choice","left","e","experimental","536","364582","0.0-4.0-8.61","true","62","3.2500000000000027","","",""
"1586.2999999970198","4","confid","","","html-slider-response","538","366671","0.0-4.0-10.61-0.61","","","","Rate your confidence","1",""
"1048.5999999940395","i","choice","left","e","experimental","545","369492","0.0-4.0-8.62","false","63","3.1500000000000026","","",""
"3178.2000000029802","3","confid","","","html-slider-response","547","373173","0.0-4.0-10.62-0.62","","","","Rate your confidence","1",""
"870.2000000029802","i","choice","right","i","experimental","554","375815","0.0-4.0-8.63","true","64","3.2500000000000027","","",""
"1666.5999999940395","2","confid","","","html-slider-response","556","377983","0.0-4.0-10.63-0.63","","","","Rate your confidence","1",""
"303.40000000596046","i","choice","right","i","experimental","563","380064","0.0-4.0-8.64","true","65","3.2500000000000027","","",""
"2057.4000000059605","6","confid","","","html-slider-response","565","382624","0.0-4.0-10.64-0.64","","","","Rate your confidence","1",""
"857.4000000059605","i","choice","left","e","experimental","572","385254","0.0-4.0-8.65","false","66","3.1500000000000026","","",""
"2090.2000000029802","2","confid","","","html-slider-response","574","387847","0.0-4.0-10.65-0.65","","","","Rate your confidence","1",""
"535.3000000119209","i","choice","right","i","experimental","581","390152","0.0-4.0-8.66","true","67","3.2500000000000027","","",""
"1858.9000000059605","6","confid","","","html-slider-response","583","392513","0.0-4.0-10.66-0.66","","","","Rate your confidence","1",""
"1773.9000000059605","i","choice","left","e","experimental","590","396056","0.0-4.0-8.67","false","68","3.2500000000000027","","",""
"2277.1000000089407","1","confid","","","html-slider-response","592","398836","0.0-4.0-10.67-0.67","","","","Rate your confidence","1",""
"355.09999999403954","e","choice","right","i","experimental","600","691496","0.0-4.0-8.68","false","69","3.3500000000000028","","",""
"1878.2000000029802","3","confid","","","html-slider-response","602","693877","0.0-4.0-10.68-0.68","","","","Rate your confidence","1",""
"259.6000000089407","e","choice","left","e","experimental","609","695910","0.0-4.0-8.69","true","70","3.450000000000003","","",""
"2414.2999999970198","6","confid","","","html-slider-response","611","698827","0.0-4.0-10.69-0.69","","","","Rate your confidence","1",""
"295.40000000596046","e","choice","left","e","experimental","618","700894","0.0-4.0-8.70","true","71","3.450000000000003","","",""
"2896","6","confid","","","html-slider-response","620","704299","0.0-4.0-10.70-0.70","","","","Rate your confidence","1",""
"652.5","e","choice","right","i","experimental","627","706720","0.0-4.0-8.71","false","72","3.3500000000000028","","",""
"1827.0999999940395","6","confid","","","html-slider-response","629","709049","0.0-4.0-10.71-0.71","","","","Rate your confidence","1",""
"658.8999999910593","i","choice","right","i","experimental","636","711477","0.0-4.0-8.72","true","73","3.450000000000003","","",""
"1543.5","6","confid","","","html-slider-response","638","713524","0.0-4.0-10.72-0.72","","","","Rate your confidence","1",""
"852.3000000119209","e","choice","left","e","experimental","645","716152","0.0-4.0-8.73","true","74","3.450000000000003","","",""
"1701.699999988079","4","confid","","","html-slider-response","647","718356","0.0-4.0-10.73-0.73","","","","Rate your confidence","1",""
"1419.800000011921","e","choice","left","e","experimental","654","721551","0.0-4.0-8.74","true","75","3.3500000000000028","","",""
"2614.2000000029802","3","confid","","","html-slider-response","656","724667","0.0-4.0-10.74-0.74","","","","Rate your confidence","1",""
"567.0999999940395","i","choice","right","i","experimental","663","727008","0.0-4.0-8.75","true","76","3.3500000000000028","","",""
"2675.800000011921","5","confid","","","html-slider-response","665","730187","0.0-4.0-10.75-0.75","","","","Rate your confidence","1",""
"541.7000000029802","e","choice","left","e","experimental","672","732498","0.0-4.0-8.76","true","77","3.2500000000000027","","",""
"2561.5999999940395","5","confid","","","html-slider-response","674","735562","0.0-4.0-10.76-0.76","","","","Rate your confidence","1",""
"1536.7000000029802","i","choice","right","i","experimental","681","738868","0.0-4.0-8.77","true","78","3.2500000000000027","","",""
"1752.5","1","confid","","","html-slider-response","683","741122","0.0-4.0-10.77-0.77","","","","Rate your confidence","1",""
"541.7000000029802","e","choice","left","e","experimental","690","743435","0.0-4.0-8.78","true","79","3.1500000000000026","","",""
"2043.1000000089407","3","confid","","","html-slider-response","692","745982","0.0-4.0-10.78-0.78","","","","Rate your confidence","1",""
"401.69999998807907","i","choice","right","i","experimental","699","748160","0.0-4.0-8.79","true","80","3.1500000000000026","","",""
"1548.0999999940395","4","confid","","","html-slider-response","701","750209","0.0-4.0-10.79-0.79","","","","Rate your confidence","1",""
"218","e","choice","left","e","experimental","708","752203","0.0-4.0-8.80","true","81","3.0500000000000025","","",""
"1723.5","4","confid","","","html-slider-response","710","754429","0.0-4.0-10.80-0.80","","","","Rate your confidence","1",""
"437.40000000596046","i","choice","right","i","experimental","717","756634","0.0-4.0-8.81","true","82","3.0500000000000025","","",""
"1603.6000000089407","4","confid","","","html-slider-response","719","758740","0.0-4.0-10.81-0.81","","","","Rate your confidence","1",""
"269.90000000596046","e","choice","right","i","experimental","726","760780","0.0-4.0-8.82","false","83","2.9500000000000024","","",""
"1401.2999999970198","4","confid","","","html-slider-response","728","762684","0.0-4.0-10.82-0.82","","","","Rate your confidence","1",""
"272","e","choice","left","e","experimental","735","764732","0.0-4.0-8.83","true","84","3.0500000000000025","","",""
"1641.9000000059605","4","confid","","","html-slider-response","737","766878","0.0-4.0-10.83-0.83","","","","Rate your confidence","1",""
"415.29999999701977","i","choice","right","i","experimental","744","769072","0.0-4.0-8.84","true","85","3.0500000000000025","","",""
"1502.7000000029802","5","confid","","","html-slider-response","746","771078","0.0-4.0-10.84-0.84","","","","Rate your confidence","1",""
"308.8999999910593","e","choice","left","e","experimental","753","773157","0.0-4.0-8.85","true","86","2.9500000000000024","","",""
"1612","5","confid","","","html-slider-response","755","775271","0.0-4.0-10.85-0.85","","","","Rate your confidence","1",""
"420.8999999910593","e","choice","left","e","experimental","762","777465","0.0-4.0-8.86","true","87","2.9500000000000024","","",""
"1614.2000000029802","6","confid","","","html-slider-response","764","779581","0.0-4.0-10.86-0.86","","","","Rate your confidence","1",""
"917","e","choice","right","i","experimental","771","782274","0.0-4.0-8.87","false","88","2.8500000000000023","","",""
"1506","2","confid","","","html-slider-response","773","784282","0.0-4.0-10.87-0.87","","","","Rate your confidence","1",""
"304.1000000089407","e","choice","right","i","experimental","780","786362","0.0-4.0-8.88","false","89","2.9500000000000024","","",""
"2160.5","6","confid","","","html-slider-response","782","789025","0.0-4.0-10.88-0.88","","","","Rate your confidence","1",""
"315.29999999701977","e","choice","left","e","experimental","789","791111","0.0-4.0-8.89","true","90","3.0500000000000025","","",""
"2665.5","6","confid","","","html-slider-response","791","794290","0.0-4.0-10.89-0.89","","","","Rate your confidence","1",""
"492.79999999701977","e","choice","left","e","experimental","798","796554","0.0-4.0-8.90","true","91","3.0500000000000025","","",""
"1550.7999999970198","6","confid","","","html-slider-response","800","798607","0.0-4.0-10.90-0.90","","","","Rate your confidence","1",""
"508.30000001192093","e","choice","right","i","experimental","807","800892","0.0-4.0-8.91","false","92","2.9500000000000024","","",""
"1555.4000000059605","5","confid","","","html-slider-response","809","802950","0.0-4.0-10.91-0.91","","","","Rate your confidence","1",""
"798.3999999910593","e","choice","right","i","experimental","816","805519","0.0-4.0-8.92","false","93","3.0500000000000025","","",""
"1643.5","4","confid","","","html-slider-response","818","807665","0.0-4.0-10.92-0.92","","","","Rate your confidence","1",""
"711.5999999940395","e","choice","left","e","experimental","825","810148","0.0-4.0-8.93","true","94","3.1500000000000026","","",""
"2301.7999999970198","4","confid","","","html-slider-response","827","812951","0.0-4.0-10.93-0.93","","","","Rate your confidence","1",""
"411.20000000298023","e","choice","left","e","experimental","834","815132","0.0-4.0-8.94","true","95","3.1500000000000026","","",""
"1991.5","4","confid","","","html-slider-response","836","817626","0.0-4.0-10.94-0.94","","","","Rate your confidence","1",""
"808.5","i","choice","right","i","experimental","843","820211","0.0-4.0-8.95","true","96","3.0500000000000025","","",""
"2306.7999999970198","5","confid","","","html-slider-response","845","823021","0.0-4.0-10.95-0.95","","","","Rate your confidence","1",""
"352.5","e","choice","left","e","experimental","852","825148","0.0-4.0-8.96","true","97","3.0500000000000025","","",""
"1803.7999999970198","5","confid","","","html-slider-response","854","827455","0.0-4.0-10.96-0.96","","","","Rate your confidence","1",""
"618.0999999940395","e","choice","right","i","experimental","861","829844","0.0-4.0-8.97","false","98","2.9500000000000024","","",""
"2702.4000000059605","1","confid","","","html-slider-response","863","833049","0.0-4.0-10.97-0.97","","","","Rate your confidence","1",""
"561.4000000059605","e","choice","left","e","experimental","870","835380","0.0-4.0-8.98","true","99","3.0500000000000025","","",""
"2135.0999999940395","3","confid","","","html-slider-response","872","838018","0.0-4.0-10.98-0.98","","","","Rate your confidence","1",""
"633.5999999940395","e","choice","right","i","experimental","879","840422","0.0-4.0-8.99","false","100","3.0500000000000025","","",""
"1396.5","3","confid","","","html-slider-response","881","842320","0.0-4.0-10.99-0.99","","","","Rate your confidence","1",""
"503.40000000596046","e","choice","left","e","experimental","888","844596","0.0-4.0-8.100","true","101","3.1500000000000026","","",""
"2423.9000000059605","5","confid","","","html-slider-response","890","847523","0.0-4.0-10.100-0.100","","","","Rate your confidence","1",""
"1276.5","i","choice","right","i","experimental","897","850570","0.0-4.0-8.101","true","102","3.1500000000000026","","",""
"3269.4000000059605","3","confid","","","html-slider-response","899","854341","0.0-4.0-10.101-0.101","","","","Rate your confidence","1",""
"389.6000000089407","e","choice","left","e","experimental","906","856503","0.0-4.0-8.102","true","103","3.0500000000000025","","",""
"1715","5","confid","","","html-slider-response","908","858720","0.0-4.0-10.102-0.102","","","","Rate your confidence","1",""
"543.7999999970198","e","choice","right","i","experimental","915","861036","0.0-4.0-8.103","false","104","3.0500000000000025","","",""
"1718.0999999940395","2","confid","","","html-slider-response","917","863257","0.0-4.0-10.103-0.103","","","","Rate your confidence","1",""
"1971.800000011921","e","choice","left","e","experimental","924","867004","0.0-4.0-8.104","true","105","3.1500000000000026","","",""
"1590.6000000089407","1","confid","","","html-slider-response","926","869098","0.0-4.0-10.104-0.104","","","","Rate your confidence","1",""
"467.59999999403954","i","choice","right","i","experimental","933","871343","0.0-4.0-8.105","true","106","3.1500000000000026","","",""
"2167.0999999940395","3","confid","","","html-slider-response","935","874013","0.0-4.0-10.105-0.105","","","","Rate your confidence","1",""
"418.20000000298023","e","choice","left","e","experimental","942","876203","0.0-4.0-8.106","true","107","3.0500000000000025","","",""
"119327.29999999702","3","confid","","","html-slider-response","944","996032","0.0-4.0-10.106-0.106","","","","Rate your confidence","1",""
"326.70000000298023","i","choice","right","i","experimental","951","998131","0.0-4.0-8.107","true","108","3.0500000000000025","","",""
"1798.7999999970198","5","confid","","","html-slider-response","953","1000432","0.0-4.0-10.107-0.107","","","","Rate your confidence","1",""
"444.59999999403954","e","choice","left","e","experimental","960","1002645","0.0-4.0-8.108","true","109","2.9500000000000024","","",""
"1668.5999999940395","5","confid","","","html-slider-response","962","1004817","0.0-4.0-10.108-0.108","","","","Rate your confidence","1",""
"492.70000000298023","e","choice","right","i","experimental","969","1007085","0.0-4.0-8.109","false","110","2.9500000000000024","","",""
"1813.5","2","confid","","","html-slider-response","971","1009402","0.0-4.0-10.109-0.109","","","","Rate your confidence","1",""
"317.20000000298023","e","choice","right","i","experimental","979","1017529","0.0-4.0-8.110","false","111","3.0500000000000025","","",""
"1675.7000000029802","3","confid","","","html-slider-response","981","1019707","0.0-4.0-10.110-0.110","","","","Rate your confidence","1",""
"455.3999999910593","e","choice","left","e","experimental","988","1021939","0.0-4.0-8.111","true","112","3.1500000000000026","","",""
"1622.800000011921","2","confid","","","html-slider-response","990","1024065","0.0-4.0-10.111-0.111","","","","Rate your confidence","1",""
"417.70000000298023","i","choice","right","i","experimental","997","1026252","0.0-4.0-8.112","true","113","3.1500000000000026","","",""
"2273.2999999970198","4","confid","","","html-slider-response","999","1029028","0.0-4.0-10.112-0.112","","","","Rate your confidence","1",""
"523.0999999940395","e","choice","left","e","experimental","1006","1031322","0.0-4.0-8.113","true","114","3.0500000000000025","","",""
"3437.7999999970198","5","confid","","","html-slider-response","1008","1035262","0.0-4.0-10.113-0.113","","","","Rate your confidence","1",""
"798.7999999970198","e","choice","right","i","experimental","1015","1037842","0.0-4.0-8.114","false","115","3.0500000000000025","","",""
"1406.7000000029802","2","confid","","","html-slider-response","1017","1039752","0.0-4.0-10.114-0.114","","","","Rate your confidence","1",""
"251.70000000298023","e","choice","left","e","experimental","1024","1041780","0.0-4.0-8.115","true","116","3.1500000000000026","","",""
"1614.0999999940395","6","confid","","","html-slider-response","1026","1043896","0.0-4.0-10.115-0.115","","","","Rate your confidence","1",""
"335.6000000089407","i","choice","right","i","experimental","1033","1046005","0.0-4.0-8.116","true","117","3.1500000000000026","","",""
"1465.5999999940395","6","confid","","","html-slider-response","1035","1047973","0.0-4.0-10.116-0.116","","","","Rate your confidence","1",""
"476","e","choice","left","e","experimental","1042","1050217","0.0-4.0-8.117","true","118","3.0500000000000025","","",""
"1666.4000000059605","3","confid","","","html-slider-response","1044","1052385","0.0-4.0-10.117-0.117","","","","Rate your confidence","1",""
"550.6000000089407","i","choice","right","i","experimental","1051","1054713","0.0-4.0-8.118","true","119","3.0500000000000025","","",""
"1886.800000011921","4","confid","","","html-slider-response","1053","1057102","0.0-4.0-10.118-0.118","","","","Rate your confidence","1",""
"498.70000000298023","e","choice","left","e","experimental","1060","1059371","0.0-4.0-8.119","true","120","2.9500000000000024","","",""
"2652.0999999940395","5","confid","","","html-slider-response","1062","1062526","0.0-4.0-10.119-0.119","","","","Rate your confidence","1",""
"732.9000000059605","i","choice","left","e","experimental","1069","1065029","0.0-4.0-8.120","false","121","2.9500000000000024","","",""
"2355.3999999910593","3","confid","","","html-slider-response","1071","1067887","0.0-4.0-10.120-0.120","","","","Rate your confidence","1",""
"2936.0999999940395","e","choice","right","i","experimental","1078","1072600","0.0-4.0-8.121","false","122","3.0500000000000025","","",""
"2551.699999988079","1","confid","","","html-slider-response","1080","1075654","0.0-4.0-10.121-0.121","","","","Rate your confidence","1",""
"296.3999999910593","i","choice","right","i","experimental","1087","1077720","0.0-4.0-8.122","true","123","3.1500000000000026","","",""
"1562.5","4","confid","","","html-slider-response","1089","1079785","0.0-4.0-10.122-0.122","","","","Rate your confidence","1",""
"246.29999999701977","e","choice","left","e","experimental","1096","1081802","0.0-4.0-8.123","true","124","3.1500000000000026","","",""
"1541.7000000029802","5","confid","","","html-slider-response","1098","1083847","0.0-4.0-10.123-0.123","","","","Rate your confidence","1",""
"271.79999999701977","e","choice","left","e","experimental","1105","1085891","0.0-4.0-8.124","true","125","3.0500000000000025","","",""
"2010.7000000029802","5","confid","","","html-slider-response","1107","1088405","0.0-4.0-10.124-0.124","","","","Rate your confidence","1",""
"317.40000000596046","i","choice","right","i","experimental","1114","1090498","0.0-4.0-8.125","true","126","3.0500000000000025","","",""
"1705.5","5","confid","","","html-slider-response","1116","1092706","0.0-4.0-10.125-0.125","","","","Rate your confidence","1",""
"278.3999999910593","i","choice","right","i","experimental","1123","1094767","0.0-4.0-8.126","true","127","2.9500000000000024","","",""
"1656.7000000029802","5","confid","","","html-slider-response","1125","1096926","0.0-4.0-10.126-0.126","","","","Rate your confidence","1",""
"320.70000000298023","e","choice","left","e","experimental","1132","1099019","0.0-4.0-8.127","true","128","2.9500000000000024","","",""
"1583.2000000029802","4","confid","","","html-slider-response","1134","1101104","0.0-4.0-10.127-0.127","","","","Rate your confidence","1",""
"244.70000000298023","i","choice","right","i","experimental","1141","1103125","0.0-4.0-8.128","true","129","2.8500000000000023","","",""
"1952.199999988079","4","confid","","","html-slider-response","1143","1105579","0.0-4.0-10.128-0.128","","","","Rate your confidence","1",""
"268.3999999910593","e","choice","left","e","experimental","1150","1107618","0.0-4.0-8.129","true","130","2.8500000000000023","","",""
"1444.6000000089407","4","confid","","","html-slider-response","1152","1109565","0.0-4.0-10.129-0.129","","","","Rate your confidence","1",""
"597.5","e","choice","left","e","experimental","1159","1111940","0.0-4.0-8.130","true","131","2.750000000000002","","",""
"1481.2999999970198","3","confid","","","html-slider-response","1161","1113923","0.0-4.0-10.130-0.130","","","","Rate your confidence","1",""
"407.29999999701977","i","choice","right","i","experimental","1168","1116106","0.0-4.0-8.131","true","132","2.750000000000002","","",""
"1527.4000000059605","4","confid","","","html-slider-response","1170","1118136","0.0-4.0-10.131-0.131","","","","Rate your confidence","1",""
"240.90000000596046","e","choice","left","e","experimental","1177","1120149","0.0-4.0-8.132","true","133","2.650000000000002","","",""
"1767.6000000089407","6","confid","","","html-slider-response","1179","1122419","0.0-4.0-10.132-0.132","","","","Rate your confidence","1",""
"1697.5999999940395","i","choice","right","i","experimental","1186","1125886","0.0-4.0-8.133","true","134","2.650000000000002","","",""
"3021.0999999940395","1","confid","","","html-slider-response","1188","1129409","0.0-4.0-10.133-0.133","","","","Rate your confidence","1",""
"289.5","i","choice","right","i","experimental","1195","1131477","0.0-4.0-8.134","true","135","2.550000000000002","","",""
"1628.5","3","confid","","","html-slider-response","1197","1133609","0.0-4.0-10.134-0.134","","","","Rate your confidence","1",""
"696.1999999880791","e","choice","left","e","experimental","1204","1136077","0.0-4.0-8.135","true","136","2.550000000000002","","",""
"2040.2000000029802","1","confid","","","html-slider-response","1206","1138620","0.0-4.0-10.135-0.135","","","","Rate your confidence","1",""
"392.59999999403954","e","choice","left","e","experimental","1213","1140790","0.0-4.0-8.136","true","137","2.450000000000002","","",""
"1595.2999999970198","5","confid","","","html-slider-response","1215","1142889","0.0-4.0-10.136-0.136","","","","Rate your confidence","1",""
"232.59999999403954","i","choice","right","i","experimental","1222","1144892","0.0-4.0-8.137","true","138","2.450000000000002","","",""
"1630.6000000089407","4","confid","","","html-slider-response","1224","1147026","0.0-4.0-10.137-0.137","","","","Rate your confidence","1",""
"329.59999999403954","e","choice","left","e","experimental","1231","1149126","0.0-4.0-8.138","true","139","2.350000000000002","","",""
"1624","4","confid","","","html-slider-response","1233","1151253","0.0-4.0-10.138-0.138","","","","Rate your confidence","1",""
"331.29999999701977","i","choice","right","i","experimental","1240","1153361","0.0-4.0-8.139","true","140","2.350000000000002","","",""
"1437.4000000059605","4","confid","","","html-slider-response","1242","1155302","0.0-4.0-10.139-0.139","","","","Rate your confidence","1",""
"346.8999999910593","e","choice","right","i","experimental","1249","1157423","0.0-4.0-8.140","false","141","2.2500000000000018","","",""
"1356.2999999970198","3","confid","","","html-slider-response","1251","1159282","0.0-4.0-10.140-0.140","","","","Rate your confidence","1",""
"288.90000000596046","i","choice","left","e","experimental","1258","1161347","0.0-4.0-8.141","false","142","2.350000000000002","","",""
"1432.3999999910593","4","confid","","","html-slider-response","1260","1163283","0.0-4.0-10.141-0.141","","","","Rate your confidence","1",""
"402.79999999701977","e","choice","right","i","experimental","1267","1165457","0.0-4.0-8.142","false","143","2.450000000000002","","",""
"1954.2999999970198","1","confid","","","html-slider-response","1269","1167915","0.0-4.0-10.142-0.142","","","","Rate your confidence","1",""
"229","e","choice","left","e","experimental","1276","1169916","0.0-4.0-8.143","true","144","2.550000000000002","","",""
"1558.9000000059605","4","confid","","","html-slider-response","1278","1171978","0.0-4.0-10.143-0.143","","","","Rate your confidence","1",""
"265.09999999403954","i","choice","right","i","experimental","1285","1174020","0.0-4.0-8.144","true","145","2.550000000000002","","",""
"2116.7999999970198","3","confid","","","html-slider-response","1287","1176639","0.0-4.0-10.144-0.144","","","","Rate your confidence","1",""
"438.1000000089407","i","choice","left","e","experimental","1294","1178850","0.0-4.0-8.145","false","146","2.450000000000002","","",""
"1870.9000000059605","3","confid","","","html-slider-response","1296","1181223","0.0-4.0-10.145-0.145","","","","Rate your confidence","1",""
"250.59999999403954","i","choice","right","i","experimental","1303","1183243","0.0-4.0-8.146","true","147","2.550000000000002","","",""
"1898.2000000029802","3","confid","","","html-slider-response","1305","1185643","0.0-4.0-10.146-0.146","","","","Rate your confidence","1",""
"252.20000000298023","e","choice","left","e","experimental","1312","1187667","0.0-4.0-8.147","true","148","2.550000000000002","","",""
"1578","3","confid","","","html-slider-response","1314","1189747","0.0-4.0-10.147-0.147","","","","Rate your confidence","1",""
"271.80000001192093","e","choice","right","i","experimental","1321","1191796","0.0-4.0-8.148","false","149","2.450000000000002","","",""
"1496.7000000029802","3","confid","","","html-slider-response","1323","1193796","0.0-4.0-10.148-0.148","","","","Rate your confidence","1",""
"344.29999999701977","i","choice","left","e","experimental","1330","1195911","0.0-4.0-8.149","false","150","2.550000000000002","","",""
"1807.7999999970198","2","confid","","","html-slider-response","1332","1198222","0.0-4.0-10.149-0.149","","","","Rate your confidence","1",""
"34.3999999910593","e","choice","left","e","experimental","1339","1200027","0.0-4.0-8.150","true","151","2.650000000000002","","",""
"1595.8999999910593","3","confid","","","html-slider-response","1341","1202127","0.0-4.0-10.150-0.150","","","","Rate your confidence","1",""
"309.3999999910593","e","choice","right","i","experimental","1348","1204206","0.0-4.0-8.151","false","152","2.650000000000002","","",""
"1294.3999999910593","2","confid","","","html-slider-response","1350","1206003","0.0-4.0-10.151-0.151","","","","Rate your confidence","1",""
"396.20000000298023","e","choice","left","e","experimental","1358","1211187","0.0-4.0-8.152","true","153","2.750000000000002","","",""
"1517.5","3","confid","","","html-slider-response","1360","1213207","0.0-4.0-10.152-0.152","","","","Rate your confidence","1",""
"272.90000000596046","e","choice","right","i","experimental","1367","1215256","0.0-4.0-8.153","false","154","2.750000000000002","","",""
"1888.5999999940395","5","confid","","","html-slider-response","1369","1217648","0.0-4.0-10.153-0.153","","","","Rate your confidence","1",""
"266.6000000089407","i","choice","left","e","experimental","1376","1219687","0.0-4.0-8.154","false","155","2.8500000000000023","","",""
"2262.7999999970198","4","confid","","","html-slider-response","1378","1222452","0.0-4.0-10.154-0.154","","","","Rate your confidence","1",""
"252.59999999403954","i","choice","right","i","experimental","1385","1224481","0.0-4.0-8.155","true","156","2.9500000000000024","","",""
"1566.3999999910593","5","confid","","","html-slider-response","1387","1226556","0.0-4.0-10.155-0.155","","","","Rate your confidence","1",""
"339.20000000298023","i","choice","right","i","experimental","1394","1228665","0.0-4.0-8.156","true","157","2.9500000000000024","","",""
"1484.4000000059605","4","confid","","","html-slider-response","1396","1230653","0.0-4.0-10.156-0.156","","","","Rate your confidence","1",""
"342.70000000298023","i","choice","left","e","experimental","1403","1232768","0.0-4.0-8.157","false","158","2.8500000000000023","","",""
"1952.0999999940395","4","confid","","","html-slider-response","1405","1235223","0.0-4.0-10.157-0.157","","","","Rate your confidence","1",""
"283.8999999910593","e","choice","left","e","experimental","1412","1237282","0.0-4.0-8.158","true","159","2.9500000000000024","","",""
"2079.9000000059605","4","confid","","","html-slider-response","1414","1239864","0.0-4.0-10.158-0.158","","","","Rate your confidence","1",""
"289.90000000596046","e","choice","right","i","experimental","1421","1241925","0.0-4.0-8.159","false","160","2.9500000000000024","","",""
"1525.800000011921","3","confid","","","html-slider-response","1423","1243954","0.0-4.0-10.159-0.159","","","","Rate your confidence","1",""
"287.20000000298023","i","choice","right","i","experimental","1430","1246012","0.0-4.0-8.160","true","161","3.0500000000000025","","",""
"1796.9000000059605","5","confid","","","html-slider-response","1432","1248312","0.0-4.0-10.160-0.160","","","","Rate your confidence","1",""
"302.30000001192093","e","choice","left","e","experimental","1439","1250386","0.0-4.0-8.161","true","162","3.0500000000000025","","",""
"2371","2","confid","","","html-slider-response","1441","1253261","0.0-4.0-10.161-0.161","","","","Rate your confidence","1",""
"284.09999999403954","i","choice","right","i","experimental","1448","1255316","0.0-4.0-8.162","true","163","2.9500000000000024","","",""
"2790.300000011921","5","confid","","","html-slider-response","1450","1258609","0.0-4.0-10.162-0.162","","","","Rate your confidence","1",""
"572.5999999940395","e","choice","left","e","experimental","1457","1260951","0.0-4.0-8.163","true","164","2.9500000000000024","","",""
"1912.7000000029802","6","confid","","","html-slider-response","1459","1263366","0.0-4.0-10.163-0.163","","","","Rate your confidence","1",""
"332.70000000298023","e","choice","left","e","experimental","1466","1265475","0.0-4.0-8.164","true","165","2.8500000000000023","","",""
"1713","3","confid","","","html-slider-response","1468","1267690","0.0-4.0-10.164-0.164","","","","Rate your confidence","1",""
"383.20000000298023","i","choice","right","i","experimental","1475","1269847","0.0-4.0-8.165","true","166","2.8500000000000023","","",""
"2198.7999999970198","2","confid","","","html-slider-response","1477","1272549","0.0-4.0-10.165-0.165","","","","Rate your confidence","1",""
"338.5","e","choice","right","i","experimental","1484","1274659","0.0-4.0-8.166","false","167","2.750000000000002","","",""
"1587.5","4","confid","","","html-slider-response","1486","1276750","0.0-4.0-10.166-0.166","","","","Rate your confidence","1",""
"568.2000000029802","e","choice","left","e","experimental","1493","1279088","0.0-4.0-8.167","true","168","2.8500000000000023","","",""
"1991.0999999940395","1","confid","","","html-slider-response","1495","1281582","0.0-4.0-10.167-0.167","","","","Rate your confidence","1",""
"432.20000000298023","i","choice","right","i","experimental","1502","1283792","0.0-4.0-8.168","true","169","2.8500000000000023","","",""
"2045.6000000089407","5","confid","","","html-slider-response","1504","1286352","0.0-4.0-10.168-0.168","","","","Rate your confidence","1",""
"302.29999999701977","e","choice","left","e","experimental","1511","1288427","0.0-4.0-8.169","true","170","2.750000000000002","","",""
"1485.1000000089407","2","confid","","","html-slider-response","1513","1290415","0.0-4.0-10.169-0.169","","","","Rate your confidence","1",""
"413","i","choice","right","i","experimental","1520","1292599","0.0-4.0-8.170","true","171","2.750000000000002","","",""
"3177.3999999910593","1","confid","","","html-slider-response","1522","1296280","0.0-4.0-10.170-0.170","","","","Rate your confidence","1",""
"657.2999999970198","e","choice","left","e","experimental","1529","1298707","0.0-4.0-8.171","true","172","2.650000000000002","","",""
"2371.2999999970198","1","confid","","","html-slider-response","1531","1301586","0.0-4.0-10.171-0.171","","","","Rate your confidence","1",""
"269.70000000298023","i","choice","right","i","experimental","1538","1303626","0.0-4.0-8.172","true","173","2.650000000000002","","",""
"1794.7999999970198","6","confid","","","html-slider-response","1540","1305924","0.0-4.0-10.172-0.172","","","","Rate your confidence","1",""
"467.70000000298023","i","choice","left","e","experimental","1547","1308168","0.0-4.0-8.173","false","174","2.550000000000002","","",""
"1659","4","confid","","","html-slider-response","1549","1310331","0.0-4.0-10.173-0.173","","","","Rate your confidence","1",""
"335.19999998807907","e","choice","left","e","experimental","1556","1312437","0.0-4.0-8.174","true","175","2.650000000000002","","",""
"1823.7999999970198","2","confid","","","html-slider-response","1558","1314764","0.0-4.0-10.174-0.174","","","","Rate your confidence","1",""
"489.20000000298023","i","choice","right","i","experimental","1565","1317026","0.0-4.0-8.175","true","176","2.650000000000002","","",""
"2259.7000000029802","2","confid","","","html-slider-response","1567","1319790","0.0-4.0-10.175-0.175","","","","Rate your confidence","1",""
"282.70000000298023","e","choice","left","e","experimental","1574","1321843","0.0-4.0-8.176","true","177","2.550000000000002","","",""
"2344.8999999910593","2","confid","","","html-slider-response","1576","1324691","0.0-4.0-10.176-0.176","","","","Rate your confidence","1",""
"368.40000000596046","e","choice","right","i","experimental","1583","1326835","0.0-4.0-8.177","false","178","2.550000000000002","","",""
"2048.2000000029802","2","confid","","","html-slider-response","1585","1329387","0.0-4.0-10.177-0.177","","","","Rate your confidence","1",""
"285.6000000089407","e","choice","left","e","experimental","1592","1331449","0.0-4.0-8.178","true","179","2.650000000000002","","",""
"1998.5999999940395","4","confid","","","html-slider-response","1594","1333951","0.0-4.0-10.178-0.178","","","","Rate your confidence","1",""
"845.1999999880791","e","choice","right","i","experimental","1601","1336568","0.0-4.0-8.179","false","180","2.650000000000002","","",""
"1665.5","1","confid","","","html-slider-response","1603","1338742","0.0-4.0-10.179-0.179","","","","Rate your confidence","1",""
"291.70000000298023","e","choice","left","e","experimental","1610","1340806","0.0-4.0-8.180","true","181","2.750000000000002","","",""
"3365.1000000089407","5","confid","","","html-slider-response","1612","1344674","0.0-4.0-10.180-0.180","","","","Rate your confidence","1",""
"417.79999999701977","i","choice","right","i","experimental","1619","1346870","0.0-4.0-8.181","true","182","2.750000000000002","","",""
"1419","4","confid","","","html-slider-response","1621","1348792","0.0-4.0-10.181-0.181","","","","Rate your confidence","1",""
"315.19999998807907","e","choice","left","e","experimental","1628","1350879","0.0-4.0-8.182","true","183","2.650000000000002","","",""
"1679.300000011921","4","confid","","","html-slider-response","1630","1353061","0.0-4.0-10.182-0.182","","","","Rate your confidence","1",""
"186.1000000089407","i","choice","right","i","experimental","1637","1355019","0.0-4.0-8.183","true","184","2.650000000000002","","",""
"1601.5999999940395","5","confid","","","html-slider-response","1639","1357123","0.0-4.0-10.183-0.183","","","","Rate your confidence","1",""
"268.20000000298023","i","choice","left","e","experimental","1646","1359163","0.0-4.0-8.184","false","185","2.550000000000002","","",""
"1642.7000000029802","2","confid","","","html-slider-response","1648","1361309","0.0-4.0-10.184-0.184","","","","Rate your confidence","1",""
"296.30000001192093","i","choice","right","i","experimental","1655","1363383","0.0-4.0-8.185","true","186","2.650000000000002","","",""
"1554.4000000059605","2","confid","","","html-slider-response","1657","1365440","0.0-4.0-10.185-0.185","","","","Rate your confidence","1",""
"292.40000000596046","i","choice","right","i","experimental","1664","1367506","0.0-4.0-8.186","true","187","2.650000000000002","","",""
"2819.5999999940395","5","confid","","","html-slider-response","1666","1370829","0.0-4.0-10.186-0.186","","","","Rate your confidence","1",""
"378","e","choice","left","e","experimental","1673","1372979","0.0-4.0-8.187","true","188","2.550000000000002","","",""
"1622.4000000059605","4","confid","","","html-slider-response","1675","1375104","0.0-4.0-10.187-0.187","","","","Rate your confidence","1",""
"237.90000000596046","i","choice","right","i","experimental","1682","1377115","0.0-4.0-8.188","true","189","2.550000000000002","","",""
"1576.0999999940395","5","confid","","","html-slider-response","1684","1379194","0.0-4.0-10.188-0.188","","","","Rate your confidence","1",""
"216.29999999701977","i","choice","left","e","experimental","1691","1381183","0.0-4.0-8.189","false","190","2.450000000000002","","",""
"1446.7999999970198","5","confid","","","html-slider-response","1693","1383133","0.0-4.0-10.189-0.189","","","","Rate your confidence","1",""
"601.2000000029802","i","choice","right","i","experimental","1700","1385510","0.0-4.0-8.190","true","191","2.550000000000002","","",""
"1415.1000000089407","5","confid","","","html-slider-response","1702","1387428","0.0-4.0-10.190-0.190","","","","Rate your confidence","1",""
"261.3999999910593","e","choice","left","e","experimental","1709","1389460","0.0-4.0-8.191","true","192","2.550000000000002","","",""
"1430.4000000059605","5","confid","","","html-slider-response","1711","1391395","0.0-4.0-10.191-0.191","","","","Rate your confidence","1",""
"774.7999999970198","i","choice","right","i","experimental","1718","1393940","0.0-4.0-8.192","true","193","2.450000000000002","","",""
"1337.5","2","confid","","","html-slider-response","1720","1395792","0.0-4.0-10.192-0.192","","","","Rate your confidence","1",""
"362.5","e","choice","left","e","experimental","1727","1397925","0.0-4.0-8.193","true","194","2.450000000000002","","",""
"1639.2000000029802","5","confid","","","html-slider-response","1729","1400067","0.0-4.0-10.193-0.193","","","","Rate your confidence","1","30366"
