"rt","response","task","target_side","correct_response","trial_type","trial_index","time_elapsed","internal_node_id","correct","trial_number","n_dots","stimulus","slider_start","participant"
"1020.2999999523163","e","choice","left","e","practice","10","59830","0.0-4.0-8.0","true","1","4.25","","",""
"359.60000014305115","i","choice","right","i","practice","18","62530","0.0-4.0-8.1","true","2","4.25","","",""
"425.89999985694885","e","choice","left","e","practice","26","65271","0.0-4.0-8.2","true","3","3.85","","",""
"641.3000001907349","i","choice","right","i","practice","34","68243","0.0-4.0-8.3","true","4","3.85","","",""
"434.89999985694885","e","choice","left","e","practice","42","71006","0.0-4.0-8.4","true","5","3.45","","",""
"609","i","choice","right","i","practice","50","73944","0.0-4.0-8.5","true","6","3.45","","",""
"468.7999999523163","i","choice","right","i","practice","58","76776","0.0-4.0-8.6","true","7","3.25","","",""
"378.40000009536743","e","choice","left","e","practice","66","79493","0.0-4.0-8.7","true","8","3.25","","",""
"331","i","choice","right","i","practice","74","82143","0.0-4.0-8.8","true","9","3.05","","",""
"371.2999999523163","e","choice","left","e","practice","82","84840","0.0-4.0-8.9","true","10","3.05","","",""
"315.39999985694885","i","choice","right","i","practice","90","87501","0.0-4.0-8.10","true","11","2.8499999999999996","","",""
"402.59999990463257","e","choice","left","e","practice","98","90235","0.0-4.0-8.11","true","12","2.8499999999999996","","",""
"290.90000009536743","e","choice","left","e","practice","106","92843","0.0-4.0-8.12","true","13","2.7499999999999996","","",""
"184.5","i","choice","right","i","practice","114","95344","0.0-4.0-8.13","true","14","2.7499999999999996","","",""
"445.80000019073486","e","choice","left","e","practice","122","98104","0.0-4.0-8.14","true","15","2.6499999999999995","","",""
"359.2999999523163","e","choice","right","i","practice","130","100789","0.0-4.0-8.15","false","16","2.6499999999999995","","",""
"252.19999980926514","e","choice","left","e","practice","138","103365","0.0-4.0-8.16","true","17","2.7499999999999996","","",""
"348.30000019073486","i","choice","right","i","practice","146","106038","0.0-4.0-8.17","true","18","2.7499999999999996","","",""
"567","e","choice","left","e","practice","154","108917","0.0-4.0-8.18","true","19","2.6499999999999995","","",""
"562.7000000476837","i","choice","right","i","practice","162","111829","0.0-4.0-8.19","true","20","2.6499999999999995","","",""
"375.7000000476837","e","choice","left","e","practice","170","114545","0.0-4.0-8.20","true","21","2.5499999999999994","","",""
"1139.1000001430511","i","choice","right","i","practice","178","118013","0.0-4.0-8.21","true","22","2.5499999999999994","","",""
"490.7999999523163","i","choice","right","i","practice","186","120828","0.0-4.0-8.22","true","23","2.4499999999999993","","",""
"407","i","choice","left","e","practice","194","123552","0.0-4.0-8.23","false","24","2.4499999999999993","","",""
"374.7999999523163","e","choice","right","i","practice","202","126272","0.0-4.0-8.24","false","25","2.5499999999999994","","",""
"417.59999990463257","i","choice","left","e","practice","210","129004","0.0-4.0-8.25","false","26","2.6499999999999995","","",""
"515.9000000953674","i","choice","left","e","experimental","221","158177","0.0-4.0-8.26","false","27","2.7499999999999996","","",""
"3513","2","confid","","","html-slider-response","223","162206","0.0-4.0-10.26-0.26","","","","Rate your confidence","1",""
"1030","i","choice","right","i","experimental","230","165067","0.0-4.0-8.27","true","28","2.8499999999999996","","",""
"2832.699999809265","2","confid","","","html-slider-response","232","168415","0.0-4.0-10.27-0.27","","","","Rate your confidence","1",""
"801.2999999523163","e","choice","left","e","experimental","239","171025","0.0-4.0-8.28","true","29","2.8499999999999996","","",""
"2931.7999999523163","2","confid","","","html-slider-response","241","174485","0.0-4.0-10.28-0.28","","","","Rate your confidence","1",""
"524.5","i","choice","right","i","experimental","248","176819","0.0-4.0-8.29","true","30","2.7499999999999996","","",""
"3496.5999999046326","2","confid","","","html-slider-response","250","180831","0.0-4.0-10.29-0.29","","","","Rate your confidence","1",""
"924.7999999523163","i","choice","right","i","experimental","257","183567","0.0-4.0-8.30","true","31","2.7499999999999996","","",""
"2330","2","confid","","","html-slider-response","259","186407","0.0-4.0-10.30-0.30","","","","Rate your confidence","1",""
"128.10000014305115","e","choice","left","e","experimental","266","188379","0.0-4.0-8.31","true","32","2.6499999999999995","","",""
"3512.5","4","confid","","","html-slider-response","268","192404","0.0-4.0-10.31-0.31","","","","Rate your confidence","1",""
"436.7000000476837","e","choice","left","e","experimental","275","194670","0.0-4.0-8.32","true","33","2.6499999999999995","","",""
"2351.800000190735","2","confid","","","html-slider-response","277","197532","0.0-4.0-10.32-0.32","","","","Rate your confidence","1",""
"851.8999998569489","i","choice","right","i","experimental","284","200189","0.0-4.0-8.33","true","34","2.5499999999999994","","",""
"3085.2999999523163","5","confid","","","html-slider-response","286","203790","0.0-4.0-10.33-0.33","","","","Rate your confidence","1",""
"1011.9000000953674","i","choice","right","i","experimental","293","206632","0.0-4.0-8.34","true","35","2.5499999999999994","","",""
"4546","4","confid","","","html-slider-response","295","211695","0.0-4.0-10.34-0.34","","","","Rate your confidence","1",""
"708.0999999046326","e","choice","left","e","experimental","302","214225","0.0-4.0-8.35","true","36","2.4499999999999993","","",""
"5152.5","4","confid","","","html-slider-response","304","219888","0.0-4.0-10.35-0.35","","","","Rate your confidence","1",""
"270.7000000476837","e","choice","right","i","experimental","311","221960","0.0-4.0-8.36","false","37","2.4499999999999993","","",""
"2460.4000000953674","4","confid","","","html-slider-response","313","224925","0.0-4.0-10.36-0.36","","","","Rate your confidence","1",""
"747.1000001430511","i","choice","left","e","experimental","320","227478","0.0-4.0-8.37","false","38","2.5499999999999994","","",""
"2797.7999999523163","2","confid","","","html-slider-response","322","230785","0.0-4.0-10.37-0.37","","","","Rate your confidence","1",""
"763.7999999523163","i","choice","right","i","experimental","329","233373","0.0-4.0-8.38","true","39","2.6499999999999995","","",""
"3132.800000190735","5","confid","","","html-slider-response","331","237017","0.0-4.0-10.38-0.38","","","","Rate your confidence","1",""
"435.2999999523163","e","choice","left","e","experimental","338","239275","0.0-4.0-8.39","true","40","2.6499999999999995","","",""
"3454.5","4","confid","","","html-slider-response","340","243238","0.0-4.0-10.39-0.39","","","","Rate your confidence","1",""
"503.80000019073486","i","choice","right","i","experimental","347","245555","0.0-4.0-8.40","true","41","2.5499999999999994","","",""
"5737.899999856949","3","confid","","","html-slider-response","349","251798","0.0-4.0-10.40-0.40","","","","Rate your confidence","1",""
"417.09999990463257","e","choice","left","e","experimental","356","254020","0.0-4.0-8.41","true","42","2.5499999999999994","","",""
"3162.5999999046326","2","confid","","","html-slider-response","358","257695","0.0-4.0-10.41-0.41","","","","Rate your confidence","1",""
"294.60000014305115","e","choice","left","e","experimental","365","259810","0.0-4.0-8.42","true","43","2.4499999999999993","","",""
"7549.100000143051","5","confid","","","html-slider-response","367","267870","0.0-4.0-10.42-0.42","","","","Rate your confidence","1",""
"1357.8000001907349","i","choice","right","i","experimental","374","271059","0.0-4.0-8.43","true","44","2.4499999999999993","","",""
"2313.2999999523163","3","confid","","","html-slider-response","376","273881","0.0-4.0-10.43-0.43","","","","Rate your confidence","1",""
"354.7999999523163","e","choice","left","e","experimental","383","276064","0.0-4.0-8.44","true","45","2.349999999999999","","",""
"2507.5","5","confid","","","html-slider-response","385","279077","0.0-4.0-10.44-0.44","","","","Rate your confidence","1",""
"543.5999999046326","i","choice","right","i","experimental","392","281415","0.0-4.0-8.45","true","46","2.349999999999999","","",""
"2316","5","confid","","","html-slider-response","394","284239","0.0-4.0-10.45-0.45","","","","Rate your confidence","1",""
"258.39999985694885","e","choice","right","i","experimental","401","286313","0.0-4.0-8.46","false","47","2.249999999999999","","",""
"2282.399999856949","4","confid","","","html-slider-response","403","289106","0.0-4.0-10.46-0.46","","","","Rate your confidence","1",""
"1267.9000000953674","e","choice","left","e","experimental","410","292200","0.0-4.0-8.47","true","48","2.349999999999999","","",""
"2064.7999999523163","2","confid","","","html-slider-response","412","294769","0.0-4.0-10.47-0.47","","","","Rate your confidence","1",""
"601.6999998092651","e","choice","left","e","experimental","419","297204","0.0-4.0-8.48","true","49","2.349999999999999","","",""
"2339.100000143051","3","confid","","","html-slider-response","421","300055","0.0-4.0-10.48-0.48","","","","Rate your confidence","1",""
"570.7999999523163","e","choice","right","i","experimental","428","302447","0.0-4.0-8.49","false","50","2.249999999999999","","",""
"2166.7999999523163","3","confid","","","html-slider-response","430","305134","0.0-4.0-10.49-0.49","","","","Rate your confidence","1",""
"1087.8999998569489","i","choice","left","e","experimental","437","308041","0.0-4.0-8.50","false","51","2.349999999999999","","",""
"2607.2000000476837","3","confid","","","html-slider-response","439","311159","0.0-4.0-10.50-0.50","","","","Rate your confidence","1",""
"834.0999999046326","i","choice","right","i","experimental","446","313808","0.0-4.0-8.51","true","52","2.4499999999999993","","",""
"2081.7000000476837","4","confid","","","html-slider-response","448","316400","0.0-4.0-10.51-0.51","","","","Rate your confidence","1",""
"604.7000000476837","i","choice","left","e","experimental","455","318840","0.0-4.0-8.52","false","53","2.4499999999999993","","",""
"3341.5999999046326","4","confid","","","html-slider-response","457","322688","0.0-4.0-10.52-0.52","","","","Rate your confidence","1",""
"309.90000009536743","e","choice","right","i","experimental","464","324849","0.0-4.0-8.53","false","54","2.5499999999999994","","",""
"3606.100000143051","4","confid","","","html-slider-response","466","328964","0.0-4.0-10.53-0.53","","","","Rate your confidence","1",""
"899.7000000476837","i","choice","left","e","experimental","473","331681","0.0-4.0-8.54","false","55","2.6499999999999995","","",""
"2475.4000000953674","4","confid","","","html-slider-response","475","334669","0.0-4.0-10.54-0.54","","","","Rate your confidence","1",""
"621.6000001430511","i","choice","right","i","experimental","482","337100","0.0-4.0-8.55","true","56","2.7499999999999996","","",""
"2477.2000000476837","3","confid","","","html-slider-response","484","340081","0.0-4.0-10.55-0.55","","","","Rate your confidence","1",""
"683.2000000476837","i","choice","right","i","experimental","491","342575","0.0-4.0-8.56","true","57","2.7499999999999996","","",""
"2259.5","3","confid","","","html-slider-response","493","345341","0.0-4.0-10.56-0.56","","","","Rate your confidence","1",""
"782.5999999046326","i","choice","left","e","experimental","500","347955","0.0-4.0-8.57","false","58","2.6499999999999995","","",""
"2459.7000000476837","3","confid","","","html-slider-response","502","350924","0.0-4.0-10.57-0.57","","","","Rate your confidence","1",""
"686","i","choice","left","e","experimental","509","353432","0.0-4.0-8.58","false","59","2.7499999999999996","","",""
"4010.2999999523163","4","confid","","","html-slider-response","511","357949","0.0-4.0-10.58-0.58","","","","Rate your confidence","1",""
"602","i","choice","right","i","experimental","518","360371","0.0-4.0-8.59","true","60","2.8499999999999996","","",""
"5328.399999856949","4","confid","","","html-slider-response","520","366209","0.0-4.0-10.59-0.59","","","","Rate your confidence","1",""
"731.5","i","choice","right","i","experimental","527","368738","0.0-4.0-8.60","true","61","2.8499999999999996","","",""
"3031.7000000476837","3","confid","","","html-slider-response","529","372281","0.0-4.0-10.60-0.60","","","","Rate your confidence","1",""
"389.09999990463257","e","choice","left","e","experimental","536","374500","0.0-4.0-8.61","true","62","2.7499999999999996","","",""
"2830.7999999523163","3","confid","","","html-slider-response","538","377843","0.0-4.0-10.61-0.61","","","","Rate your confidence","1",""
"568.9000000953674","i","choice","left","e","experimental","545","380221","0.0-4.0-8.62","false","63","2.7499999999999996","","",""
"2868.9000000953674","4","confid","","","html-slider-response","547","383601","0.0-4.0-10.62-0.62","","","","Rate your confidence","1",""
"366.2999999523163","e","choice","right","i","experimental","554","385804","0.0-4.0-8.63","false","64","2.8499999999999996","","",""
"2196.7999999523163","4","confid","","","html-slider-response","556","388509","0.0-4.0-10.63-0.63","","","","Rate your confidence","1",""
"747.2000000476837","i","choice","right","i","experimental","563","391090","0.0-4.0-8.64","true","65","2.9499999999999997","","",""
"2157.2999999523163","4","confid","","","html-slider-response","565","393757","0.0-4.0-10.64-0.64","","","","Rate your confidence","1",""
"278.40000009536743","e","choice","left","e","experimental","572","395865","0.0-4.0-8.65","true","66","2.9499999999999997","","",""
"2496.899999856949","4","confid","","","html-slider-response","574","398865","0.0-4.0-10.65-0.65","","","","Rate your confidence","1",""
"710.2999999523163","i","choice","left","e","experimental","581","401395","0.0-4.0-8.66","false","67","2.8499999999999996","","",""
"2507.2999999523163","3","confid","","","html-slider-response","583","404418","0.0-4.0-10.66-0.66","","","","Rate your confidence","1",""
"453.7999999523163","i","choice","right","i","experimental","590","406676","0.0-4.0-8.67","true","68","2.9499999999999997","","",""
"2362.7999999523163","4","confid","","","html-slider-response","592","409550","0.0-4.0-10.67-0.67","","","","Rate your confidence","1",""
"292.90000009536743","e","choice","left","e","experimental","600","423882","0.0-4.0-8.68","true","69","2.9499999999999997","","",""
"2671","3","confid","","","html-slider-response","602","427069","0.0-4.0-10.68-0.68","","","","Rate your confidence","1",""
"520.1999998092651","i","choice","right","i","experimental","609","429399","0.0-4.0-8.69","true","70","2.8499999999999996","","",""
"2204.800000190735","3","confid","","","html-slider-response","611","432137","0.0-4.0-10.69-0.69","","","","Rate your confidence","1",""
"343.7000000476837","e","choice","left","e","experimental","618","434290","0.0-4.0-8.70","true","71","2.8499999999999996","","",""
"2436.2000000476837","3","confid","","","html-slider-response","620","437240","0.0-4.0-10.70-0.70","","","","Rate your confidence","1",""
"301.89999985694885","i","choice","right","i","experimental","627","439384","0.0-4.0-8.71","true","72","2.7499999999999996","","",""
"3496.2999999523163","4","confid","","","html-slider-response","629","443390","0.0-4.0-10.71-0.71","","","","Rate your confidence","1",""
"485.59999990463257","i","choice","left","e","experimental","636","445706","0.0-4.0-8.72","false","73","2.7499999999999996","","",""
"3363.600000143051","4","confid","","","html-slider-response","638","449574","0.0-4.0-10.72-0.72","","","","Rate your confidence","1",""
"604.9000000953674","i","choice","right","i","experimental","645","451993","0.0-4.0-8.73","true","74","2.8499999999999996","","",""
"2509.0999999046326","2","confid","","","html-slider-response","647","455016","0.0-4.0-10.73-0.73","","","","Rate your confidence","1",""
"432.39999985694885","i","choice","right","i","experimental","654","457264","0.0-4.0-8.74","true","75","2.8499999999999996","","",""
"3633.399999856949","4","confid","","","html-slider-response","656","461408","0.0-4.0-10.74-0.74","","","","Rate your confidence","1",""
"1002.8999998569489","e","choice","left","e","experimental","663","464228","0.0-4.0-8.75","true","76","2.7499999999999996","","",""
"2943.5","3","confid","","","html-slider-response","665","467677","0.0-4.0-10.75-0.75","","","","Rate your confidence","1",""
"317.80000019073486","e","choice","left","e","experimental","672","469804","0.0-4.0-8.76","true","77","2.7499999999999996","","",""
"2495.2000000476837","3","confid","","","html-slider-response","674","472803","0.0-4.0-10.76-0.76","","","","Rate your confidence","1",""
"620.7999999523163","i","choice","right","i","experimental","681","475237","0.0-4.0-8.77","true","78","2.6499999999999995","","",""
"5243.900000095367","3","confid","","","html-slider-response","683","480987","0.0-4.0-10.77-0.77","","","","Rate your confidence","1",""
"886.6000001430511","i","choice","left","e","experimental","690","483673","0.0-4.0-8.78","false","79","2.6499999999999995","","",""
"4385.699999809265","4","confid","","","html-slider-response","692","488568","0.0-4.0-10.78-0.78","","","","Rate your confidence","1",""
"489.2999999523163","i","choice","right","i","experimental","699","490892","0.0-4.0-8.79","true","80","2.7499999999999996","","",""
"2906.7999999523163","4","confid","","","html-slider-response","701","494305","0.0-4.0-10.79-0.79","","","","Rate your confidence","1",""
"964.3999998569489","i","choice","right","i","experimental","708","497083","0.0-4.0-8.80","true","81","2.7499999999999996","","",""
"3103.4000000953674","2","confid","","","html-slider-response","710","500702","0.0-4.0-10.80-0.80","","","","Rate your confidence","1",""
"325","e","choice","left","e","experimental","717","502845","0.0-4.0-8.81","true","82","2.6499999999999995","","",""
"2174.5","3","confid","","","html-slider-response","719","505529","0.0-4.0-10.81-0.81","","","","Rate your confidence","1",""
"588.3000001907349","i","choice","left","e","experimental","726","507925","0.0-4.0-8.82","false","83","2.6499999999999995","","",""
"2173.899999856949","3","confid","","","html-slider-response","728","510612","0.0-4.0-10.82-0.82","","","","Rate your confidence","1",""
"478.2000000476837","i","choice","right","i","experimental","735","512898","0.0-4.0-8.83","true","84","2.7499999999999996","","",""
"2327.0999999046326","3","confid","","","html-slider-response","737","515738","0.0-4.0-10.83-0.83","","","","Rate your confidence","1",""
"189.69999980926514","e","choice","left","e","experimental","744","517773","0.0-4.0-8.84","true","85","2.7499999999999996","","",""
"2708.899999856949","3","confid","","","html-slider-response","746","520990","0.0-4.0-10.84-0.84","","","","Rate your confidence","1",""
"1008.5","i","choice","right","i","experimental","753","523830","0.0-4.0-8.85","true","86","2.6499999999999995","","",""
"3740.899999856949","3","confid","","","html-slider-response","755","528082","0.0-4.0-10.85-0.85","","","","Rate your confidence","1",""
"990.9000000953674","e","choice","left","e","experimental","762","530884","0.0-4.0-8.86","true","87","2.6499999999999995","","",""
"2443.699999809265","3","confid","","","html-slider-response","764","533832","0.0-4.0-10.86-0.86","","","","Rate your confidence","1",""
"675.4000000953674","i","choice","right","i","experimental","771","536320","0.0-4.0-8.87","true","88","2.5499999999999994","","",""
"3192.2999999523163","3","confid","","","html-slider-response","773","540026","0.0-4.0-10.87-0.87","","","","Rate your confidence","1",""
"318.40000009536743","i","choice","left","e","experimental","780","542163","0.0-4.0-8.88","false","89","2.5499999999999994","","",""
"3055.2000000476837","3","confid","","","html-slider-response","782","545733","0.0-4.0-10.88-0.88","","","","Rate your confidence","1",""
"463.7000000476837","i","choice","right","i","experimental","789","548046","0.0-4.0-8.89","true","90","2.6499999999999995","","",""
"2804.600000143051","4","confid","","","html-slider-response","791","551359","0.0-4.0-10.89-0.89","","","","Rate your confidence","1",""
"308.09999990463257","i","choice","right","i","experimental","798","553478","0.0-4.0-8.90","true","91","2.6499999999999995","","",""
"1963.7000000476837","3","confid","","","html-slider-response","800","555951","0.0-4.0-10.90-0.90","","","","Rate your confidence","1",""
"243.40000009536743","e","choice","left","e","experimental","807","558042","0.0-4.0-8.91","true","92","2.5499999999999994","","",""
"3091.600000143051","4","confid","","","html-slider-response","809","561643","0.0-4.0-10.91-0.91","","","","Rate your confidence","1",""
"409.40000009536743","i","choice","right","i","experimental","816","563859","0.0-4.0-8.92","true","93","2.5499999999999994","","",""
"2164.7999999523163","4","confid","","","html-slider-response","818","566535","0.0-4.0-10.92-0.92","","","","Rate your confidence","1",""
"558.6000001430511","i","choice","left","e","experimental","825","568894","0.0-4.0-8.93","false","94","2.4499999999999993","","",""
"3032.2000000476837","4","confid","","","html-slider-response","827","572443","0.0-4.0-10.93-0.93","","","","Rate your confidence","1",""
"680.7000000476837","e","choice","left","e","experimental","834","574940","0.0-4.0-8.94","true","95","2.5499999999999994","","",""
"3012.199999809265","4","confid","","","html-slider-response","836","578465","0.0-4.0-10.94-0.94","","","","Rate your confidence","1",""
"492.5","i","choice","right","i","experimental","843","580788","0.0-4.0-8.95","true","96","2.5499999999999994","","",""
"2627","3","confid","","","html-slider-response","845","583920","0.0-4.0-10.95-0.95","","","","Rate your confidence","1",""
"541.9000000953674","i","choice","right","i","experimental","852","586283","0.0-4.0-8.96","true","97","2.4499999999999993","","",""
"3576.899999856949","3","confid","","","html-slider-response","854","590380","0.0-4.0-10.96-0.96","","","","Rate your confidence","1",""
"477.7000000476837","i","choice","left","e","experimental","861","592670","0.0-4.0-8.97","false","98","2.4499999999999993","","",""
"2232.7999999523163","3","confid","","","html-slider-response","863","595411","0.0-4.0-10.97-0.97","","","","Rate your confidence","1",""
"428.2000000476837","i","choice","right","i","experimental","870","597650","0.0-4.0-8.98","true","99","2.5499999999999994","","",""
"2267.899999856949","3","confid","","","html-slider-response","872","600431","0.0-4.0-10.98-0.98","","","","Rate your confidence","1",""
"275.2999999523163","e","choice","left","e","experimental","879","602536","0.0-4.0-8.99","true","100","2.5499999999999994","","",""
"3823.2999999523163","4","confid","","","html-slider-response","881","606873","0.0-4.0-10.99-0.99","","","","Rate your confidence","1",""
"317.7000000476837","e","choice","left","e","experimental","888","609016","0.0-4.0-8.100","true","101","2.4499999999999993","","",""
"2383.2999999523163","2","confid","","","html-slider-response","890","611904","0.0-4.0-10.100-0.100","","","","Rate your confidence","1",""
"639.6000001430511","i","choice","right","i","experimental","897","614363","0.0-4.0-8.101","true","102","2.4499999999999993","","",""
"2487.5999999046326","3","confid","","","html-slider-response","899","617364","0.0-4.0-10.101-0.101","","","","Rate your confidence","1",""
"2.3999998569488525","e","choice","left","e","experimental","906","619167","0.0-4.0-8.102","true","103","2.349999999999999","","",""
"2121.600000143051","3","confid","","","html-slider-response","908","621796","0.0-4.0-10.102-0.102","","","","Rate your confidence","1",""
"392.5","e","choice","right","i","experimental","915","623999","0.0-4.0-8.103","false","104","2.349999999999999","","",""
"2554","3","confid","","","html-slider-response","917","627059","0.0-4.0-10.103-0.103","","","","Rate your confidence","1",""
"269.2999999523163","e","choice","left","e","experimental","924","629172","0.0-4.0-8.104","true","105","2.4499999999999993","","",""
"2014.4000000953674","3","confid","","","html-slider-response","926","631698","0.0-4.0-10.104-0.104","","","","Rate your confidence","1",""
"435.90000009536743","e","choice","right","i","experimental","933","633948","0.0-4.0-8.105","false","106","2.4499999999999993","","",""
"2770.0999999046326","3","confid","","","html-slider-response","935","637227","0.0-4.0-10.105-0.105","","","","Rate your confidence","1",""
"369.5","e","choice","left","e","experimental","942","639415","0.0-4.0-8.106","true","107","2.5499999999999994","","",""
"2700.7999999523163","3","confid","","","html-slider-response","944","642622","0.0-4.0-10.106-0.106","","","","Rate your confidence","1",""
"710.7000000476837","i","choice","right","i","experimental","951","645143","0.0-4.0-8.107","true","108","2.5499999999999994","","",""
"3415","2","confid","","","html-slider-response","953","649075","0.0-4.0-10.107-0.107","","","","Rate your confidence","1",""
"0.5","e","choice","left","e","experimental","960","650897","0.0-4.0-8.108","true","109","2.4499999999999993","","",""
"1909.6999998092651","2","confid","","","html-slider-response","962","653327","0.0-4.0-10.108-0.108","","","","Rate your confidence","1",""
"2608.300000190735","e","choice","right","i","experimental","969","657751","0.0-4.0-8.109","false","110","2.4499999999999993","","",""
"1782.2999999523163","2","confid","","","html-slider-response","971","660044","0.0-4.0-10.109-0.109","","","","Rate your confidence","1",""
"74.5","e","choice","left","e","experimental","979","663547","0.0-4.0-8.110","true","111","2.5499999999999994","","",""
"2657.2000000476837","3","confid","","","html-slider-response","981","666711","0.0-4.0-10.110-0.110","","","","Rate your confidence","1",""
"288.40000009536743","e","choice","right","i","experimental","988","668806","0.0-4.0-8.111","false","112","2.5499999999999994","","",""
"1961.9000000953674","3","confid","","","html-slider-response","990","671273","0.0-4.0-10.111-0.111","","","","Rate your confidence","1",""
"657.3000001907349","e","choice","right","i","experimental","997","673742","0.0-4.0-8.112","false","113","2.6499999999999995","","",""
"2081.7999999523163","3","confid","","","html-slider-response","999","676330","0.0-4.0-10.112-0.112","","","","Rate your confidence","1",""
"199","e","choice","left","e","experimental","1006","678348","0.0-4.0-8.113","true","114","2.7499999999999996","","",""
"2455.2999999523163","3","confid","","","html-slider-response","1008","681332","0.0-4.0-10.113-0.113","","","","Rate your confidence","1",""
"389.5","e","choice","left","e","experimental","1015","683533","0.0-4.0-8.114","true","115","2.7499999999999996","","",""
"2611.4000000953674","2","confid","","","html-slider-response","1017","686660","0.0-4.0-10.114-0.114","","","","Rate your confidence","1",""
"571.5","i","choice","right","i","experimental","1024","689052","0.0-4.0-8.115","true","116","2.6499999999999995","","",""
"2283.2000000476837","2","confid","","","html-slider-response","1026","691846","0.0-4.0-10.115-0.115","","","","Rate your confidence","1",""
"1366","i","choice","right","i","experimental","1033","695045","0.0-4.0-8.116","true","117","2.6499999999999995","","",""
"1951.0999999046326","3","confid","","","html-slider-response","1035","697504","0.0-4.0-10.116-0.116","","","","Rate your confidence","1",""
"805.5999999046326","i","choice","left","e","experimental","1042","700130","0.0-4.0-8.117","false","118","2.5499999999999994","","",""
"4394.899999856949","2","confid","","","html-slider-response","1044","705032","0.0-4.0-10.117-0.117","","","","Rate your confidence","1",""
"536","e","choice","left","e","experimental","1051","707376","0.0-4.0-8.118","true","119","2.6499999999999995","","",""
"2878.399999856949","2","confid","","","html-slider-response","1053","710761","0.0-4.0-10.118-0.118","","","","Rate your confidence","1",""
"489.19999980926514","i","choice","right","i","experimental","1060","713075","0.0-4.0-8.119","true","120","2.6499999999999995","","",""
"2270.0999999046326","4","confid","","","html-slider-response","1062","715854","0.0-4.0-10.119-0.119","","","","Rate your confidence","1",""
"336.59999990463257","i","choice","right","i","experimental","1069","718016","0.0-4.0-8.120","true","121","2.5499999999999994","","",""
"2120.5","2","confid","","","html-slider-response","1071","720652","0.0-4.0-10.120-0.120","","","","Rate your confidence","1",""
"531.2000000476837","i","choice","left","e","experimental","1078","723002","0.0-4.0-8.121","false","122","2.5499999999999994","","",""
"2033.5999999046326","2","confid","","","html-slider-response","1080","725544","0.0-4.0-10.121-0.121","","","","Rate your confidence","1",""
"588","i","choice","left","e","experimental","1087","727953","0.0-4.0-8.122","false","123","2.6499999999999995","","",""
"2941.7000000476837","2","confid","","","html-slider-response","1089","731409","0.0-4.0-10.122-0.122","","","","Rate your confidence","1",""
"858.8000001907349","i","choice","right","i","experimental","1096","734092","0.0-4.0-8.123","true","124","2.7499999999999996","","",""
"3658.5","1","confid","","","html-slider-response","1098","738255","0.0-4.0-10.123-0.123","","","","Rate your confidence","1",""
"448.7000000476837","i","choice","right","i","experimental","1105","740530","0.0-4.0-8.124","true","125","2.7499999999999996","","",""
"2465.4000000953674","3","confid","","","html-slider-response","1107","743500","0.0-4.0-10.124-0.124","","","","Rate your confidence","1",""
"263.60000014305115","e","choice","left","e","experimental","1114","745587","0.0-4.0-8.125","true","126","2.6499999999999995","","",""
"2140.9000000953674","3","confid","","","html-slider-response","1116","748235","0.0-4.0-10.125-0.125","","","","Rate your confidence","1",""
"242","e","choice","left","e","experimental","1123","750295","0.0-4.0-8.126","true","127","2.6499999999999995","","",""
"2268.5999999046326","2","confid","","","html-slider-response","1125","753072","0.0-4.0-10.126-0.126","","","","Rate your confidence","1",""
"270.59999990463257","i","choice","right","i","experimental","1132","755167","0.0-4.0-8.127","true","128","2.5499999999999994","","",""
"1974.5999999046326","4","confid","","","html-slider-response","1134","757653","0.0-4.0-10.127-0.127","","","","Rate your confidence","1",""
"1084","i","choice","right","i","experimental","1141","760587","0.0-4.0-8.128","true","129","2.5499999999999994","","",""
"2477.899999856949","2","confid","","","html-slider-response","1143","763576","0.0-4.0-10.128-0.128","","","","Rate your confidence","1",""
"207.90000009536743","e","choice","left","e","experimental","1150","765615","0.0-4.0-8.129","true","130","2.4499999999999993","","",""
"3709.300000190735","3","confid","","","html-slider-response","1152","769828","0.0-4.0-10.129-0.129","","","","Rate your confidence","1",""
"874","e","choice","left","e","experimental","1159","772543","0.0-4.0-8.130","true","131","2.4499999999999993","","",""
"1899.7999999523163","2","confid","","","html-slider-response","1161","774956","0.0-4.0-10.130-0.130","","","","Rate your confidence","1",""
"320.09999990463257","e","choice","right","i","experimental","1168","777086","0.0-4.0-8.131","false","132","2.349999999999999","","",""
"2166.7000000476837","2","confid","","","html-slider-response","1170","779760","0.0-4.0-10.131-0.131","","","","Rate your confidence","1",""
"523.7999999523163","i","choice","right","i","experimental","1177","782110","0.0-4.0-8.132","true","133","2.4499999999999993","","",""
"3125.5","4","confid","","","html-slider-response","1179","785746","0.0-4.0-10.132-0.132","","","","Rate your confidence","1",""
"86.40000009536743","e","choice","left","e","experimental","1186","787663","0.0-4.0-8.133","true","134","2.4499999999999993","","",""
"2045.8999998569489","2","confid","","","html-slider-response","1188","790215","0.0-4.0-10.133-0.133","","","","Rate your confidence","1",""
"406.59999990463257","i","choice","right","i","experimental","1195","792445","0.0-4.0-8.134","true","135","2.349999999999999","","",""
"2094.7999999523163","3","confid","","","html-slider-response","1197","795045","0.0-4.0-10.134-0.134","","","","Rate your confidence","1",""
"588.1000001430511","i","choice","left","e","experimental","1204","797453","0.0-4.0-8.135","false","136","2.349999999999999","","",""
"3721.2000000476837","2","confid","","","html-slider-response","1206","801683","0.0-4.0-10.135-0.135","","","","Rate your confidence","1",""
"221","e","choice","left","e","experimental","1213","803706","0.0-4.0-8.136","true","137","2.4499999999999993","","",""
"2906.7000000476837","2","confid","","","html-slider-response","1215","807124","0.0-4.0-10.136-0.136","","","","Rate your confidence","1",""
"303.80000019073486","i","choice","right","i","experimental","1222","809241","0.0-4.0-8.137","true","138","2.4499999999999993","","",""
"2408.899999856949","2","confid","","","html-slider-response","1224","812158","0.0-4.0-10.137-0.137","","","","Rate your confidence","1",""
"1496.2999999523163","i","choice","left","e","experimental","1231","815464","0.0-4.0-8.138","false","139","2.349999999999999","","",""
"2049.4000000953674","1","confid","","","html-slider-response","1233","818034","0.0-4.0-10.138-0.138","","","","Rate your confidence","1",""
"473.60000014305115","i","choice","right","i","experimental","1240","820339","0.0-4.0-8.139","true","140","2.4499999999999993","","",""
"3048.9000000953674","3","confid","","","html-slider-response","1242","823897","0.0-4.0-10.139-0.139","","","","Rate your confidence","1",""
"449.60000014305115","i","choice","left","e","experimental","1249","826164","0.0-4.0-8.140","false","141","2.4499999999999993","","",""
"3590.9000000953674","2","confid","","","html-slider-response","1251","830262","0.0-4.0-10.140-0.140","","","","Rate your confidence","1",""
"354.7999999523163","i","choice","right","i","experimental","1258","832426","0.0-4.0-8.141","true","142","2.5499999999999994","","",""
"1925.2999999523163","2","confid","","","html-slider-response","1260","834863","0.0-4.0-10.141-0.141","","","","Rate your confidence","1",""
"325","i","choice","right","i","experimental","1267","837007","0.0-4.0-8.142","true","143","2.5499999999999994","","",""
"2573.7000000476837","2","confid","","","html-slider-response","1269","840092","0.0-4.0-10.142-0.142","","","","Rate your confidence","1",""
"812","e","choice","left","e","experimental","1276","842744","0.0-4.0-8.143","true","144","2.4499999999999993","","",""
"2639.5","2","confid","","","html-slider-response","1278","845890","0.0-4.0-10.143-0.143","","","","Rate your confidence","1",""
"348","i","choice","right","i","experimental","1285","848080","0.0-4.0-8.144","true","145","2.4499999999999993","","",""
"2034.5999999046326","2","confid","","","html-slider-response","1287","850622","0.0-4.0-10.144-0.144","","","","Rate your confidence","1",""
"228.70000004768372","e","choice","left","e","experimental","1294","852664","0.0-4.0-8.145","true","146","2.349999999999999","","",""
"2166.2999999523163","2","confid","","","html-slider-response","1296","855336","0.0-4.0-10.145-0.145","","","","Rate your confidence","1",""
"333.2000000476837","i","choice","left","e","experimental","1303","857494","0.0-4.0-8.146","false","147","2.349999999999999","","",""
"1992.2000000476837","2","confid","","","html-slider-response","1305","860000","0.0-4.0-10.146-0.146","","","","Rate your confidence","1",""
"610.1000001430511","e","choice","right","i","experimental","1312","862415","0.0-4.0-8.147","false","148","2.4499999999999993","","",""
"2399","2","confid","","","html-slider-response","1314","865321","0.0-4.0-10.147-0.147","","","","Rate your confidence","1",""
"202.70000004768372","e","choice","left","e","experimental","1321","867339","0.0-4.0-8.148","true","149","2.5499999999999994","","",""
"1826.3999998569489","2","confid","","","html-slider-response","1323","869678","0.0-4.0-10.148-0.148","","","","Rate your confidence","1",""
"871.7999999523163","e","choice","right","i","experimental","1330","872355","0.0-4.0-8.149","false","150","2.5499999999999994","","",""
"1851.5","2","confid","","","html-slider-response","1332","874718","0.0-4.0-10.149-0.149","","","","Rate your confidence","1",""
"509.59999990463257","e","choice","right","i","experimental","1339","877043","0.0-4.0-8.150","false","151","2.6499999999999995","","",""
"2341.2999999523163","2","confid","","","html-slider-response","1341","879891","0.0-4.0-10.150-0.150","","","","Rate your confidence","1",""
"765.9000000953674","e","choice","left","e","experimental","1348","882473","0.0-4.0-8.151","true","152","2.7499999999999996","","",""
"2776.7999999523163","2","confid","","","html-slider-response","1350","885756","0.0-4.0-10.151-0.151","","","","Rate your confidence","1",""
"481.7000000476837","e","choice","right","i","experimental","1358","952490","0.0-4.0-8.152","false","153","2.7499999999999996","","",""
"2917.2999999523163","2","confid","","","html-slider-response","1360","955914","0.0-4.0-10.152-0.152","","","","Rate your confidence","1",""
"2027","e","choice","left","e","experimental","1367","959761","0.0-4.0-8.153","true","154","2.8499999999999996","","",""
"2447.7000000476837","2","confid","","","html-slider-response","1369","962722","0.0-4.0-10.153-0.153","","","","Rate your confidence","1",""
"2157","e","choice","right","i","experimental","1376","966710","0.0-4.0-8.154","false","155","2.8499999999999996","","",""
"3458.5999999046326","2","confid","","","html-slider-response","1378","970676","0.0-4.0-10.154-0.154","","","","Rate your confidence","1",""
"372.7000000476837","e","choice","left","e","experimental","1385","972883","0.0-4.0-8.155","true","156","2.9499999999999997","","",""
"1930.8000001907349","2","confid","","","html-slider-response","1387","975323","0.0-4.0-10.155-0.155","","","","Rate your confidence","1",""
"468.5","e","choice","left","e","experimental","1394","977615","0.0-4.0-8.156","true","157","2.9499999999999997","","",""
"2333","2","confid","","","html-slider-response","1396","980456","0.0-4.0-10.156-0.156","","","","Rate your confidence","1",""
"689","e","choice","right","i","experimental","1403","982950","0.0-4.0-8.157","false","158","2.8499999999999996","","",""
"2270.7999999523163","2","confid","","","html-slider-response","1405","985731","0.0-4.0-10.157-0.157","","","","Rate your confidence","1",""
"301.2999999523163","i","choice","left","e","experimental","1412","987864","0.0-4.0-8.158","false","159","2.9499999999999997","","",""
"2676.399999856949","2","confid","","","html-slider-response","1414","991048","0.0-4.0-10.158-0.158","","","","Rate your confidence","1",""
"499.5","i","choice","right","i","experimental","1421","993370","0.0-4.0-8.159","true","160","3.05","","",""
"2345.5","2","confid","","","html-slider-response","1423","996226","0.0-4.0-10.159-0.159","","","","Rate your confidence","1",""
"615.1999998092651","i","choice","left","e","experimental","1430","998664","0.0-4.0-8.160","false","161","3.05","","",""
"2007.2000000476837","2","confid","","","html-slider-response","1432","1001183","0.0-4.0-10.160-0.160","","","","Rate your confidence","1",""
"275.40000009536743","e","choice","right","i","experimental","1439","1003278","0.0-4.0-8.161","false","162","3.15","","",""
"2110.4000000953674","2","confid","","","html-slider-response","1441","1005893","0.0-4.0-10.161-0.161","","","","Rate your confidence","1",""
"128","e","choice","left","e","experimental","1448","1007871","0.0-4.0-8.162","true","163","3.25","","",""
"2723.7000000476837","2","confid","","","html-slider-response","1450","1011101","0.0-4.0-10.162-0.162","","","","Rate your confidence","1",""
"591.2999999523163","i","choice","right","i","experimental","1457","1013494","0.0-4.0-8.163","true","164","3.25","","",""
"3669.7999999523163","4","confid","","","html-slider-response","1459","1017671","0.0-4.0-10.163-0.163","","","","Rate your confidence","1",""
"491.19999980926514","i","choice","right","i","experimental","1466","1019996","0.0-4.0-8.164","true","165","3.15","","",""
"1879.0999999046326","2","confid","","","html-slider-response","1468","1022384","0.0-4.0-10.164-0.164","","","","Rate your confidence","1",""
"278.90000009536743","e","choice","left","e","experimental","1475","1024467","0.0-4.0-8.165","true","166","3.15","","",""
"2087.0999999046326","2","confid","","","html-slider-response","1477","1027061","0.0-4.0-10.165-0.165","","","","Rate your confidence","1",""
"1081","e","choice","left","e","experimental","1484","1029956","0.0-4.0-8.166","true","167","3.05","","",""
"1802","2","confid","","","html-slider-response","1486","1032274","0.0-4.0-10.166-0.166","","","","Rate your confidence","1",""
"689.7000000476837","i","choice","right","i","experimental","1493","1034791","0.0-4.0-8.167","true","168","3.05","","",""
"2175.7999999523163","2","confid","","","html-slider-response","1495","1037476","0.0-4.0-10.167-0.167","","","","Rate your confidence","1",""
"1215.0999999046326","e","choice","left","e","experimental","1502","1040497","0.0-4.0-8.168","true","169","2.9499999999999997","","",""
"1773.1000001430511","2","confid","","","html-slider-response","1504","1042789","0.0-4.0-10.168-0.168","","","","Rate your confidence","1",""
"1344.6999998092651","i","choice","right","i","experimental","1511","1045980","0.0-4.0-8.169","true","170","2.9499999999999997","","",""
"1850.1999998092651","4","confid","","","html-slider-response","1513","1048354","0.0-4.0-10.169-0.169","","","","Rate your confidence","1",""
"603.0999999046326","e","choice","left","e","experimental","1520","1050777","0.0-4.0-8.170","true","171","2.8499999999999996","","",""
"1785.3999998569489","2","confid","","","html-slider-response","1522","1053080","0.0-4.0-10.170-0.170","","","","Rate your confidence","1",""
"716.2000000476837","i","choice","right","i","experimental","1529","1055634","0.0-4.0-8.171","true","172","2.8499999999999996","","",""
"1893.0999999046326","2","confid","","","html-slider-response","1531","1058034","0.0-4.0-10.171-0.171","","","","Rate your confidence","1",""
"740","e","choice","left","e","experimental","1538","1060588","0.0-4.0-8.172","true","173","2.7499999999999996","","",""
"2512.600000143051","2","confid","","","html-slider-response","1540","1063611","0.0-4.0-10.172-0.172","","","","Rate your confidence","1",""
"371.69999980926514","i","choice","right","i","experimental","1547","1065838","0.0-4.0-8.173","true","174","2.7499999999999996","","",""
"2106.600000143051","4","confid","","","html-slider-response","1549","1068460","0.0-4.0-10.173-0.173","","","","Rate your confidence","1",""
"142.20000004768372","e","choice","left","e","experimental","1556","1070412","0.0-4.0-8.174","true","175","2.6499999999999995","","",""
"3003.4000000953674","4","confid","","","html-slider-response","1558","1073920","0.0-4.0-10.174-0.174","","","","Rate your confidence","1",""
"604.2000000476837","i","choice","right","i","experimental","1565","1076335","0.0-4.0-8.175","true","176","2.6499999999999995","","",""
"3296.0999999046326","2","confid","","","html-slider-response","1567","1080148","0.0-4.0-10.175-0.175","","","","Rate your confidence","1",""
"242.89999985694885","e","choice","left","e","experimental","1574","1082203","0.0-4.0-8.176","true","177","2.5499999999999994","","",""
"2297.7000000476837","2","confid","","","html-slider-response","1576","1085013","0.0-4.0-10.176-0.176","","","","Rate your confidence","1",""
"429.09999990463257","i","choice","right","i","experimental","1583","1087279","0.0-4.0-8.177","true","178","2.5499999999999994","","",""
"2174.2000000476837","2","confid","","","html-slider-response","1585","1089965","0.0-4.0-10.177-0.177","","","","Rate your confidence","1",""
"799.7999999523163","e","choice","right","i","experimental","1592","1092585","0.0-4.0-8.178","false","179","2.4499999999999993","","",""
"3550.7000000476837","2","confid","","","html-slider-response","1594","1096641","0.0-4.0-10.178-0.178","","","","Rate your confidence","1",""
"283.89999985694885","e","choice","left","e","experimental","1601","1098740","0.0-4.0-8.179","true","180","2.5499999999999994","","",""
"2448.9000000953674","2","confid","","","html-slider-response","1603","1101703","0.0-4.0-10.179-0.179","","","","Rate your confidence","1",""
"735.1000001430511","i","choice","left","e","experimental","1610","1104272","0.0-4.0-8.180","false","181","2.5499999999999994","","",""
"1689.2999999523163","2","confid","","","html-slider-response","1612","1106471","0.0-4.0-10.180-0.180","","","","Rate your confidence","1",""
"584.5999999046326","i","choice","right","i","experimental","1619","1108867","0.0-4.0-8.181","true","182","2.6499999999999995","","",""
"2852.100000143051","2","confid","","","html-slider-response","1621","1112238","0.0-4.0-10.181-0.181","","","","Rate your confidence","1",""
"427.90000009536743","e","choice","left","e","experimental","1628","1114508","0.0-4.0-8.182","true","183","2.6499999999999995","","",""
"1841.7999999523163","2","confid","","","html-slider-response","1630","1116856","0.0-4.0-10.182-0.182","","","","Rate your confidence","1",""
"469","i","choice","right","i","experimental","1637","1119162","0.0-4.0-8.183","true","184","2.5499999999999994","","",""
"2122","2","confid","","","html-slider-response","1639","1121794","0.0-4.0-10.183-0.183","","","","Rate your confidence","1",""
"597.8999998569489","i","choice","right","i","experimental","1646","1124208","0.0-4.0-8.184","true","185","2.5499999999999994","","",""
"3384.2000000476837","2","confid","","","html-slider-response","1648","1128102","0.0-4.0-10.184-0.184","","","","Rate your confidence","1",""
"2061.4000000953674","e","choice","left","e","experimental","1655","1131989","0.0-4.0-8.185","true","186","2.4499999999999993","","",""
"2372.699999809265","2","confid","","","html-slider-response","1657","1134880","0.0-4.0-10.185-0.185","","","","Rate your confidence","1",""
"2429.600000143051","i","choice","right","i","experimental","1664","1139118","0.0-4.0-8.186","true","187","2.4499999999999993","","",""
"2321.2000000476837","1","confid","","","html-slider-response","1666","1141956","0.0-4.0-10.186-0.186","","","","Rate your confidence","1",""
"792.2999999523163","i","choice","left","e","experimental","1673","1144563","0.0-4.0-8.187","false","188","2.349999999999999","","",""
"1942","2","confid","","","html-slider-response","1675","1147015","0.0-4.0-10.187-0.187","","","","Rate your confidence","1",""
"823.0999999046326","e","choice","right","i","experimental","1682","1149672","0.0-4.0-8.188","false","189","2.4499999999999993","","",""
"1958.0999999046326","2","confid","","","html-slider-response","1684","1152137","0.0-4.0-10.188-0.188","","","","Rate your confidence","1",""
"626.8999998569489","i","choice","left","e","experimental","1691","1154572","0.0-4.0-8.189","false","190","2.5499999999999994","","",""
"2602.5999999046326","2","confid","","","html-slider-response","1693","1157681","0.0-4.0-10.189-0.189","","","","Rate your confidence","1",""
"1539.7999999523163","e","choice","left","e","experimental","1700","1161031","0.0-4.0-8.190","true","191","2.6499999999999995","","",""
"1894.4000000953674","2","confid","","","html-slider-response","1702","1163451","0.0-4.0-10.190-0.190","","","","Rate your confidence","1",""
"359.90000009536743","i","choice","right","i","experimental","1709","1165626","0.0-4.0-8.191","true","192","2.6499999999999995","","",""
"2494","4","confid","","","html-slider-response","1711","1168633","0.0-4.0-10.191-0.191","","","","Rate your confidence","1",""
"704.9000000953674","e","choice","left","e","experimental","1718","1171171","0.0-4.0-8.192","true","193","2.5499999999999994","","",""
"2634.600000143051","4","confid","","","html-slider-response","1720","1174312","0.0-4.0-10.192-0.192","","","","Rate your confidence","1",""
"309.7999999523163","i","choice","right","i","experimental","1727","1176449","0.0-4.0-8.193","true","194","2.5499999999999994","","",""
"2033.5","4","confid","","","html-slider-response","1729","1178996","0.0-4.0-10.193-0.193","","","","Rate your confidence","1","46748"
