"rt","response","task","target_side","correct_response","trial_type","trial_index","time_elapsed","internal_node_id","correct","trial_number","n_dots","stimulus","slider_start","participant"
"199","e","choice","left","e","practice","10","94874","0.0-4.0-8.0","true","1","4.25","","",""
"273.2000002861023","i","choice","right","i","practice","18","97477","0.0-4.0-8.1","true","2","4.25","","",""
"85.40000009536743","i","choice","right","i","practice","26","99923","0.0-4.0-8.2","true","3","3.85","","",""
"648.8000001907349","e","choice","left","e","practice","34","102906","0.0-4.0-8.3","true","4","3.85","","",""
"249.40000009536743","i","choice","right","i","practice","42","105485","0.0-4.0-8.4","true","5","3.45","","",""
"170.2000002861023","e","choice","left","e","practice","50","107975","0.0-4.0-8.5","true","6","3.45","","",""
"245.90000009536743","e","choice","left","e","practice","58","110563","0.0-4.0-8.6","true","7","3.25","","",""
"248.60000038146973","e","choice","right","i","practice","66","113151","0.0-4.0-8.7","false","8","3.25","","",""
"170.90000009536743","e","choice","left","e","practice","74","115642","0.0-4.0-8.8","true","9","3.45","","",""
"229.5","i","choice","right","i","practice","82","118206","0.0-4.0-8.9","true","10","3.45","","",""
"297.80000019073486","e","choice","left","e","practice","90","120838","0.0-4.0-8.10","true","11","3.25","","",""
"238.69999980926514","e","choice","right","i","practice","98","123408","0.0-4.0-8.11","false","12","3.25","","",""
"451.7000002861023","e","choice","left","e","practice","106","126186","0.0-4.0-8.12","true","13","3.35","","",""
"168.59999990463257","i","choice","right","i","practice","114","128680","0.0-4.0-8.13","true","14","3.35","","",""
"383.7999997138977","e","choice","left","e","practice","122","131363","0.0-4.0-8.14","true","15","3.25","","",""
"353.8999996185303","e","choice","right","i","practice","130","134030","0.0-4.0-8.15","false","16","3.25","","",""
"294.90000009536743","e","choice","left","e","practice","138","136661","0.0-4.0-8.16","true","17","3.35","","",""
"636","i","choice","right","i","practice","146","139645","0.0-4.0-8.17","true","18","3.35","","",""
"342.30000019073486","e","choice","left","e","practice","154","142312","0.0-4.0-8.18","true","19","3.25","","",""
"374.5","i","choice","right","i","practice","162","144999","0.0-4.0-8.19","true","20","3.25","","",""
"455.69999980926514","e","choice","left","e","practice","170","147792","0.0-4.0-8.20","true","21","3.15","","",""
"454","e","choice","right","i","practice","178","150574","0.0-4.0-8.21","false","22","3.15","","",""
"252.59999990463257","e","choice","left","e","practice","186","153151","0.0-4.0-8.22","true","23","3.25","","",""
"297.69999980926514","i","choice","right","i","practice","194","155774","0.0-4.0-8.23","true","24","3.25","","",""
"308.90000009536743","e","choice","left","e","practice","202","158412","0.0-4.0-8.24","true","25","3.15","","",""
"735.4000000953674","e","choice","right","i","practice","210","161508","0.0-4.0-8.25","false","26","3.15","","",""
"106.2999997138977","e","choice","right","i","experimental","221","182678","0.0-4.0-8.26","false","27","3.25","","",""
"2968.5999999046326","3","confid","","","html-slider-response","223","186160","0.0-4.0-10.26-0.26","","","","Rate your confidence","1",""
"529.3999996185303","e","choice","left","e","experimental","230","188513","0.0-4.0-8.27","true","28","3.35","","",""
"1332.3000001907349","4","confid","","","html-slider-response","232","190349","0.0-4.0-10.27-0.27","","","","Rate your confidence","1",""
"92","e","choice","left","e","experimental","239","192267","0.0-4.0-8.28","true","29","3.35","","",""
"1604.0999999046326","3","confid","","","html-slider-response","241","194394","0.0-4.0-10.28-0.28","","","","Rate your confidence","1",""
"641.6999998092651","i","choice","right","i","experimental","248","196852","0.0-4.0-8.29","true","30","3.25","","",""
"2779","3","confid","","","html-slider-response","250","200139","0.0-4.0-10.29-0.29","","","","Rate your confidence","1",""
"379.09999990463257","e","choice","left","e","experimental","257","202341","0.0-4.0-8.30","true","31","3.25","","",""
"3235.5999999046326","3","confid","","","html-slider-response","259","206085","0.0-4.0-10.30-0.30","","","","Rate your confidence","1",""
"254.7000002861023","e","choice","right","i","experimental","266","208171","0.0-4.0-8.31","false","32","3.15","","",""
"1144.7999997138977","3","confid","","","html-slider-response","268","209826","0.0-4.0-10.31-0.31","","","","Rate your confidence","1",""
"508.59999990463257","i","choice","left","e","experimental","275","212169","0.0-4.0-8.32","false","33","3.25","","",""
"1529.1999998092651","3","confid","","","html-slider-response","277","214208","0.0-4.0-10.32-0.32","","","","Rate your confidence","1",""
"1417.1999998092651","e","choice","right","i","experimental","284","217441","0.0-4.0-8.33","false","34","3.35","","",""
"1396.9000000953674","3","confid","","","html-slider-response","286","219347","0.0-4.0-10.33-0.33","","","","Rate your confidence","1",""
"408.40000009536743","e","choice","left","e","experimental","293","221583","0.0-4.0-8.34","true","35","3.45","","",""
"1491.0999999046326","3","confid","","","html-slider-response","295","223581","0.0-4.0-10.34-0.34","","","","Rate your confidence","1",""
"523.5","e","choice","right","i","experimental","302","225906","0.0-4.0-8.35","false","36","3.45","","",""
"1576","2","confid","","","html-slider-response","304","227996","0.0-4.0-10.35-0.35","","","","Rate your confidence","1",""
"254.2000002861023","e","choice","right","i","experimental","311","230075","0.0-4.0-8.36","false","37","3.5500000000000003","","",""
"2578.300000190735","3","confid","","","html-slider-response","313","233164","0.0-4.0-10.36-0.36","","","","Rate your confidence","1",""
"487.40000009536743","e","choice","left","e","experimental","320","235466","0.0-4.0-8.37","true","38","3.6500000000000004","","",""
"1967.8000001907349","3","confid","","","html-slider-response","322","237941","0.0-4.0-10.37-0.37","","","","Rate your confidence","1",""
"1016.0999999046326","e","choice","right","i","experimental","329","240783","0.0-4.0-8.38","false","39","3.6500000000000004","","",""
"19936.700000286102","3","confid","","","html-slider-response","331","261226","0.0-4.0-10.38-0.38","","","","Rate your confidence","1",""
"1555.4000000953674","i","choice","left","e","experimental","338","264630","0.0-4.0-8.39","false","40","3.7500000000000004","","",""
"8142.700000286102","6","confid","","","html-slider-response","340","273282","0.0-4.0-10.39-0.39","","","","Rate your confidence","1",""
"1023.0999999046326","e","choice","left","e","experimental","347","276121","0.0-4.0-8.40","true","41","3.8500000000000005","","",""
"7798.5","6","confid","","","html-slider-response","349","284433","0.0-4.0-10.40-0.40","","","","Rate your confidence","1",""
"5897.699999809265","e","choice","right","i","experimental","356","292171","0.0-4.0-8.41","false","42","3.8500000000000005","","",""
"4927.300000190735","5","confid","","","html-slider-response","358","297604","0.0-4.0-10.41-0.41","","","","Rate your confidence","1",""
"1090.2999997138977","i","choice","right","i","experimental","365","300516","0.0-4.0-8.42","true","43","3.9500000000000006","","",""
"3077.5","6","confid","","","html-slider-response","367","304105","0.0-4.0-10.42-0.42","","","","Rate your confidence","1",""
"1630.3999996185303","e","choice","left","e","experimental","374","307536","0.0-4.0-8.43","true","44","3.9500000000000006","","",""
"4083.0999999046326","6","confid","","","html-slider-response","376","312129","0.0-4.0-10.43-0.43","","","","Rate your confidence","1",""
"9705.200000286102","e","choice","left","e","experimental","383","323647","0.0-4.0-8.44","true","45","3.8500000000000005","","",""
"2793.300000190735","4","confid","","","html-slider-response","385","326963","0.0-4.0-10.44-0.44","","","","Rate your confidence","1",""
"6087.5","i","choice","right","i","experimental","392","334851","0.0-4.0-8.45","true","46","3.8500000000000005","","",""
"3014.699999809265","6","confid","","","html-slider-response","394","338371","0.0-4.0-10.45-0.45","","","","Rate your confidence","1",""
"508.30000019073486","e","choice","left","e","experimental","401","340711","0.0-4.0-8.46","true","47","3.7500000000000004","","",""
"3322.300000190735","6","confid","","","html-slider-response","403","344537","0.0-4.0-10.46-0.46","","","","Rate your confidence","1",""
"1088.5","i","choice","right","i","experimental","410","347434","0.0-4.0-8.47","true","48","3.7500000000000004","","",""
"2246.3999996185303","4","confid","","","html-slider-response","412","350193","0.0-4.0-10.47-0.47","","","","Rate your confidence","1",""
"1242.9000000953674","e","choice","left","e","experimental","419","353297","0.0-4.0-8.48","true","49","3.6500000000000004","","",""
"2101.5","5","confid","","","html-slider-response","421","355903","0.0-4.0-10.48-0.48","","","","Rate your confidence","1",""
"893.9000000953674","i","choice","right","i","experimental","428","358615","0.0-4.0-8.49","true","50","3.6500000000000004","","",""
"2767.0999999046326","6","confid","","","html-slider-response","430","361892","0.0-4.0-10.49-0.49","","","","Rate your confidence","1",""
"3680.7000002861023","i","choice","left","e","experimental","437","367387","0.0-4.0-8.50","false","51","3.5500000000000003","","",""
"2381.300000190735","5","confid","","","html-slider-response","439","370279","0.0-4.0-10.50-0.50","","","","Rate your confidence","1",""
"1541.7000002861023","i","choice","right","i","experimental","446","373653","0.0-4.0-8.51","true","52","3.6500000000000004","","",""
"2291.7999997138977","6","confid","","","html-slider-response","448","376456","0.0-4.0-10.51-0.51","","","","Rate your confidence","1",""
"4703.5","e","choice","right","i","experimental","455","383001","0.0-4.0-8.52","false","53","3.6500000000000004","","",""
"2238.7000002861023","5","confid","","","html-slider-response","457","385750","0.0-4.0-10.52-0.52","","","","Rate your confidence","1",""
"2009.0999999046326","e","choice","left","e","experimental","464","389583","0.0-4.0-8.53","true","54","3.7500000000000004","","",""
"2577.0999999046326","6","confid","","","html-slider-response","466","392673","0.0-4.0-10.53-0.53","","","","Rate your confidence","1",""
"1034.6999998092651","i","choice","right","i","experimental","473","395544","0.0-4.0-8.54","true","55","3.7500000000000004","","",""
"2141.800000190735","6","confid","","","html-slider-response","475","398203","0.0-4.0-10.54-0.54","","","","Rate your confidence","1",""
"1358.2000002861023","e","choice","left","e","experimental","482","401383","0.0-4.0-8.55","true","56","3.6500000000000004","","",""
"2461.0999999046326","5","confid","","","html-slider-response","484","404350","0.0-4.0-10.55-0.55","","","","Rate your confidence","1",""
"4964.300000190735","e","choice","left","e","experimental","491","411128","0.0-4.0-8.56","true","57","3.6500000000000004","","",""
"2628.2999997138977","4","confid","","","html-slider-response","493","414262","0.0-4.0-10.56-0.56","","","","Rate your confidence","1",""
"1090.9000000953674","i","choice","right","i","experimental","500","417198","0.0-4.0-8.57","true","58","3.5500000000000003","","",""
"2271.300000190735","5","confid","","","html-slider-response","502","419976","0.0-4.0-10.57-0.57","","","","Rate your confidence","1",""
"6417.799999713898","e","choice","left","e","experimental","509","428210","0.0-4.0-8.58","true","59","3.5500000000000003","","",""
"2588.9000000953674","4","confid","","","html-slider-response","511","431308","0.0-4.0-10.58-0.58","","","","Rate your confidence","1",""
"2961.7000002861023","i","choice","right","i","experimental","518","436117","0.0-4.0-8.59","true","60","3.45","","",""
"2735.2000002861023","4","confid","","","html-slider-response","520","439358","0.0-4.0-10.59-0.59","","","","Rate your confidence","1",""
"2874","e","choice","right","i","experimental","527","444049","0.0-4.0-8.60","false","61","3.45","","",""
"1911","4","confid","","","html-slider-response","529","446472","0.0-4.0-10.60-0.60","","","","Rate your confidence","1",""
"1222.5","e","choice","left","e","experimental","536","449528","0.0-4.0-8.61","true","62","3.5500000000000003","","",""
"1990","5","confid","","","html-slider-response","538","452022","0.0-4.0-10.61-0.61","","","","Rate your confidence","1",""
"1614.7000002861023","i","choice","right","i","experimental","545","455454","0.0-4.0-8.62","true","63","3.5500000000000003","","",""
"1569.8999996185303","5","confid","","","html-slider-response","547","457534","0.0-4.0-10.62-0.62","","","","Rate your confidence","1",""
"1065.2999997138977","e","choice","left","e","experimental","554","460434","0.0-4.0-8.63","true","64","3.45","","",""
"1744.9000000953674","4","confid","","","html-slider-response","556","462688","0.0-4.0-10.63-0.63","","","","Rate your confidence","1",""
"1441.3000001907349","i","choice","right","i","experimental","563","465938","0.0-4.0-8.64","true","65","3.45","","",""
"1892.8000001907349","6","confid","","","html-slider-response","565","468335","0.0-4.0-10.64-0.64","","","","Rate your confidence","1",""
"749.4000000953674","e","choice","left","e","experimental","572","470904","0.0-4.0-8.65","true","66","3.35","","",""
"1691.3999996185303","4","confid","","","html-slider-response","574","473102","0.0-4.0-10.65-0.65","","","","Rate your confidence","1",""
"2030.0999999046326","i","choice","right","i","experimental","581","476963","0.0-4.0-8.66","true","67","3.35","","",""
"2532","5","confid","","","html-slider-response","583","479998","0.0-4.0-10.66-0.66","","","","Rate your confidence","1",""
"962","e","choice","left","e","experimental","590","482777","0.0-4.0-8.67","true","68","3.25","","",""
"1552.8000001907349","4","confid","","","html-slider-response","592","484849","0.0-4.0-10.67-0.67","","","","Rate your confidence","1",""
"366.59999990463257","i","choice","right","i","experimental","600","510607","0.0-4.0-8.68","true","69","3.25","","",""
"2268","4","confid","","","html-slider-response","602","513384","0.0-4.0-10.68-0.68","","","","Rate your confidence","1",""
"1854.8000001907349","e","choice","left","e","experimental","609","517049","0.0-4.0-8.69","true","70","3.15","","",""
"3112.199999809265","4","confid","","","html-slider-response","611","520666","0.0-4.0-10.69-0.69","","","","Rate your confidence","1",""
"671.2999997138977","i","choice","right","i","experimental","618","523164","0.0-4.0-8.70","true","71","3.15","","",""
"1203.2999997138977","5","confid","","","html-slider-response","620","524874","0.0-4.0-10.70-0.70","","","","Rate your confidence","1",""
"1156.5999999046326","e","choice","left","e","experimental","627","527863","0.0-4.0-8.71","true","72","3.05","","",""
"2179.800000190735","4","confid","","","html-slider-response","629","530552","0.0-4.0-10.71-0.71","","","","Rate your confidence","1",""
"1557.7000002861023","i","choice","right","i","experimental","636","533923","0.0-4.0-8.72","true","73","3.05","","",""
"1579.1999998092651","3","confid","","","html-slider-response","638","536010","0.0-4.0-10.72-0.72","","","","Rate your confidence","1",""
"872.1999998092651","e","choice","left","e","experimental","645","538720","0.0-4.0-8.73","true","74","2.9499999999999997","","",""
"1183.3999996185303","5","confid","","","html-slider-response","647","540414","0.0-4.0-10.73-0.73","","","","Rate your confidence","1",""
"827.4000000953674","i","choice","right","i","experimental","654","543055","0.0-4.0-8.74","true","75","2.9499999999999997","","",""
"1077.4000000953674","3","confid","","","html-slider-response","656","544637","0.0-4.0-10.74-0.74","","","","Rate your confidence","1",""
"692.5999999046326","e","choice","left","e","experimental","663","547148","0.0-4.0-8.75","true","76","2.8499999999999996","","",""
"1583.0999999046326","4","confid","","","html-slider-response","665","549236","0.0-4.0-10.75-0.75","","","","Rate your confidence","1",""
"939.2999997138977","i","choice","left","e","experimental","672","552003","0.0-4.0-8.76","false","77","2.8499999999999996","","",""
"1495.7999997138977","4","confid","","","html-slider-response","674","554006","0.0-4.0-10.76-0.76","","","","Rate your confidence","1",""
"1190.4000000953674","e","choice","right","i","experimental","681","557033","0.0-4.0-8.77","false","78","2.9499999999999997","","",""
"3053.199999809265","5","confid","","","html-slider-response","683","560596","0.0-4.0-10.77-0.77","","","","Rate your confidence","1",""
"902.5","i","choice","right","i","experimental","690","563318","0.0-4.0-8.78","true","79","3.05","","",""
"1324","4","confid","","","html-slider-response","692","565148","0.0-4.0-10.78-0.78","","","","Rate your confidence","1",""
"445","e","choice","left","e","experimental","699","567417","0.0-4.0-8.79","true","80","3.05","","",""
"2207.2999997138977","4","confid","","","html-slider-response","701","570133","0.0-4.0-10.79-0.79","","","","Rate your confidence","1",""
"609.8000001907349","i","choice","right","i","experimental","708","572587","0.0-4.0-8.80","true","81","2.9499999999999997","","",""
"981","4","confid","","","html-slider-response","710","574071","0.0-4.0-10.80-0.80","","","","Rate your confidence","1",""
"797.5","e","choice","left","e","experimental","717","576697","0.0-4.0-8.81","true","82","2.9499999999999997","","",""
"1101","4","confid","","","html-slider-response","719","578308","0.0-4.0-10.81-0.81","","","","Rate your confidence","1",""
"411.2999997138977","i","choice","right","i","experimental","726","580534","0.0-4.0-8.82","true","83","2.8499999999999996","","",""
"1640.5","5","confid","","","html-slider-response","728","582681","0.0-4.0-10.82-0.82","","","","Rate your confidence","1",""
"278.5","e","choice","left","e","experimental","735","584803","0.0-4.0-8.83","true","84","2.8499999999999996","","",""
"1157.5999999046326","5","confid","","","html-slider-response","737","586468","0.0-4.0-10.83-0.83","","","","Rate your confidence","1",""
"544.5","i","choice","right","i","experimental","744","588845","0.0-4.0-8.84","true","85","2.7499999999999996","","",""
"2624.5","5","confid","","","html-slider-response","746","591978","0.0-4.0-10.84-0.84","","","","Rate your confidence","1",""
"96.89999961853027","e","choice","left","e","experimental","753","593881","0.0-4.0-8.85","true","86","2.7499999999999996","","",""
"1703.8000001907349","6","confid","","","html-slider-response","755","596096","0.0-4.0-10.85-0.85","","","","Rate your confidence","1",""
"413.90000009536743","e","choice","left","e","experimental","762","598325","0.0-4.0-8.86","true","87","2.6499999999999995","","",""
"1284","5","confid","","","html-slider-response","764","600114","0.0-4.0-10.86-0.86","","","","Rate your confidence","1",""
"343.2999997138977","i","choice","right","i","experimental","771","602289","0.0-4.0-8.87","true","88","2.6499999999999995","","",""
"2305.9000000953674","3","confid","","","html-slider-response","773","605099","0.0-4.0-10.87-0.87","","","","Rate your confidence","1",""
"226.80000019073486","e","choice","right","i","experimental","780","607167","0.0-4.0-8.88","false","89","2.5499999999999994","","",""
"1376.4000000953674","4","confid","","","html-slider-response","782","609049","0.0-4.0-10.88-0.88","","","","Rate your confidence","1",""
"362.90000009536743","e","choice","left","e","experimental","789","611236","0.0-4.0-8.89","true","90","2.6499999999999995","","",""
"943.5","4","confid","","","html-slider-response","791","612697","0.0-4.0-10.89-0.89","","","","Rate your confidence","1",""
"190.09999990463257","i","choice","right","i","experimental","798","614714","0.0-4.0-8.90","true","91","2.6499999999999995","","",""
"1287.8000001907349","4","confid","","","html-slider-response","800","616510","0.0-4.0-10.90-0.90","","","","Rate your confidence","1",""
"75.5","e","choice","left","e","experimental","807","618412","0.0-4.0-8.91","true","92","2.5499999999999994","","",""
"2021","4","confid","","","html-slider-response","809","620940","0.0-4.0-10.91-0.91","","","","Rate your confidence","1",""
"222.5","e","choice","left","e","experimental","816","622976","0.0-4.0-8.92","true","93","2.5499999999999994","","",""
"1356","4","confid","","","html-slider-response","818","624840","0.0-4.0-10.92-0.92","","","","Rate your confidence","1",""
"294.5","i","choice","right","i","experimental","825","626965","0.0-4.0-8.93","true","94","2.4499999999999993","","",""
"1146.7999997138977","3","confid","","","html-slider-response","827","628615","0.0-4.0-10.93-0.93","","","","Rate your confidence","1",""
"139.09999990463257","e","choice","right","i","experimental","834","630563","0.0-4.0-8.94","false","95","2.4499999999999993","","",""
"1120.5999999046326","4","confid","","","html-slider-response","836","632188","0.0-4.0-10.94-0.94","","","","Rate your confidence","1",""
"104.90000009536743","e","choice","left","e","experimental","843","634111","0.0-4.0-8.95","true","96","2.5499999999999994","","",""
"2176.8999996185303","5","confid","","","html-slider-response","845","636796","0.0-4.0-10.95-0.95","","","","Rate your confidence","1",""
"497.90000009536743","e","choice","right","i","experimental","852","639121","0.0-4.0-8.96","false","97","2.5499999999999994","","",""
"1227.3999996185303","5","confid","","","html-slider-response","854","640852","0.0-4.0-10.96-0.96","","","","Rate your confidence","1",""
"585.4000000953674","i","choice","left","e","experimental","861","643265","0.0-4.0-8.97","false","98","2.6499999999999995","","",""
"1463.6000003814697","6","confid","","","html-slider-response","863","645242","0.0-4.0-10.97-0.97","","","","Rate your confidence","1",""
"388.69999980926514","e","choice","left","e","experimental","870","647452","0.0-4.0-8.98","true","99","2.7499999999999996","","",""
"1138.0999999046326","6","confid","","","html-slider-response","872","649098","0.0-4.0-10.98-0.98","","","","Rate your confidence","1",""
"435","i","choice","right","i","experimental","879","651342","0.0-4.0-8.99","true","100","2.7499999999999996","","",""
"1235.6000003814697","4","confid","","","html-slider-response","881","653083","0.0-4.0-10.99-0.99","","","","Rate your confidence","1",""
"244.69999980926514","i","choice","left","e","experimental","888","655145","0.0-4.0-8.100","false","101","2.6499999999999995","","",""
"1078.8999996185303","4","confid","","","html-slider-response","890","656731","0.0-4.0-10.100-0.100","","","","Rate your confidence","1",""
"263.40000009536743","i","choice","right","i","experimental","897","658804","0.0-4.0-8.101","true","102","2.7499999999999996","","",""
"1136","5","confid","","","html-slider-response","899","660446","0.0-4.0-10.101-0.101","","","","Rate your confidence","1",""
"298.2999997138977","e","choice","left","e","experimental","906","662568","0.0-4.0-8.102","true","103","2.7499999999999996","","",""
"2036.1999998092651","5","confid","","","html-slider-response","908","665109","0.0-4.0-10.102-0.102","","","","Rate your confidence","1",""
"1156.4000000953674","i","choice","right","i","experimental","915","668081","0.0-4.0-8.103","true","104","2.6499999999999995","","",""
"1293","5","confid","","","html-slider-response","917","669883","0.0-4.0-10.103-0.103","","","","Rate your confidence","1",""
"93.09999990463257","e","choice","left","e","experimental","924","671816","0.0-4.0-8.104","true","105","2.6499999999999995","","",""
"1555.1999998092651","6","confid","","","html-slider-response","926","673880","0.0-4.0-10.104-0.104","","","","Rate your confidence","1",""
"2384.5999999046326","i","choice","right","i","experimental","933","678102","0.0-4.0-8.105","true","106","2.5499999999999994","","",""
"1746.2000002861023","5","confid","","","html-slider-response","935","680357","0.0-4.0-10.105-0.105","","","","Rate your confidence","1",""
"224.39999961853027","e","choice","left","e","experimental","942","682423","0.0-4.0-8.106","true","107","2.5499999999999994","","",""
"1829.3000001907349","5","confid","","","html-slider-response","944","684764","0.0-4.0-10.106-0.106","","","","Rate your confidence","1",""
"1082.4000000953674","i","choice","right","i","experimental","951","687649","0.0-4.0-8.107","true","108","2.4499999999999993","","",""
"2629.1000003814697","4","confid","","","html-slider-response","953","690789","0.0-4.0-10.107-0.107","","","","Rate your confidence","1",""
"274.69999980926514","e","choice","right","i","experimental","960","692885","0.0-4.0-8.108","false","109","2.4499999999999993","","",""
"1159.1999998092651","4","confid","","","html-slider-response","962","694549","0.0-4.0-10.108-0.108","","","","Rate your confidence","1",""
"24","e","choice","left","e","experimental","969","696398","0.0-4.0-8.109","true","110","2.5499999999999994","","",""
"1090.0999999046326","5","confid","","","html-slider-response","971","697992","0.0-4.0-10.109-0.109","","","","Rate your confidence","1",""
"409.40000009536743","e","choice","right","i","experimental","979","701565","0.0-4.0-8.110","false","111","2.5499999999999994","","",""
"1083.1999998092651","5","confid","","","html-slider-response","981","703160","0.0-4.0-10.110-0.110","","","","Rate your confidence","1",""
"1721","i","choice","left","e","experimental","988","706694","0.0-4.0-8.111","false","112","2.6499999999999995","","",""
"1153.4000000953674","5","confid","","","html-slider-response","990","708353","0.0-4.0-10.111-0.111","","","","Rate your confidence","1",""
"579.9000000953674","i","choice","left","e","experimental","997","710743","0.0-4.0-8.112","false","113","2.7499999999999996","","",""
"1205.5","5","confid","","","html-slider-response","999","712454","0.0-4.0-10.112-0.112","","","","Rate your confidence","1",""
"250.40000009536743","i","choice","right","i","experimental","1006","714511","0.0-4.0-8.113","true","114","2.8499999999999996","","",""
"1954.5999999046326","5","confid","","","html-slider-response","1008","716972","0.0-4.0-10.113-0.113","","","","Rate your confidence","1",""
"22.300000190734863","i","choice","right","i","experimental","1015","718812","0.0-4.0-8.114","true","115","2.8499999999999996","","",""
"2732.699999809265","5","confid","","","html-slider-response","1017","722054","0.0-4.0-10.114-0.114","","","","Rate your confidence","1",""
"282.69999980926514","i","choice","left","e","experimental","1024","724169","0.0-4.0-8.115","false","116","2.7499999999999996","","",""
"1312","6","confid","","","html-slider-response","1026","725994","0.0-4.0-10.115-0.115","","","","Rate your confidence","1",""
"165.09999990463257","e","choice","left","e","experimental","1033","727972","0.0-4.0-8.116","true","117","2.8499999999999996","","",""
"1422.4000000953674","6","confid","","","html-slider-response","1035","729903","0.0-4.0-10.116-0.116","","","","Rate your confidence","1",""
"211.89999961853027","i","choice","right","i","experimental","1042","731928","0.0-4.0-8.117","true","118","2.8499999999999996","","",""
"3164","5","confid","","","html-slider-response","1044","735596","0.0-4.0-10.117-0.117","","","","Rate your confidence","1",""
"173.09999990463257","e","choice","left","e","experimental","1051","737591","0.0-4.0-8.118","true","119","2.7499999999999996","","",""
"2486","5","confid","","","html-slider-response","1053","740586","0.0-4.0-10.118-0.118","","","","Rate your confidence","1",""
"99.2000002861023","i","choice","right","i","experimental","1060","742526","0.0-4.0-8.119","true","120","2.7499999999999996","","",""
"1632.8000001907349","5","confid","","","html-slider-response","1062","744667","0.0-4.0-10.119-0.119","","","","Rate your confidence","1",""
"496.19999980926514","i","choice","right","i","experimental","1069","746978","0.0-4.0-8.120","true","121","2.6499999999999995","","",""
"2390","5","confid","","","html-slider-response","1071","749875","0.0-4.0-10.120-0.120","","","","Rate your confidence","1",""
"382.8999996185303","e","choice","left","e","experimental","1078","752093","0.0-4.0-8.121","true","122","2.6499999999999995","","",""
"1753.8000001907349","4","confid","","","html-slider-response","1080","754354","0.0-4.0-10.121-0.121","","","","Rate your confidence","1",""
"234.59999990463257","e","choice","right","i","experimental","1087","756407","0.0-4.0-8.122","false","123","2.5499999999999994","","",""
"1172.2000002861023","4","confid","","","html-slider-response","1089","758085","0.0-4.0-10.122-0.122","","","","Rate your confidence","1",""
"410.09999990463257","i","choice","left","e","experimental","1096","760296","0.0-4.0-8.123","false","124","2.6499999999999995","","",""
"1466.1999998092651","4","confid","","","html-slider-response","1098","762271","0.0-4.0-10.123-0.123","","","","Rate your confidence","1",""
"107.40000009536743","i","choice","right","i","experimental","1105","764196","0.0-4.0-8.124","true","125","2.7499999999999996","","",""
"1648.0999999046326","5","confid","","","html-slider-response","1107","766352","0.0-4.0-10.124-0.124","","","","Rate your confidence","1",""
"201.19999980926514","e","choice","left","e","experimental","1114","768353","0.0-4.0-8.125","true","126","2.7499999999999996","","",""
"1389.0999999046326","5","confid","","","html-slider-response","1116","770249","0.0-4.0-10.125-0.125","","","","Rate your confidence","1",""
"39.90000009536743","e","choice","left","e","experimental","1123","772117","0.0-4.0-8.126","true","127","2.6499999999999995","","",""
"1157.5","4","confid","","","html-slider-response","1125","773779","0.0-4.0-10.126-0.126","","","","Rate your confidence","1",""
"326.5","e","choice","right","i","experimental","1132","775931","0.0-4.0-8.127","false","128","2.6499999999999995","","",""
"1579.5999999046326","5","confid","","","html-slider-response","1134","778023","0.0-4.0-10.127-0.127","","","","Rate your confidence","1",""
"1729.1999998092651","e","choice","right","i","experimental","1141","781571","0.0-4.0-8.128","false","129","2.7499999999999996","","",""
"2746.4000000953674","4","confid","","","html-slider-response","1143","784825","0.0-4.0-10.128-0.128","","","","Rate your confidence","1",""
"367.59999990463257","e","choice","left","e","experimental","1150","787021","0.0-4.0-8.129","true","130","2.8499999999999996","","",""
"1447.8999996185303","4","confid","","","html-slider-response","1152","788974","0.0-4.0-10.129-0.129","","","","Rate your confidence","1",""
"100","i","choice","right","i","experimental","1159","790906","0.0-4.0-8.130","true","131","2.8499999999999996","","",""
"1286","5","confid","","","html-slider-response","1161","792704","0.0-4.0-10.130-0.130","","","","Rate your confidence","1",""
"276.59999990463257","e","choice","left","e","experimental","1168","794804","0.0-4.0-8.131","true","132","2.7499999999999996","","",""
"1506.3000001907349","5","confid","","","html-slider-response","1170","796816","0.0-4.0-10.131-0.131","","","","Rate your confidence","1",""
"316.19999980926514","i","choice","right","i","experimental","1177","798943","0.0-4.0-8.132","true","133","2.7499999999999996","","",""
"1719.0999999046326","5","confid","","","html-slider-response","1179","801166","0.0-4.0-10.132-0.132","","","","Rate your confidence","1",""
"216.80000019073486","e","choice","left","e","experimental","1186","803207","0.0-4.0-8.133","true","134","2.6499999999999995","","",""
"1183.7000002861023","5","confid","","","html-slider-response","1188","804910","0.0-4.0-10.133-0.133","","","","Rate your confidence","1",""
"418","e","choice","left","e","experimental","1195","807160","0.0-4.0-8.134","true","135","2.6499999999999995","","",""
"1411.5","6","confid","","","html-slider-response","1197","809080","0.0-4.0-10.134-0.134","","","","Rate your confidence","1",""
"281.7999997138977","e","choice","right","i","experimental","1204","811194","0.0-4.0-8.135","false","136","2.5499999999999994","","",""
"2502.9000000953674","5","confid","","","html-slider-response","1206","814206","0.0-4.0-10.135-0.135","","","","Rate your confidence","1",""
"154.69999980926514","i","choice","right","i","experimental","1213","816181","0.0-4.0-8.136","true","137","2.6499999999999995","","",""
"1587.5","5","confid","","","html-slider-response","1215","818278","0.0-4.0-10.136-0.136","","","","Rate your confidence","1",""
"137","i","choice","left","e","experimental","1222","820233","0.0-4.0-8.137","false","138","2.6499999999999995","","",""
"1306.8000001907349","5","confid","","","html-slider-response","1224","822044","0.0-4.0-10.137-0.137","","","","Rate your confidence","1",""
"342","e","choice","right","i","experimental","1231","824211","0.0-4.0-8.138","false","139","2.7499999999999996","","",""
"2217","4","confid","","","html-slider-response","1233","826933","0.0-4.0-10.138-0.138","","","","Rate your confidence","1",""
"105.5","i","choice","left","e","experimental","1240","828871","0.0-4.0-8.139","false","140","2.8499999999999996","","",""
"1464.3000001907349","4","confid","","","html-slider-response","1242","830846","0.0-4.0-10.139-0.139","","","","Rate your confidence","1",""
"320","e","choice","left","e","experimental","1249","832990","0.0-4.0-8.140","true","141","2.9499999999999997","","",""
"1861.4000000953674","4","confid","","","html-slider-response","1251","835358","0.0-4.0-10.140-0.140","","","","Rate your confidence","1",""
"263.7999997138977","i","choice","right","i","experimental","1258","837433","0.0-4.0-8.141","true","142","2.9499999999999997","","",""
"1732","4","confid","","","html-slider-response","1260","839675","0.0-4.0-10.141-0.141","","","","Rate your confidence","1",""
"321.40000009536743","e","choice","right","i","experimental","1267","841815","0.0-4.0-8.142","false","143","2.8499999999999996","","",""
"3026.7999997138977","3","confid","","","html-slider-response","1269","845346","0.0-4.0-10.142-0.142","","","","Rate your confidence","1",""
"306.90000009536743","e","choice","left","e","experimental","1276","847470","0.0-4.0-8.143","true","144","2.9499999999999997","","",""
"1888.5999999046326","4","confid","","","html-slider-response","1278","849866","0.0-4.0-10.143-0.143","","","","Rate your confidence","1",""
"182.40000009536743","i","choice","right","i","experimental","1285","851876","0.0-4.0-8.144","true","145","2.9499999999999997","","",""
"1591.8000001907349","4","confid","","","html-slider-response","1287","853975","0.0-4.0-10.144-0.144","","","","Rate your confidence","1",""
"261.5","e","choice","left","e","experimental","1294","856052","0.0-4.0-8.145","true","146","2.8499999999999996","","",""
"1355","4","confid","","","html-slider-response","1296","857918","0.0-4.0-10.145-0.145","","","","Rate your confidence","1",""
"318.5","i","choice","right","i","experimental","1303","860056","0.0-4.0-8.146","true","147","2.8499999999999996","","",""
"1459.4000000953674","4","confid","","","html-slider-response","1305","862020","0.0-4.0-10.146-0.146","","","","Rate your confidence","1",""
"278.09999990463257","e","choice","left","e","experimental","1312","864119","0.0-4.0-8.147","true","148","2.7499999999999996","","",""
"2127.5999999046326","5","confid","","","html-slider-response","1314","866761","0.0-4.0-10.147-0.147","","","","Rate your confidence","1",""
"383.40000009536743","i","choice","right","i","experimental","1321","868945","0.0-4.0-8.148","true","149","2.7499999999999996","","",""
"2842.0999999046326","5","confid","","","html-slider-response","1323","872294","0.0-4.0-10.148-0.148","","","","Rate your confidence","1",""
"101.30000019073486","i","choice","left","e","experimental","1330","874219","0.0-4.0-8.149","false","150","2.6499999999999995","","",""
"1445.5999999046326","5","confid","","","html-slider-response","1332","876171","0.0-4.0-10.149-0.149","","","","Rate your confidence","1",""
"70.80000019073486","i","choice","right","i","experimental","1339","878068","0.0-4.0-8.150","true","151","2.7499999999999996","","",""
"2047.2000002861023","6","confid","","","html-slider-response","1341","880621","0.0-4.0-10.150-0.150","","","","Rate your confidence","1",""
"268.30000019073486","e","choice","left","e","experimental","1348","882697","0.0-4.0-8.151","true","152","2.7499999999999996","","",""
"1649.6999998092651","5","confid","","","html-slider-response","1350","884854","0.0-4.0-10.151-0.151","","","","Rate your confidence","1",""
"312.19999980926514","e","choice","left","e","experimental","1358","1046588","0.0-4.0-8.152","true","153","2.6499999999999995","","",""
"1942.4000000953674","4","confid","","","html-slider-response","1360","1049035","0.0-4.0-10.152-0.152","","","","Rate your confidence","1",""
"46.69999980926514","i","choice","right","i","experimental","1367","1050907","0.0-4.0-8.153","true","154","2.6499999999999995","","",""
"1380.1999998092651","4","confid","","","html-slider-response","1369","1052793","0.0-4.0-10.153-0.153","","","","Rate your confidence","1",""
"480.19999980926514","i","choice","right","i","experimental","1376","1055113","0.0-4.0-8.154","true","155","2.5499999999999994","","",""
"2048.4000000953674","5","confid","","","html-slider-response","1378","1057673","0.0-4.0-10.154-0.154","","","","Rate your confidence","1",""
"844.8000001907349","e","choice","left","e","experimental","1385","1060342","0.0-4.0-8.155","true","156","2.5499999999999994","","",""
"1775.7000002861023","4","confid","","","html-slider-response","1387","1062631","0.0-4.0-10.155-0.155","","","","Rate your confidence","1",""
"1022.3000001907349","i","choice","right","i","experimental","1394","1065494","0.0-4.0-8.156","true","157","2.4499999999999993","","",""
"2705.5","5","confid","","","html-slider-response","1396","1068709","0.0-4.0-10.156-0.156","","","","Rate your confidence","1",""
"312.5","e","choice","left","e","experimental","1403","1070847","0.0-4.0-8.157","true","158","2.4499999999999993","","",""
"2351.800000190735","6","confid","","","html-slider-response","1405","1073705","0.0-4.0-10.157-0.157","","","","Rate your confidence","1",""
"92.30000019073486","i","choice","right","i","experimental","1412","1075616","0.0-4.0-8.158","true","159","2.349999999999999","","",""
"2463.699999809265","5","confid","","","html-slider-response","1414","1078585","0.0-4.0-10.158-0.158","","","","Rate your confidence","1",""
"429.2000002861023","e","choice","left","e","experimental","1421","1080821","0.0-4.0-8.159","true","160","2.349999999999999","","",""
"3024.8999996185303","5","confid","","","html-slider-response","1423","1084361","0.0-4.0-10.159-0.159","","","","Rate your confidence","1",""
"2.3000001907348633","i","choice","right","i","experimental","1430","1086211","0.0-4.0-8.160","true","161","2.249999999999999","","",""
"1420.6999998092651","5","confid","","","html-slider-response","1432","1088137","0.0-4.0-10.160-0.160","","","","Rate your confidence","1",""
"372.90000009536743","e","choice","left","e","experimental","1439","1090324","0.0-4.0-8.161","true","162","2.249999999999999","","",""
"1984.6999998092651","5","confid","","","html-slider-response","1441","1092816","0.0-4.0-10.161-0.161","","","","Rate your confidence","1",""
"475.19999980926514","i","choice","right","i","experimental","1448","1095102","0.0-4.0-8.162","true","163","2.149999999999999","","",""
"1442.2999997138977","5","confid","","","html-slider-response","1450","1097051","0.0-4.0-10.162-0.162","","","","Rate your confidence","1",""
"439.5","i","choice","left","e","experimental","1457","1099313","0.0-4.0-8.163","false","164","2.149999999999999","","",""
"2062.5","5","confid","","","html-slider-response","1459","1101882","0.0-4.0-10.163-0.163","","","","Rate your confidence","1",""
"393.09999990463257","e","choice","left","e","experimental","1466","1104088","0.0-4.0-8.164","true","165","2.249999999999999","","",""
"1884.0999999046326","4","confid","","","html-slider-response","1468","1106482","0.0-4.0-10.164-0.164","","","","Rate your confidence","1",""
"343.30000019073486","i","choice","right","i","experimental","1475","1108628","0.0-4.0-8.165","true","166","2.249999999999999","","",""
"1676.5999999046326","5","confid","","","html-slider-response","1477","1110812","0.0-4.0-10.165-0.165","","","","Rate your confidence","1",""
"370","i","choice","right","i","experimental","1484","1112993","0.0-4.0-8.166","true","167","2.149999999999999","","",""
"1625.4000000953674","5","confid","","","html-slider-response","1486","1115123","0.0-4.0-10.166-0.166","","","","Rate your confidence","1",""
"254.10000038146973","i","choice","left","e","experimental","1493","1117198","0.0-4.0-8.167","false","168","2.149999999999999","","",""
"1632.7999997138977","5","confid","","","html-slider-response","1495","1119340","0.0-4.0-10.167-0.167","","","","Rate your confidence","1",""
"413.59999990463257","i","choice","right","i","experimental","1502","1121580","0.0-4.0-8.168","true","169","2.249999999999999","","",""
"1149","5","confid","","","html-slider-response","1504","1123235","0.0-4.0-10.168-0.168","","","","Rate your confidence","1",""
"264.2999997138977","i","choice","left","e","experimental","1511","1125334","0.0-4.0-8.169","false","170","2.249999999999999","","",""
"1101.3000001907349","4","confid","","","html-slider-response","1513","1126945","0.0-4.0-10.169-0.169","","","","Rate your confidence","1",""
"373.5","i","choice","right","i","experimental","1520","1129122","0.0-4.0-8.170","true","171","2.349999999999999","","",""
"1323.0999999046326","5","confid","","","html-slider-response","1522","1130959","0.0-4.0-10.170-0.170","","","","Rate your confidence","1",""
"212.7999997138977","i","choice","left","e","experimental","1529","1133001","0.0-4.0-8.171","false","172","2.349999999999999","","",""
"2029.5999999046326","5","confid","","","html-slider-response","1531","1135535","0.0-4.0-10.171-0.171","","","","Rate your confidence","1",""
"96.30000019073486","i","choice","right","i","experimental","1538","1137454","0.0-4.0-8.172","true","173","2.4499999999999993","","",""
"2173.199999809265","5","confid","","","html-slider-response","1540","1140140","0.0-4.0-10.172-0.172","","","","Rate your confidence","1",""
"422.09999990463257","i","choice","left","e","experimental","1547","1142370","0.0-4.0-8.173","false","174","2.4499999999999993","","",""
"1348.5999999046326","4","confid","","","html-slider-response","1549","1144237","0.0-4.0-10.173-0.173","","","","Rate your confidence","1",""
"377.2000002861023","i","choice","left","e","experimental","1556","1146427","0.0-4.0-8.174","false","175","2.5499999999999994","","",""
"1540.6999998092651","5","confid","","","html-slider-response","1558","1148475","0.0-4.0-10.174-0.174","","","","Rate your confidence","1",""
"227.60000038146973","i","choice","right","i","experimental","1565","1150507","0.0-4.0-8.175","true","176","2.6499999999999995","","",""
"2498.9000000953674","4","confid","","","html-slider-response","1567","1153510","0.0-4.0-10.175-0.175","","","","Rate your confidence","1",""
"121.40000009536743","e","choice","left","e","experimental","1574","1155452","0.0-4.0-8.176","true","177","2.6499999999999995","","",""
"2078.9000000953674","4","confid","","","html-slider-response","1576","1158040","0.0-4.0-10.176-0.176","","","","Rate your confidence","1",""
"486.5","e","choice","right","i","experimental","1583","1160352","0.0-4.0-8.177","false","178","2.5499999999999994","","",""
"2630.7999997138977","4","confid","","","html-slider-response","1585","1163487","0.0-4.0-10.177-0.177","","","","Rate your confidence","1",""
"179.69999980926514","i","choice","right","i","experimental","1592","1165489","0.0-4.0-8.178","true","179","2.6499999999999995","","",""
"1744.1999998092651","4","confid","","","html-slider-response","1594","1167739","0.0-4.0-10.178-0.178","","","","Rate your confidence","1",""
"91.10000038146973","i","choice","left","e","experimental","1601","1169654","0.0-4.0-8.179","false","180","2.6499999999999995","","",""
"1618.5999999046326","4","confid","","","html-slider-response","1603","1171777","0.0-4.0-10.179-0.179","","","","Rate your confidence","1",""
"301.40000009536743","i","choice","right","i","experimental","1610","1173902","0.0-4.0-8.180","true","181","2.7499999999999996","","",""
"1602.5","5","confid","","","html-slider-response","1612","1176011","0.0-4.0-10.180-0.180","","","","Rate your confidence","1",""
"40.5","e","choice","left","e","experimental","1619","1177886","0.0-4.0-8.181","true","182","2.7499999999999996","","",""
"1787.1999998092651","5","confid","","","html-slider-response","1621","1180178","0.0-4.0-10.181-0.181","","","","Rate your confidence","1",""
"95.5","e","choice","left","e","experimental","1628","1182106","0.0-4.0-8.182","true","183","2.6499999999999995","","",""
"1825.8000001907349","6","confid","","","html-slider-response","1630","1184444","0.0-4.0-10.182-0.182","","","","Rate your confidence","1",""
"61.90000009536743","i","choice","right","i","experimental","1637","1186315","0.0-4.0-8.183","true","184","2.6499999999999995","","",""
"1415.7000002861023","6","confid","","","html-slider-response","1639","1188236","0.0-4.0-10.183-0.183","","","","Rate your confidence","1",""
"164.59999990463257","e","choice","left","e","experimental","1646","1190217","0.0-4.0-8.184","true","185","2.5499999999999994","","",""
"2276.199999809265","6","confid","","","html-slider-response","1648","1192998","0.0-4.0-10.184-0.184","","","","Rate your confidence","1",""
"280.09999990463257","e","choice","right","i","experimental","1655","1195097","0.0-4.0-8.185","false","186","2.5499999999999994","","",""
"120584.59999990463","5","confid","","","html-slider-response","1657","1316189","0.0-4.0-10.185-0.185","","","","Rate your confidence","1",""
"129.40000009536743","i","choice","left","e","experimental","1664","1318145","0.0-4.0-8.186","false","187","2.6499999999999995","","",""
"1430.1999998092651","5","confid","","","html-slider-response","1666","1320084","0.0-4.0-10.186-0.186","","","","Rate your confidence","1",""
"363.09999990463257","i","choice","right","i","experimental","1673","1322273","0.0-4.0-8.187","true","188","2.7499999999999996","","",""
"1208.3999996185303","5","confid","","","html-slider-response","1675","1323986","0.0-4.0-10.187-0.187","","","","Rate your confidence","1",""
"570.4000000953674","e","choice","left","e","experimental","1682","1326393","0.0-4.0-8.188","true","189","2.7499999999999996","","",""
"1999","4","confid","","","html-slider-response","1684","1328900","0.0-4.0-10.188-0.188","","","","Rate your confidence","1",""
"241.89999961853027","e","choice","right","i","experimental","1691","1330956","0.0-4.0-8.189","false","190","2.6499999999999995","","",""
"1943.3000001907349","3","confid","","","html-slider-response","1693","1333405","0.0-4.0-10.189-0.189","","","","Rate your confidence","1",""
"422.19999980926514","i","choice","right","i","experimental","1700","1335635","0.0-4.0-8.190","true","191","2.7499999999999996","","",""
"1518.0999999046326","4","confid","","","html-slider-response","1702","1337659","0.0-4.0-10.190-0.190","","","","Rate your confidence","1",""
"124.90000009536743","e","choice","left","e","experimental","1709","1339630","0.0-4.0-8.191","true","192","2.7499999999999996","","",""
"1658.9000000953674","6","confid","","","html-slider-response","1711","1341802","0.0-4.0-10.191-0.191","","","","Rate your confidence","1",""
"268.59999990463257","i","choice","right","i","experimental","1718","1343878","0.0-4.0-8.192","true","193","2.6499999999999995","","",""
"1310","5","confid","","","html-slider-response","1720","1345693","0.0-4.0-10.192-0.192","","","","Rate your confidence","1",""
"115.7000002861023","e","choice","left","e","experimental","1727","1347656","0.0-4.0-8.193","true","194","2.6499999999999995","","",""
"1374","6","confid","","","html-slider-response","1729","1349540","0.0-4.0-10.193-0.193","","","","Rate your confidence","1","73139"
