"rt","response","task","target_side","correct_response","trial_type","trial_index","time_elapsed","internal_node_id","correct","trial_number","n_dots","stimulus","slider_start","participant"
"1833.300000011921","i","choice","left","e","practice","10","151271","0.0-4.0-8.0","false","1","4.25","","",""
"1342.0999999940395","i","choice","right","i","practice","18","154908","0.0-4.0-8.1","true","2","4.65","","",""
"2149.4000000059605","e","choice","right","i","practice","26","159351","0.0-4.0-8.2","false","3","4.65","","",""
"1173.6000000238419","e","choice","left","e","practice","34","162838","0.0-4.0-8.3","true","4","5.050000000000001","","",""
"770.0999999940395","e","choice","left","e","practice","42","165901","0.0-4.0-8.4","true","5","5.050000000000001","","",""
"553.8999999761581","i","choice","right","i","practice","50","168748","0.0-4.0-8.5","true","6","4.65","","",""
"802.5","e","choice","right","i","practice","58","171861","0.0-4.0-8.6","false","7","4.65","","",""
"671.5999999940395","e","choice","left","e","practice","66","174848","0.0-4.0-8.7","true","8","4.8500000000000005","","",""
"531.0999999940395","e","choice","left","e","practice","74","177685","0.0-4.0-8.8","true","9","4.8500000000000005","","",""
"371.60000002384186","i","choice","right","i","practice","82","180342","0.0-4.0-8.9","true","10","4.65","","",""
"38.29999998211861","i","choice","right","i","practice","90","182684","0.0-4.0-8.10","true","11","4.65","","",""
"118.2999999821186","e","choice","left","e","practice","98","185102","0.0-4.0-8.11","true","12","4.550000000000001","","",""
"184.80000001192093","i","choice","left","e","practice","106","187603","0.0-4.0-8.12","false","13","4.550000000000001","","",""
"181.40000000596046","i","choice","right","i","practice","114","190075","0.0-4.0-8.13","true","14","4.65","","",""
"1025.7999999821186","e","choice","right","i","practice","122","193407","0.0-4.0-8.14","false","15","4.65","","",""
"239.89999997615814","e","choice","left","e","practice","130","195957","0.0-4.0-8.15","true","16","4.75","","",""
"249.59999999403954","i","choice","right","i","practice","138","198509","0.0-4.0-8.16","true","17","4.75","","",""
"18.599999994039536","e","choice","left","e","practice","146","200822","0.0-4.0-8.17","true","18","4.65","","",""
"420.60000002384186","e","choice","right","i","practice","154","203534","0.0-4.0-8.18","false","19","4.65","","",""
"3109.5999999940395","e","choice","left","e","practice","162","208951","0.0-4.0-8.19","true","20","4.75","","",""
"161.2999999821186","e","choice","left","e","practice","170","211430","0.0-4.0-8.20","true","21","4.75","","",""
"975.1999999880791","i","choice","right","i","practice","178","214711","0.0-4.0-8.21","true","22","4.65","","",""
"457.10000002384186","i","choice","right","i","practice","186","217483","0.0-4.0-8.22","true","23","4.65","","",""
"744.5","e","choice","left","e","practice","194","220515","0.0-4.0-8.23","true","24","4.550000000000001","","",""
"306.2000000178814","i","choice","right","i","practice","202","223127","0.0-4.0-8.24","true","25","4.550000000000001","","",""
"591.7999999821186","e","choice","left","e","practice","210","226020","0.0-4.0-8.25","true","26","4.450000000000001","","",""
"253.5","i","choice","right","i","experimental","221","295527","0.0-4.0-8.26","true","27","4.450000000000001","","",""
"8453.299999982119","4","confid","","","html-slider-response","223","304486","0.0-4.0-10.26-0.26","","","","Rate your confidence","1",""
"75.2000000178814","e","choice","left","e","experimental","230","306373","0.0-4.0-8.27","true","28","4.350000000000001","","",""
"8079.9000000059605","5","confid","","","html-slider-response","232","314958","0.0-4.0-10.27-0.27","","","","Rate your confidence","1",""
"100.5","e","choice","left","e","experimental","239","316847","0.0-4.0-8.28","true","29","4.350000000000001","","",""
"5502.300000011921","5","confid","","","html-slider-response","241","322854","0.0-4.0-10.28-0.28","","","","Rate your confidence","1",""
"256","i","choice","right","i","experimental","248","324896","0.0-4.0-8.29","true","30","4.250000000000002","","",""
"3882","4","confid","","","html-slider-response","250","329294","0.0-4.0-10.29-0.29","","","","Rate your confidence","1",""
"1101.9000000059605","i","choice","right","i","experimental","257","332184","0.0-4.0-8.30","true","31","4.250000000000002","","",""
"3743.2000000178814","3","confid","","","html-slider-response","259","336431","0.0-4.0-10.30-0.30","","","","Rate your confidence","1",""
"148","e","choice","left","e","experimental","266","338371","0.0-4.0-8.31","true","32","4.150000000000002","","",""
"10779.199999988079","5","confid","","","html-slider-response","268","349654","0.0-4.0-10.31-0.31","","","","Rate your confidence","1",""
"835.6000000238419","e","choice","left","e","experimental","275","352288","0.0-4.0-8.32","true","33","4.150000000000002","","",""
"4757.0999999940395","5","confid","","","html-slider-response","277","357550","0.0-4.0-10.32-0.32","","","","Rate your confidence","1",""
"301.80000001192093","i","choice","right","i","experimental","284","359654","0.0-4.0-8.33","true","34","4.0500000000000025","","",""
"3167.0999999940395","3","confid","","","html-slider-response","286","363326","0.0-4.0-10.33-0.33","","","","Rate your confidence","1",""
"2464.600000023842","e","choice","right","i","experimental","293","367572","0.0-4.0-8.34","false","35","4.0500000000000025","","",""
"7205.399999976158","2","confid","","","html-slider-response","295","375294","0.0-4.0-10.34-0.34","","","","Rate your confidence","1",""
"202.59999999403954","e","choice","left","e","experimental","302","377286","0.0-4.0-8.35","true","36","4.150000000000002","","",""
"3304.800000011921","4","confid","","","html-slider-response","304","381094","0.0-4.0-10.35-0.35","","","","Rate your confidence","1",""
"298.19999998807907","e","choice","right","i","experimental","311","383204","0.0-4.0-8.36","false","37","4.150000000000002","","",""
"4436.4000000059605","3","confid","","","html-slider-response","313","388142","0.0-4.0-10.36-0.36","","","","Rate your confidence","1",""
"615.0999999940395","e","choice","left","e","experimental","320","390569","0.0-4.0-8.37","true","38","4.250000000000002","","",""
"4308.899999976158","5","confid","","","html-slider-response","322","395382","0.0-4.0-10.37-0.37","","","","Rate your confidence","1",""
"295.19999998807907","i","choice","right","i","experimental","329","397479","0.0-4.0-8.38","true","39","4.250000000000002","","",""
"3038.2999999821186","4","confid","","","html-slider-response","331","401022","0.0-4.0-10.38-0.38","","","","Rate your confidence","1",""
"91.30000001192093","e","choice","left","e","experimental","338","402902","0.0-4.0-8.39","true","40","4.150000000000002","","",""
"4086.699999988079","5","confid","","","html-slider-response","340","407494","0.0-4.0-10.39-0.39","","","","Rate your confidence","1",""
"98.59999999403954","e","choice","left","e","experimental","347","409385","0.0-4.0-8.40","true","41","4.150000000000002","","",""
"2716.4000000059605","5","confid","","","html-slider-response","349","412606","0.0-4.0-10.40-0.40","","","","Rate your confidence","1",""
"98.19999998807907","i","choice","right","i","experimental","356","414514","0.0-4.0-8.41","true","42","4.0500000000000025","","",""
"2619.0999999940395","4","confid","","","html-slider-response","358","417638","0.0-4.0-10.41-0.41","","","","Rate your confidence","1",""
"1729.4000000059605","i","choice","right","i","experimental","365","421162","0.0-4.0-8.42","true","43","4.0500000000000025","","",""
"6978.5","2","confid","","","html-slider-response","367","428646","0.0-4.0-10.42-0.42","","","","Rate your confidence","1",""
"292.80000001192093","e","choice","left","e","experimental","374","430748","0.0-4.0-8.43","true","44","3.9500000000000024","","",""
"3304.600000023842","4","confid","","","html-slider-response","376","434558","0.0-4.0-10.43-0.43","","","","Rate your confidence","1",""
"215.59999999403954","e","choice","left","e","experimental","383","436559","0.0-4.0-8.44","true","45","3.9500000000000024","","",""
"2423.7000000178814","4","confid","","","html-slider-response","385","439486","0.0-4.0-10.44-0.44","","","","Rate your confidence","1",""
"185.19999998807907","i","choice","right","i","experimental","392","441459","0.0-4.0-8.45","true","46","3.8500000000000023","","",""
"2433","4","confid","","","html-slider-response","394","444398","0.0-4.0-10.45-0.45","","","","Rate your confidence","1",""
"265.30000001192093","i","choice","right","i","experimental","401","446475","0.0-4.0-8.46","true","47","3.8500000000000023","","",""
"4107.0999999940395","3","confid","","","html-slider-response","403","451086","0.0-4.0-10.46-0.46","","","","Rate your confidence","1",""
"668.3999999761581","e","choice","left","e","experimental","410","453555","0.0-4.0-8.47","true","48","3.750000000000002","","",""
"2130.5999999940395","5","confid","","","html-slider-response","412","456190","0.0-4.0-10.47-0.47","","","","Rate your confidence","1",""
"46.599999994039536","e","choice","left","e","experimental","419","458041","0.0-4.0-8.48","true","49","3.750000000000002","","",""
"2221.0999999940395","5","confid","","","html-slider-response","421","460766","0.0-4.0-10.48-0.48","","","","Rate your confidence","1",""
"215.90000000596046","i","choice","right","i","experimental","428","462771","0.0-4.0-8.49","true","50","3.650000000000002","","",""
"2065.5999999940395","4","confid","","","html-slider-response","430","465342","0.0-4.0-10.49-0.49","","","","Rate your confidence","1",""
"56.599999994039536","e","choice","left","e","experimental","437","467188","0.0-4.0-8.50","true","51","3.650000000000002","","",""
"4530.300000011921","6","confid","","","html-slider-response","439","472222","0.0-4.0-10.50-0.50","","","","Rate your confidence","1",""
"261","i","choice","right","i","experimental","446","474279","0.0-4.0-8.51","true","52","3.550000000000002","","",""
"1934.5","3","confid","","","html-slider-response","448","476718","0.0-4.0-10.51-0.51","","","","Rate your confidence","1",""
"242.10000002384186","i","choice","right","i","experimental","455","478747","0.0-4.0-8.52","true","53","3.550000000000002","","",""
"2288.9000000059605","2","confid","","","html-slider-response","457","481542","0.0-4.0-10.52-0.52","","","","Rate your confidence","1",""
"720.5999999940395","e","choice","left","e","experimental","464","484052","0.0-4.0-8.53","true","54","3.450000000000002","","",""
"3288.5999999940395","5","confid","","","html-slider-response","466","487846","0.0-4.0-10.53-0.53","","","","Rate your confidence","1",""
"820.4000000059605","i","choice","right","i","experimental","473","490452","0.0-4.0-8.54","true","55","3.450000000000002","","",""
"2860.5999999940395","3","confid","","","html-slider-response","475","493830","0.0-4.0-10.54-0.54","","","","Rate your confidence","1",""
"715.5999999940395","e","choice","left","e","experimental","482","496330","0.0-4.0-8.55","true","56","3.350000000000002","","",""
"4115.5","2","confid","","","html-slider-response","484","500950","0.0-4.0-10.55-0.55","","","","Rate your confidence","1",""
"334.90000000596046","e","choice","left","e","experimental","491","503085","0.0-4.0-8.56","true","57","3.350000000000002","","",""
"3232","6","confid","","","html-slider-response","493","506822","0.0-4.0-10.56-0.56","","","","Rate your confidence","1",""
"319.10000002384186","e","choice","right","i","experimental","500","508931","0.0-4.0-8.57","false","58","3.2500000000000018","","",""
"2370.699999988079","4","confid","","","html-slider-response","502","511806","0.0-4.0-10.57-0.57","","","","Rate your confidence","1",""
"183.40000000596046","e","choice","right","i","experimental","509","513777","0.0-4.0-8.58","false","59","3.350000000000002","","",""
"3419.9000000059605","3","confid","","","html-slider-response","511","517702","0.0-4.0-10.58-0.58","","","","Rate your confidence","1",""
"172.5","e","choice","left","e","experimental","518","519664","0.0-4.0-8.59","true","60","3.450000000000002","","",""
"2364.699999988079","4","confid","","","html-slider-response","520","522534","0.0-4.0-10.59-0.59","","","","Rate your confidence","1",""
"20.900000005960464","e","choice","left","e","experimental","527","524342","0.0-4.0-8.60","true","61","3.450000000000002","","",""
"3400","6","confid","","","html-slider-response","529","528246","0.0-4.0-10.60-0.60","","","","Rate your confidence","1",""
"72.7999999821186","e","choice","right","i","experimental","536","530105","0.0-4.0-8.61","false","62","3.350000000000002","","",""
"6636.5999999940395","1","confid","","","html-slider-response","538","537246","0.0-4.0-10.61-0.61","","","","Rate your confidence","1",""
"1767.4000000059605","i","choice","right","i","experimental","545","540828","0.0-4.0-8.62","true","63","3.450000000000002","","",""
"3745.9000000059605","2","confid","","","html-slider-response","547","545078","0.0-4.0-10.62-0.62","","","","Rate your confidence","1",""
"373.09999999403954","e","choice","left","e","experimental","554","547253","0.0-4.0-8.63","true","64","3.450000000000002","","",""
"8017.5","5","confid","","","html-slider-response","556","555774","0.0-4.0-10.63-0.63","","","","Rate your confidence","1",""
"137.19999998807907","e","choice","left","e","experimental","563","557717","0.0-4.0-8.64","true","65","3.350000000000002","","",""
"3494.7000000178814","5","confid","","","html-slider-response","565","561718","0.0-4.0-10.64-0.64","","","","Rate your confidence","1",""
"307.2000000178814","e","choice","right","i","experimental","572","563813","0.0-4.0-8.65","false","66","3.350000000000002","","",""
"3545.5999999940395","5","confid","","","html-slider-response","574","567862","0.0-4.0-10.65-0.65","","","","Rate your confidence","1",""
"107.30000001192093","e","choice","left","e","experimental","581","569757","0.0-4.0-8.66","true","67","3.450000000000002","","",""
"2231.0999999940395","6","confid","","","html-slider-response","583","572494","0.0-4.0-10.66-0.66","","","","Rate your confidence","1",""
"667.6000000238419","i","choice","right","i","experimental","590","574978","0.0-4.0-8.67","true","68","3.450000000000002","","",""
"3099.699999988079","2","confid","","","html-slider-response","592","578583","0.0-4.0-10.67-0.67","","","","Rate your confidence","1",""
"506.30000001192093","e","choice","right","i","experimental","600","1427453","0.0-4.0-8.68","false","69","3.350000000000002","","",""
"5848.5","2","confid","","","html-slider-response","602","1433806","0.0-4.0-10.68-0.68","","","","Rate your confidence","1",""
"555.5","e","choice","left","e","experimental","609","1436163","0.0-4.0-8.69","true","70","3.450000000000002","","",""
"4058.300000011921","2","confid","","","html-slider-response","611","1440726","0.0-4.0-10.69-0.69","","","","Rate your confidence","1",""
"429","e","choice","left","e","experimental","618","1442966","0.0-4.0-8.70","true","71","3.450000000000002","","",""
"2663.5","3","confid","","","html-slider-response","620","1446135","0.0-4.0-10.70-0.70","","","","Rate your confidence","1",""
"3469.0999999940395","i","choice","right","i","experimental","627","1451384","0.0-4.0-8.71","true","72","3.350000000000002","","",""
"8309.40000000596","1","confid","","","html-slider-response","629","1460198","0.0-4.0-10.71-0.71","","","","Rate your confidence","1",""
"44.099999994039536","e","choice","right","i","experimental","636","1462032","0.0-4.0-8.72","false","73","3.350000000000002","","",""
"2891.9000000059605","3","confid","","","html-slider-response","638","1465438","0.0-4.0-10.72-0.72","","","","Rate your confidence","1",""
"274.39999997615814","e","choice","left","e","experimental","645","1467496","0.0-4.0-8.73","true","74","3.450000000000002","","",""
"2797.2000000178814","4","confid","","","html-slider-response","647","1470798","0.0-4.0-10.73-0.73","","","","Rate your confidence","1",""
"84.7999999821186","e","choice","left","e","experimental","654","1472694","0.0-4.0-8.74","true","75","3.450000000000002","","",""
"2664.199999988079","4","confid","","","html-slider-response","656","1475863","0.0-4.0-10.74-0.74","","","","Rate your confidence","1",""
"842.6999999880791","i","choice","right","i","experimental","663","1478516","0.0-4.0-8.75","true","76","3.350000000000002","","",""
"2481.600000023842","2","confid","","","html-slider-response","665","1481502","0.0-4.0-10.75-0.75","","","","Rate your confidence","1",""
"195.19999998807907","e","choice","left","e","experimental","672","1483482","0.0-4.0-8.76","true","77","3.350000000000002","","",""
"3636.199999988079","4","confid","","","html-slider-response","674","1487622","0.0-4.0-10.76-0.76","","","","Rate your confidence","1",""
"155.30000001192093","e","choice","right","i","experimental","681","1489563","0.0-4.0-8.77","false","78","3.2500000000000018","","",""
"3163","2","confid","","","html-slider-response","683","1493230","0.0-4.0-10.77-0.77","","","","Rate your confidence","1",""
"186.30000001192093","e","choice","left","e","experimental","690","1495208","0.0-4.0-8.78","true","79","3.350000000000002","","",""
"2246.199999988079","4","confid","","","html-slider-response","692","1497959","0.0-4.0-10.78-0.78","","","","Rate your confidence","1",""
"181","i","choice","right","i","experimental","699","1499954","0.0-4.0-8.79","true","80","3.350000000000002","","",""
"2067.9000000059605","4","confid","","","html-slider-response","701","1502527","0.0-4.0-10.79-0.79","","","","Rate your confidence","1",""
"212.80000001192093","e","choice","left","e","experimental","708","1504565","0.0-4.0-8.80","true","81","3.2500000000000018","","",""
"3197.2000000178814","4","confid","","","html-slider-response","710","1508270","0.0-4.0-10.80-0.80","","","","Rate your confidence","1",""
"31.19999998807907","i","choice","right","i","experimental","717","1510092","0.0-4.0-8.81","true","82","3.2500000000000018","","",""
"2233.800000011921","5","confid","","","html-slider-response","719","1512830","0.0-4.0-10.81-0.81","","","","Rate your confidence","1",""
"242.5","e","choice","right","i","experimental","726","1514861","0.0-4.0-8.82","false","83","3.1500000000000017","","",""
"3132","2","confid","","","html-slider-response","728","1518510","0.0-4.0-10.82-0.82","","","","Rate your confidence","1",""
"212.89999997615814","e","choice","left","e","experimental","735","1520511","0.0-4.0-8.83","true","84","3.2500000000000018","","",""
"2734.5","3","confid","","","html-slider-response","737","1523750","0.0-4.0-10.83-0.83","","","","Rate your confidence","1",""
"262.59999999403954","i","choice","right","i","experimental","744","1525818","0.0-4.0-8.84","true","85","3.2500000000000018","","",""
"2339.5","1","confid","","","html-slider-response","746","1528662","0.0-4.0-10.84-0.84","","","","Rate your confidence","1",""
"44.900000005960464","e","choice","left","e","experimental","753","1530509","0.0-4.0-8.85","true","86","3.1500000000000017","","",""
"2441.0999999940395","3","confid","","","html-slider-response","755","1533454","0.0-4.0-10.85-0.85","","","","Rate your confidence","1",""
"284.2999999821186","i","choice","left","e","experimental","762","1535525","0.0-4.0-8.86","false","87","3.1500000000000017","","",""
"3045.300000011921","1","confid","","","html-slider-response","764","1539086","0.0-4.0-10.86-0.86","","","","Rate your confidence","1",""
"259.5","i","choice","right","i","experimental","771","1541138","0.0-4.0-8.87","true","88","3.2500000000000018","","",""
"2332.5","4","confid","","","html-slider-response","773","1543975","0.0-4.0-10.87-0.87","","","","Rate your confidence","1",""
"34.70000001788139","e","choice","left","e","experimental","780","1545817","0.0-4.0-8.88","true","89","3.2500000000000018","","",""
"2667.5999999940395","3","confid","","","html-slider-response","782","1548990","0.0-4.0-10.88-0.88","","","","Rate your confidence","1",""
"240.69999998807907","i","choice","right","i","experimental","789","1551031","0.0-4.0-8.89","true","90","3.1500000000000017","","",""
"1717.8999999761581","5","confid","","","html-slider-response","791","1553254","0.0-4.0-10.89-0.89","","","","Rate your confidence","1",""
"656.9000000059605","i","choice","left","e","experimental","798","1555699","0.0-4.0-8.90","false","91","3.1500000000000017","","",""
"2188.0999999940395","4","confid","","","html-slider-response","800","1558391","0.0-4.0-10.90-0.90","","","","Rate your confidence","1",""
"606.4000000059605","i","choice","right","i","experimental","807","1560784","0.0-4.0-8.91","true","92","3.2500000000000018","","",""
"2349.5999999940395","3","confid","","","html-slider-response","809","1563638","0.0-4.0-10.91-0.91","","","","Rate your confidence","1",""
"1872.300000011921","e","choice","left","e","experimental","816","1567313","0.0-4.0-8.92","true","93","3.2500000000000018","","",""
"2301.4000000059605","1","confid","","","html-slider-response","818","1570118","0.0-4.0-10.92-0.92","","","","Rate your confidence","1",""
"297.90000000596046","i","choice","right","i","experimental","825","1572216","0.0-4.0-8.93","true","94","3.1500000000000017","","",""
"1907.2000000178814","4","confid","","","html-slider-response","827","1574630","0.0-4.0-10.93-0.93","","","","Rate your confidence","1",""
"2204.0999999940395","e","choice","left","e","experimental","834","1578622","0.0-4.0-8.94","true","95","3.1500000000000017","","",""
"2126.5999999940395","1","confid","","","html-slider-response","836","1581254","0.0-4.0-10.94-0.94","","","","Rate your confidence","1",""
"246.30000001192093","i","choice","right","i","experimental","843","1583309","0.0-4.0-8.95","true","96","3.0500000000000016","","",""
"3218.300000011921","5","confid","","","html-slider-response","845","1587030","0.0-4.0-10.95-0.95","","","","Rate your confidence","1",""
"165.2000000178814","i","choice","right","i","experimental","852","1588986","0.0-4.0-8.96","true","97","3.0500000000000016","","",""
"3058.4000000059605","6","confid","","","html-slider-response","854","1592550","0.0-4.0-10.96-0.96","","","","Rate your confidence","1",""
"601.7999999821186","e","choice","left","e","experimental","861","1594941","0.0-4.0-8.97","true","98","2.9500000000000015","","",""
"2128.4000000059605","3","confid","","","html-slider-response","863","1597574","0.0-4.0-10.97-0.97","","","","Rate your confidence","1",""
"300","i","choice","right","i","experimental","870","1599664","0.0-4.0-8.98","true","99","2.9500000000000015","","",""
"2092.4000000059605","5","confid","","","html-slider-response","872","1602262","0.0-4.0-10.98-0.98","","","","Rate your confidence","1",""
"1665","i","choice","left","e","experimental","879","1605735","0.0-4.0-8.99","false","100","2.8500000000000014","","",""
"5943.800000011921","3","confid","","","html-slider-response","881","1612182","0.0-4.0-10.99-0.99","","","","Rate your confidence","1",""
"214.69999998807907","i","choice","right","i","experimental","888","1614188","0.0-4.0-8.100","true","101","2.9500000000000015","","",""
"1681.300000011921","5","confid","","","html-slider-response","890","1616375","0.0-4.0-10.100-0.100","","","","Rate your confidence","1",""
"2394.0999999940395","i","choice","left","e","experimental","897","1620558","0.0-4.0-8.101","false","102","2.9500000000000015","","",""
"1946.300000011921","2","confid","","","html-slider-response","899","1623022","0.0-4.0-10.101-0.101","","","","Rate your confidence","1",""
"135.19999998807907","i","choice","right","i","experimental","906","1624946","0.0-4.0-8.102","true","103","3.0500000000000016","","",""
"62185","6","confid","","","html-slider-response","908","1687637","0.0-4.0-10.102-0.102","","","","Rate your confidence","1",""
"1725.300000011921","i","choice","left","e","experimental","915","1691142","0.0-4.0-8.103","false","104","3.0500000000000016","","",""
"5040.600000023842","3","confid","","","html-slider-response","917","1696725","0.0-4.0-10.103-0.103","","","","Rate your confidence","1",""
"203.7999999821186","i","choice","right","i","experimental","924","1698702","0.0-4.0-8.104","true","105","3.1500000000000017","","",""
"2719.699999988079","6","confid","","","html-slider-response","926","1701925","0.0-4.0-10.104-0.104","","","","Rate your confidence","1",""
"555.5","i","choice","left","e","experimental","933","1704263","0.0-4.0-8.105","false","106","3.1500000000000017","","",""
"2382.699999988079","4","confid","","","html-slider-response","935","1707142","0.0-4.0-10.105-0.105","","","","Rate your confidence","1",""
"594.0999999940395","i","choice","right","i","experimental","942","1709529","0.0-4.0-8.106","true","107","3.2500000000000018","","",""
"2110.4000000059605","3","confid","","","html-slider-response","944","1712142","0.0-4.0-10.106-0.106","","","","Rate your confidence","1",""
"511.69999998807907","e","choice","left","e","experimental","951","1714427","0.0-4.0-8.107","true","108","3.2500000000000018","","",""
"2723.5","4","confid","","","html-slider-response","953","1717654","0.0-4.0-10.107-0.107","","","","Rate your confidence","1",""
"172.59999999403954","i","choice","right","i","experimental","960","1719597","0.0-4.0-8.108","true","109","3.1500000000000017","","",""
"3105.9000000059605","5","confid","","","html-slider-response","962","1723206","0.0-4.0-10.108-0.108","","","","Rate your confidence","1",""
"584.2999999821186","e","choice","left","e","experimental","969","1725572","0.0-4.0-8.109","true","110","3.1500000000000017","","",""
"2051.100000023842","2","confid","","","html-slider-response","971","1728126","0.0-4.0-10.109-0.109","","","","Rate your confidence","1",""
"1372.5999999940395","i","choice","right","i","experimental","979","1988834","0.0-4.0-8.110","true","111","3.0500000000000016","","",""
"2877.7000000178814","2","confid","","","html-slider-response","981","1992215","0.0-4.0-10.110-0.110","","","","Rate your confidence","1",""
"219.2999999821186","e","choice","left","e","experimental","988","1994225","0.0-4.0-8.111","true","112","3.0500000000000016","","",""
"4644.0999999940395","5","confid","","","html-slider-response","990","1999375","0.0-4.0-10.111-0.111","","","","Rate your confidence","1",""
"232.7000000178814","e","choice","left","e","experimental","997","2001396","0.0-4.0-8.112","true","113","2.9500000000000015","","",""
"4921.4000000059605","5","confid","","","html-slider-response","999","2006823","0.0-4.0-10.112-0.112","","","","Rate your confidence","1",""
"234.59999999403954","e","choice","right","i","experimental","1006","2008845","0.0-4.0-8.113","false","114","2.9500000000000015","","",""
"3729.199999988079","5","confid","","","html-slider-response","1008","2013079","0.0-4.0-10.113-0.113","","","","Rate your confidence","1",""
"1000.5999999940395","e","choice","right","i","experimental","1015","2015885","0.0-4.0-8.114","false","115","3.0500000000000016","","",""
"2633","2","confid","","","html-slider-response","1017","2019023","0.0-4.0-10.114-0.114","","","","Rate your confidence","1",""
"1585.5999999940395","e","choice","left","e","experimental","1024","2022404","0.0-4.0-8.115","true","116","3.1500000000000017","","",""
"2872.7000000178814","1","confid","","","html-slider-response","1026","2025783","0.0-4.0-10.115-0.115","","","","Rate your confidence","1",""
"1993.5","i","choice","right","i","experimental","1033","2029562","0.0-4.0-8.116","true","117","3.1500000000000017","","",""
"2450.800000011921","1","confid","","","html-slider-response","1035","2032519","0.0-4.0-10.116-0.116","","","","Rate your confidence","1",""
"872","e","choice","left","e","experimental","1042","2035187","0.0-4.0-8.117","true","118","3.0500000000000016","","",""
"2531.2999999821186","6","confid","","","html-slider-response","1044","2038222","0.0-4.0-10.117-0.117","","","","Rate your confidence","1",""
"79.2999999821186","e","choice","left","e","experimental","1051","2040116","0.0-4.0-8.118","true","119","3.0500000000000016","","",""
"3384.4000000059605","5","confid","","","html-slider-response","1053","2044006","0.0-4.0-10.118-0.118","","","","Rate your confidence","1",""
"2214.199999988079","i","choice","right","i","experimental","1060","2048006","0.0-4.0-8.119","true","120","2.9500000000000015","","",""
"2584.199999988079","2","confid","","","html-slider-response","1062","2051094","0.0-4.0-10.119-0.119","","","","Rate your confidence","1",""
"71.59999999403954","e","choice","right","i","experimental","1069","2052964","0.0-4.0-8.120","false","121","2.9500000000000015","","",""
"2057.199999988079","6","confid","","","html-slider-response","1071","2055526","0.0-4.0-10.120-0.120","","","","Rate your confidence","1",""
"1388.7999999821186","i","choice","left","e","experimental","1078","2058706","0.0-4.0-8.121","false","122","3.0500000000000016","","",""
"3347.5999999940395","2","confid","","","html-slider-response","1080","2062559","0.0-4.0-10.121-0.121","","","","Rate your confidence","1",""
"259.19999998807907","i","choice","right","i","experimental","1087","2064609","0.0-4.0-8.122","true","123","3.1500000000000017","","",""
"2116.699999988079","5","confid","","","html-slider-response","1089","2067230","0.0-4.0-10.122-0.122","","","","Rate your confidence","1",""
"309.7000000178814","e","choice","left","e","experimental","1096","2069347","0.0-4.0-8.123","true","124","3.1500000000000017","","",""
"3569.4000000059605","4","confid","","","html-slider-response","1098","2073422","0.0-4.0-10.123-0.123","","","","Rate your confidence","1",""
"950.6000000238419","e","choice","left","e","experimental","1105","2076163","0.0-4.0-8.124","true","125","3.0500000000000016","","",""
"4914.5999999940395","5","confid","","","html-slider-response","1107","2081582","0.0-4.0-10.124-0.124","","","","Rate your confidence","1",""
"580.5","e","choice","right","i","experimental","1114","2083953","0.0-4.0-8.125","false","126","3.0500000000000016","","",""
"1899.4000000059605","4","confid","","","html-slider-response","1116","2086358","0.0-4.0-10.125-0.125","","","","Rate your confidence","1",""
"284.5","e","choice","left","e","experimental","1123","2088428","0.0-4.0-8.126","true","127","3.1500000000000017","","",""
"2127.699999988079","4","confid","","","html-slider-response","1125","2091062","0.0-4.0-10.126-0.126","","","","Rate your confidence","1",""
"349.2000000178814","i","choice","right","i","experimental","1132","2093224","0.0-4.0-8.127","true","128","3.1500000000000017","","",""
"3284","3","confid","","","html-slider-response","1134","2097014","0.0-4.0-10.127-0.127","","","","Rate your confidence","1",""
"153.89999997615814","i","choice","right","i","experimental","1141","2098955","0.0-4.0-8.128","true","129","3.0500000000000016","","",""
"3752.4000000059605","5","confid","","","html-slider-response","1143","2103214","0.0-4.0-10.128-0.128","","","","Rate your confidence","1",""
"650.7000000178814","e","choice","left","e","experimental","1150","2105679","0.0-4.0-8.129","true","130","3.0500000000000016","","",""
"3093.600000023842","3","confid","","","html-slider-response","1152","2109278","0.0-4.0-10.129-0.129","","","","Rate your confidence","1",""
"467.5","i","choice","right","i","experimental","1159","2111535","0.0-4.0-8.130","true","131","2.9500000000000015","","",""
"2925.0999999940395","5","confid","","","html-slider-response","1161","2114966","0.0-4.0-10.130-0.130","","","","Rate your confidence","1",""
"6.5999999940395355","e","choice","left","e","experimental","1168","2116761","0.0-4.0-8.131","true","132","2.9500000000000015","","",""
"2692.199999988079","5","confid","","","html-slider-response","1170","2119958","0.0-4.0-10.131-0.131","","","","Rate your confidence","1",""
"1269.9000000059605","e","choice","right","i","experimental","1177","2123030","0.0-4.0-8.132","false","133","2.8500000000000014","","",""
"2606.699999988079","3","confid","","","html-slider-response","1179","2126142","0.0-4.0-10.132-0.132","","","","Rate your confidence","1",""
"419.30000001192093","i","choice","left","e","experimental","1186","2128366","0.0-4.0-8.133","false","134","2.9500000000000015","","",""
"3591.9000000059605","3","confid","","","html-slider-response","1188","2132462","0.0-4.0-10.133-0.133","","","","Rate your confidence","1",""
"2707.199999988079","e","choice","left","e","experimental","1195","2136974","0.0-4.0-8.134","true","135","3.0500000000000016","","",""
"2327.0999999940395","1","confid","","","html-slider-response","1197","2139806","0.0-4.0-10.134-0.134","","","","Rate your confidence","1",""
"84.59999999403954","i","choice","right","i","experimental","1204","2141693","0.0-4.0-8.135","true","136","3.0500000000000016","","",""
"4079.4000000059605","5","confid","","","html-slider-response","1206","2146278","0.0-4.0-10.135-0.135","","","","Rate your confidence","1",""
"1137.9000000059605","i","choice","right","i","experimental","1213","2149202","0.0-4.0-8.136","true","137","2.9500000000000015","","",""
"3315.7000000178814","2","confid","","","html-slider-response","1215","2153022","0.0-4.0-10.136-0.136","","","","Rate your confidence","1",""
"188.7000000178814","e","choice","left","e","experimental","1222","2155000","0.0-4.0-8.137","true","138","2.9500000000000015","","",""
"2541.300000011921","4","confid","","","html-slider-response","1224","2158046","0.0-4.0-10.137-0.137","","","","Rate your confidence","1",""
"224.69999998807907","i","choice","left","e","experimental","1231","2160072","0.0-4.0-8.138","false","139","2.8500000000000014","","",""
"1916.9000000059605","4","confid","","","html-slider-response","1233","2162494","0.0-4.0-10.138-0.138","","","","Rate your confidence","1",""
"1297.199999988079","i","choice","right","i","experimental","1240","2165573","0.0-4.0-8.139","true","140","2.9500000000000015","","",""
"3526.9000000059605","5","confid","","","html-slider-response","1242","2169607","0.0-4.0-10.139-0.139","","","","Rate your confidence","1",""
"256.59999999403954","i","choice","right","i","experimental","1249","2171653","0.0-4.0-8.140","true","141","2.9500000000000015","","",""
"2752","6","confid","","","html-slider-response","1251","2174934","0.0-4.0-10.140-0.140","","","","Rate your confidence","1",""
"214.90000000596046","e","choice","left","e","experimental","1258","2176954","0.0-4.0-8.141","true","142","2.8500000000000014","","",""
"2433.7000000178814","5","confid","","","html-slider-response","1260","2179895","0.0-4.0-10.141-0.141","","","","Rate your confidence","1",""
"1349.0999999940395","e","choice","left","e","experimental","1267","2183065","0.0-4.0-8.142","true","143","2.8500000000000014","","",""
"2445.9000000059605","2","confid","","","html-slider-response","1269","2186014","0.0-4.0-10.142-0.142","","","","Rate your confidence","1",""
"517.5999999940395","i","choice","right","i","experimental","1276","2188324","0.0-4.0-8.143","true","144","2.7500000000000013","","",""
"3000.9000000059605","2","confid","","","html-slider-response","1278","2191830","0.0-4.0-10.143-0.143","","","","Rate your confidence","1",""
"618.1999999880791","i","choice","right","i","experimental","1285","2194239","0.0-4.0-8.144","true","145","2.7500000000000013","","",""
"2333","6","confid","","","html-slider-response","1287","2197078","0.0-4.0-10.144-0.144","","","","Rate your confidence","1",""
"763","i","choice","left","e","experimental","1294","2199631","0.0-4.0-8.145","false","146","2.6500000000000012","","",""
"2000","2","confid","","","html-slider-response","1296","2202134","0.0-4.0-10.145-0.145","","","","Rate your confidence","1",""
"36.599999994039536","e","choice","left","e","experimental","1303","2203957","0.0-4.0-8.146","true","147","2.7500000000000013","","",""
"2439.7000000178814","5","confid","","","html-slider-response","1305","2206903","0.0-4.0-10.146-0.146","","","","Rate your confidence","1",""
"256.80000001192093","i","choice","right","i","experimental","1312","2208950","0.0-4.0-8.147","true","148","2.7500000000000013","","",""
"2782.4000000059605","6","confid","","","html-slider-response","1314","2212239","0.0-4.0-10.147-0.147","","","","Rate your confidence","1",""
"755.9000000059605","i","choice","right","i","experimental","1321","2214803","0.0-4.0-8.148","true","149","2.6500000000000012","","",""
"2474.5999999940395","3","confid","","","html-slider-response","1323","2217783","0.0-4.0-10.148-0.148","","","","Rate your confidence","1",""
"274.09999999403954","e","choice","left","e","experimental","1330","2219848","0.0-4.0-8.149","true","150","2.6500000000000012","","",""
"3656.100000023842","5","confid","","","html-slider-response","1332","2224022","0.0-4.0-10.149-0.149","","","","Rate your confidence","1",""
"742","i","choice","left","e","experimental","1339","2226552","0.0-4.0-8.150","false","151","2.550000000000001","","",""
"3019.9000000059605","2","confid","","","html-slider-response","1341","2230078","0.0-4.0-10.150-0.150","","","","Rate your confidence","1",""
"175.09999999403954","i","choice","right","i","experimental","1348","2232065","0.0-4.0-8.151","true","152","2.6500000000000012","","",""
"2292.9000000059605","6","confid","","","html-slider-response","1350","2234862","0.0-4.0-10.151-0.151","","","","Rate your confidence","1",""
"176.90000000596046","i","choice","right","i","experimental","1358","2665125","0.0-4.0-8.152","true","153","2.6500000000000012","","",""
"3455.800000011921","4","confid","","","html-slider-response","1360","2669087","0.0-4.0-10.152-0.152","","","","Rate your confidence","1",""
"879.8000000119209","e","choice","left","e","experimental","1367","2671756","0.0-4.0-8.153","true","154","2.550000000000001","","",""
"3841.800000011921","2","confid","","","html-slider-response","1369","2676103","0.0-4.0-10.153-0.153","","","","Rate your confidence","1",""
"1615.800000011921","e","choice","left","e","experimental","1376","2679510","0.0-4.0-8.154","true","155","2.550000000000001","","",""
"2879.600000023842","1","confid","","","html-slider-response","1378","2682895","0.0-4.0-10.154-0.154","","","","Rate your confidence","1",""
"155.7000000178814","i","choice","right","i","experimental","1385","2684845","0.0-4.0-8.155","true","156","2.450000000000001","","",""
"2696.5","6","confid","","","html-slider-response","1387","2688047","0.0-4.0-10.155-0.155","","","","Rate your confidence","1",""
"225.59999999403954","i","choice","left","e","experimental","1394","2690082","0.0-4.0-8.156","false","157","2.450000000000001","","",""
"3362.5","3","confid","","","html-slider-response","1396","2693951","0.0-4.0-10.156-0.156","","","","Rate your confidence","1",""
"369","i","choice","right","i","experimental","1403","2696108","0.0-4.0-8.157","true","158","2.550000000000001","","",""
"2956.699999988079","4","confid","","","html-slider-response","1405","2699583","0.0-4.0-10.157-0.157","","","","Rate your confidence","1",""
"312.90000000596046","e","choice","right","i","experimental","1412","2701690","0.0-4.0-8.158","false","159","2.550000000000001","","",""
"3514.600000023842","5","confid","","","html-slider-response","1414","2705711","0.0-4.0-10.158-0.158","","","","Rate your confidence","1",""
"77.90000000596046","i","choice","left","e","experimental","1421","2707593","0.0-4.0-8.159","false","160","2.6500000000000012","","",""
"1989.0999999940395","2","confid","","","html-slider-response","1423","2710087","0.0-4.0-10.159-0.159","","","","Rate your confidence","1",""
"0.29999998211860657","i","choice","left","e","experimental","1430","2711888","0.0-4.0-8.160","false","161","2.7500000000000013","","",""
"2413.300000011921","6","confid","","","html-slider-response","1432","2714807","0.0-4.0-10.160-0.160","","","","Rate your confidence","1",""
"604.3999999761581","e","choice","right","i","experimental","1439","2717201","0.0-4.0-8.161","false","162","2.8500000000000014","","",""
"2020.5","3","confid","","","html-slider-response","1441","2719727","0.0-4.0-10.161-0.161","","","","Rate your confidence","1",""
"181.09999999403954","i","choice","right","i","experimental","1448","2721697","0.0-4.0-8.162","true","163","2.9500000000000015","","",""
"2275.199999988079","6","confid","","","html-slider-response","1450","2724479","0.0-4.0-10.162-0.162","","","","Rate your confidence","1",""
"287.59999999403954","e","choice","left","e","experimental","1457","2726563","0.0-4.0-8.163","true","164","2.9500000000000015","","",""
"2986.600000023842","5","confid","","","html-slider-response","1459","2730054","0.0-4.0-10.163-0.163","","","","Rate your confidence","1",""
"243.90000000596046","i","choice","left","e","experimental","1466","2732100","0.0-4.0-8.164","false","165","2.8500000000000014","","",""
"1994.5999999940395","3","confid","","","html-slider-response","1468","2734598","0.0-4.0-10.164-0.164","","","","Rate your confidence","1",""
"161.80000001192093","i","choice","right","i","experimental","1475","2736551","0.0-4.0-8.165","true","166","2.9500000000000015","","",""
"1783","5","confid","","","html-slider-response","1477","2738839","0.0-4.0-10.165-0.165","","","","Rate your confidence","1",""
"223.5","e","choice","left","e","experimental","1484","2740851","0.0-4.0-8.166","true","167","2.9500000000000015","","",""
"1707.199999988079","4","confid","","","html-slider-response","1486","2743063","0.0-4.0-10.166-0.166","","","","Rate your confidence","1",""
"331.90000000596046","i","choice","right","i","experimental","1493","2745188","0.0-4.0-8.167","true","168","2.8500000000000014","","",""
"2138","6","confid","","","html-slider-response","1495","2747831","0.0-4.0-10.167-0.167","","","","Rate your confidence","1",""
"730.6000000238419","i","choice","right","i","experimental","1502","2750363","0.0-4.0-8.168","true","169","2.8500000000000014","","",""
"2346.7000000178814","2","confid","","","html-slider-response","1504","2753215","0.0-4.0-10.168-0.168","","","","Rate your confidence","1",""
"297.90000000596046","e","choice","left","e","experimental","1511","2755310","0.0-4.0-8.169","true","170","2.7500000000000013","","",""
"3343.5","5","confid","","","html-slider-response","1513","2759158","0.0-4.0-10.169-0.169","","","","Rate your confidence","1",""
"263.59999999403954","e","choice","left","e","experimental","1520","2761210","0.0-4.0-8.170","true","171","2.7500000000000013","","",""
"4091.7999999821186","5","confid","","","html-slider-response","1522","2765806","0.0-4.0-10.170-0.170","","","","Rate your confidence","1",""
"244.5","i","choice","right","i","experimental","1529","2767834","0.0-4.0-8.171","true","172","2.6500000000000012","","",""
"3069.800000011921","6","confid","","","html-slider-response","1531","2771406","0.0-4.0-10.171-0.171","","","","Rate your confidence","1",""
"1320.2000000178814","e","choice","left","e","experimental","1538","2774505","0.0-4.0-8.172","true","173","2.6500000000000012","","",""
"2716.0999999940395","3","confid","","","html-slider-response","1540","2777726","0.0-4.0-10.172-0.172","","","","Rate your confidence","1",""
"41.80000001192093","i","choice","right","i","experimental","1547","2779555","0.0-4.0-8.173","true","174","2.550000000000001","","",""
"2945.5","6","confid","","","html-slider-response","1549","2783007","0.0-4.0-10.173-0.173","","","","Rate your confidence","1",""
"114.59999999403954","e","choice","right","i","experimental","1556","2784935","0.0-4.0-8.174","false","175","2.550000000000001","","",""
"2724.800000011921","6","confid","","","html-slider-response","1558","2788166","0.0-4.0-10.174-0.174","","","","Rate your confidence","1",""
"3886.5","e","choice","left","e","experimental","1565","2793862","0.0-4.0-8.175","true","176","2.6500000000000012","","",""
"1695.2000000178814","2","confid","","","html-slider-response","1567","2796062","0.0-4.0-10.175-0.175","","","","Rate your confidence","1",""
"1751.9000000059605","i","choice","right","i","experimental","1574","2799602","0.0-4.0-8.176","true","177","2.6500000000000012","","",""
"5155.0999999940395","5","confid","","","html-slider-response","1576","2805270","0.0-4.0-10.176-0.176","","","","Rate your confidence","1",""
"167.89999997615814","e","choice","left","e","experimental","1583","2807230","0.0-4.0-8.177","true","178","2.550000000000001","","",""
"2981.300000011921","6","confid","","","html-slider-response","1585","2810718","0.0-4.0-10.177-0.177","","","","Rate your confidence","1",""
"18.100000023841858","e","choice","left","e","experimental","1592","2812533","0.0-4.0-8.178","true","179","2.550000000000001","","",""
"2191.300000011921","6","confid","","","html-slider-response","1594","2815230","0.0-4.0-10.178-0.178","","","","Rate your confidence","1",""
"95.19999998807907","e","choice","right","i","experimental","1601","2817117","0.0-4.0-8.179","false","180","2.450000000000001","","",""
"2334.2000000178814","6","confid","","","html-slider-response","1603","2819958","0.0-4.0-10.179-0.179","","","","Rate your confidence","1",""
"83.90000000596046","e","choice","left","e","experimental","1610","2821849","0.0-4.0-8.180","true","181","2.550000000000001","","",""
"2923.800000011921","4","confid","","","html-slider-response","1612","2825278","0.0-4.0-10.180-0.180","","","","Rate your confidence","1",""
"228.40000000596046","e","choice","right","i","experimental","1619","2827296","0.0-4.0-8.181","false","182","2.550000000000001","","",""
"1788","6","confid","","","html-slider-response","1621","2829590","0.0-4.0-10.181-0.181","","","","Rate your confidence","1",""
"92.90000000596046","e","choice","left","e","experimental","1628","2831480","0.0-4.0-8.182","true","183","2.6500000000000012","","",""
"2124.800000011921","6","confid","","","html-slider-response","1630","2834110","0.0-4.0-10.182-0.182","","","","Rate your confidence","1",""
"301.90000000596046","e","choice","right","i","experimental","1637","2836205","0.0-4.0-8.183","false","184","2.6500000000000012","","",""
"3352.0999999940395","4","confid","","","html-slider-response","1639","2840062","0.0-4.0-10.183-0.183","","","","Rate your confidence","1",""
"19.599999994039536","e","choice","right","i","experimental","1646","2841883","0.0-4.0-8.184","false","185","2.7500000000000013","","",""
"2114.7000000178814","6","confid","","","html-slider-response","1648","2844503","0.0-4.0-10.184-0.184","","","","Rate your confidence","1",""
"209.09999999403954","e","choice","left","e","experimental","1655","2846502","0.0-4.0-8.185","true","186","2.8500000000000014","","",""
"1712.5999999940395","6","confid","","","html-slider-response","1657","2848719","0.0-4.0-10.185-0.185","","","","Rate your confidence","1",""
"77.69999998807907","e","choice","right","i","experimental","1664","2850588","0.0-4.0-8.186","false","187","2.8500000000000014","","",""
"1994.300000011921","6","confid","","","html-slider-response","1666","2853087","0.0-4.0-10.186-0.186","","","","Rate your confidence","1",""
"12.199999988079071","e","choice","left","e","experimental","1673","2854891","0.0-4.0-8.187","true","188","2.9500000000000015","","",""
"1802.0999999940395","6","confid","","","html-slider-response","1675","2857199","0.0-4.0-10.187-0.187","","","","Rate your confidence","1",""
"852.8999999761581","e","choice","left","e","experimental","1682","2859841","0.0-4.0-8.188","true","189","2.9500000000000015","","",""
"1733.0999999940395","6","confid","","","html-slider-response","1684","2862079","0.0-4.0-10.188-0.188","","","","Rate your confidence","1",""
"68.90000000596046","e","choice","right","i","experimental","1691","2863939","0.0-4.0-8.189","false","190","2.8500000000000014","","",""
"2985.0999999940395","6","confid","","","html-slider-response","1693","2867431","0.0-4.0-10.189-0.189","","","","Rate your confidence","1",""
"47.79999998211861","e","choice","right","i","experimental","1700","2869265","0.0-4.0-8.190","false","191","2.9500000000000015","","",""
"1711.699999988079","4","confid","","","html-slider-response","1702","2871495","0.0-4.0-10.190-0.190","","","","Rate your confidence","1",""
"8.699999988079071","e","choice","left","e","experimental","1709","2873295","0.0-4.0-8.191","true","192","3.0500000000000016","","",""
"2396.800000011921","6","confid","","","html-slider-response","1711","2876199","0.0-4.0-10.191-0.191","","","","Rate your confidence","1",""
"22.19999998807907","e","choice","left","e","experimental","1718","2878033","0.0-4.0-8.192","true","193","3.0500000000000016","","",""
"1605.800000011921","6","confid","","","html-slider-response","1720","2880143","0.0-4.0-10.192-0.192","","","","Rate your confidence","1",""
"54.80000001192093","e","choice","right","i","experimental","1727","2881998","0.0-4.0-8.193","false","194","2.9500000000000015","","",""
"2481.7000000178814","5","confid","","","html-slider-response","1729","2884983","0.0-4.0-10.193-0.193","","","","Rate your confidence","1","45895"
