"rt","response","task","target_side","correct_response","trial_type","trial_index","time_elapsed","internal_node_id","correct","trial_number","n_dots","stimulus","slider_start","participant"
"328.19999980926514","e","choice","right","i","practice","10","24408","0.0-4.0-8.0","false","1","4.25","","",""
"39.40000009536743","e","choice","left","e","practice","18","26831","0.0-4.0-8.1","true","2","4.65","","",""
"3056.4000000953674","e","choice","left","e","practice","26","32279","0.0-4.0-8.2","true","3","4.65","","",""
"394.69999980926514","i","choice","right","i","practice","34","35015","0.0-4.0-8.3","true","4","4.25","","",""
"361.30000019073486","e","choice","left","e","practice","42","37707","0.0-4.0-8.4","true","5","4.25","","",""
"201.7000002861023","e","choice","right","i","practice","50","40235","0.0-4.0-8.5","false","6","3.85","","",""
"274.2999997138977","e","choice","left","e","practice","58","42835","0.0-4.0-8.6","true","7","4.05","","",""
"120.40000009536743","i","choice","right","i","practice","66","45315","0.0-4.0-8.7","true","8","4.05","","",""
"276.69999980926514","e","choice","left","e","practice","74","47938","0.0-4.0-8.8","true","9","3.8499999999999996","","",""
"495.09999990463257","e","choice","right","i","practice","82","50776","0.0-4.0-8.9","false","10","3.8499999999999996","","",""
"395.19999980926514","i","choice","right","i","practice","90","53496","0.0-4.0-8.10","true","11","4.05","","",""
"83.09999990463257","e","choice","left","e","practice","98","55921","0.0-4.0-8.11","true","12","4.05","","",""
"324.7999997138977","e","choice","right","i","practice","106","58576","0.0-4.0-8.12","false","13","3.9499999999999997","","",""
"130.7000002861023","e","choice","left","e","practice","114","61041","0.0-4.0-8.13","true","14","4.05","","",""
"92.80000019073486","e","choice","right","i","practice","122","63481","0.0-4.0-8.14","false","15","4.05","","",""
"408","e","choice","left","e","practice","130","66208","0.0-4.0-8.15","true","16","4.1499999999999995","","",""
"547.1999998092651","e","choice","right","i","practice","138","69112","0.0-4.0-8.16","false","17","4.1499999999999995","","",""
"545.9000000953674","e","choice","left","e","practice","146","71973","0.0-4.0-8.17","true","18","4.249999999999999","","",""
"487.59999990463257","i","choice","right","i","practice","154","74830","0.0-4.0-8.18","true","19","4.249999999999999","","",""
"450.09999990463257","e","choice","left","e","practice","162","77621","0.0-4.0-8.19","true","20","4.1499999999999995","","",""
"293.80000019073486","i","choice","right","i","practice","170","80262","0.0-4.0-8.20","true","21","4.1499999999999995","","",""
"119.59999990463257","e","choice","left","e","practice","178","82709","0.0-4.0-8.21","true","22","4.05","","",""
"98.69999980926514","i","choice","right","i","practice","186","85160","0.0-4.0-8.22","true","23","4.05","","",""
"448.40000009536743","e","choice","left","e","practice","194","87947","0.0-4.0-8.23","true","24","3.9499999999999997","","",""
"489.69999980926514","e","choice","left","e","practice","202","90784","0.0-4.0-8.24","true","25","3.9499999999999997","","",""
"48.799999713897705","i","choice","right","i","practice","210","93163","0.0-4.0-8.25","true","26","3.8499999999999996","","",""
"110.40000009536743","i","choice","right","i","experimental","221","111631","0.0-4.0-8.26","true","27","3.8499999999999996","","",""
"3818.2999997138977","2","confid","","","html-slider-response","223","115962","0.0-4.0-10.26-0.26","","","","Rate your confidence","1",""
"235.59999990463257","e","choice","left","e","experimental","230","118028","0.0-4.0-8.27","true","28","3.7499999999999996","","",""
"4697.800000190735","1","confid","","","html-slider-response","232","123233","0.0-4.0-10.27-0.27","","","","Rate your confidence","1",""
"535.2000002861023","e","choice","left","e","experimental","239","125607","0.0-4.0-8.28","true","29","3.7499999999999996","","",""
"5010.10000038147","4","confid","","","html-slider-response","241","131125","0.0-4.0-10.28-0.28","","","","Rate your confidence","1",""
"220.69999980926514","i","choice","right","i","experimental","248","133205","0.0-4.0-8.29","true","30","3.6499999999999995","","",""
"3695.0999999046326","3","confid","","","html-slider-response","250","137405","0.0-4.0-10.29-0.29","","","","Rate your confidence","1",""
"81.7999997138977","e","choice","right","i","experimental","257","139290","0.0-4.0-8.30","false","31","3.6499999999999995","","",""
"2770.4000000953674","2","confid","","","html-slider-response","259","142566","0.0-4.0-10.30-0.30","","","","Rate your confidence","1",""
"99.19999980926514","e","choice","left","e","experimental","266","144484","0.0-4.0-8.31","true","32","3.7499999999999996","","",""
"3575.4000000953674","3","confid","","","html-slider-response","268","148564","0.0-4.0-10.31-0.31","","","","Rate your confidence","1",""
"403","e","choice","left","e","experimental","275","150792","0.0-4.0-8.32","true","33","3.7499999999999996","","",""
"3028.5999999046326","5","confid","","","html-slider-response","277","154328","0.0-4.0-10.32-0.32","","","","Rate your confidence","1",""
"351.59999990463257","e","choice","right","i","experimental","284","156502","0.0-4.0-8.33","false","34","3.6499999999999995","","",""
"5602.300000190735","4","confid","","","html-slider-response","286","162615","0.0-4.0-10.33-0.33","","","","Rate your confidence","1",""
"747.5999999046326","i","choice","left","e","experimental","293","165207","0.0-4.0-8.34","false","35","3.7499999999999996","","",""
"4429.900000095367","3","confid","","","html-slider-response","295","170145","0.0-4.0-10.34-0.34","","","","Rate your confidence","1",""
"398.19999980926514","e","choice","right","i","experimental","302","172361","0.0-4.0-8.35","false","36","3.8499999999999996","","",""
"2888.5","3","confid","","","html-slider-response","304","175782","0.0-4.0-10.35-0.35","","","","Rate your confidence","1",""
"137.2999997138977","e","choice","left","e","experimental","311","177734","0.0-4.0-8.36","true","37","3.9499999999999997","","",""
"4475.900000095367","5","confid","","","html-slider-response","313","182720","0.0-4.0-10.36-0.36","","","","Rate your confidence","1",""
"1062.5","i","choice","right","i","experimental","320","185632","0.0-4.0-8.37","true","38","3.9499999999999997","","",""
"3394.4000000953674","3","confid","","","html-slider-response","322","189538","0.0-4.0-10.37-0.37","","","","Rate your confidence","1",""
"441.2000002861023","e","choice","right","i","experimental","329","191795","0.0-4.0-8.38","false","39","3.8499999999999996","","",""
"3434.3999996185303","2","confid","","","html-slider-response","331","195738","0.0-4.0-10.38-0.38","","","","Rate your confidence","1",""
"742.1999998092651","i","choice","left","e","experimental","338","198322","0.0-4.0-8.39","false","40","3.9499999999999997","","",""
"2454","3","confid","","","html-slider-response","340","201288","0.0-4.0-10.39-0.39","","","","Rate your confidence","1",""
"652.5","i","choice","right","i","experimental","347","203777","0.0-4.0-8.40","true","41","4.05","","",""
"2243.699999809265","4","confid","","","html-slider-response","349","206527","0.0-4.0-10.40-0.40","","","","Rate your confidence","1",""
"358.40000009536743","e","choice","left","e","experimental","356","208727","0.0-4.0-8.41","true","42","4.05","","",""
"3183.699999809265","4","confid","","","html-slider-response","358","212417","0.0-4.0-10.41-0.41","","","","Rate your confidence","1",""
"304.7999997138977","i","choice","right","i","experimental","365","214538","0.0-4.0-8.42","true","43","3.9499999999999997","","",""
"2886.699999809265","4","confid","","","html-slider-response","367","217957","0.0-4.0-10.42-0.42","","","","Rate your confidence","1",""
"345.80000019073486","e","choice","left","e","experimental","374","220135","0.0-4.0-8.43","true","44","3.9499999999999997","","",""
"4220.700000286102","6","confid","","","html-slider-response","376","224875","0.0-4.0-10.43-0.43","","","","Rate your confidence","1",""
"74.69999980926514","e","choice","left","e","experimental","383","226789","0.0-4.0-8.44","true","45","3.8499999999999996","","",""
"3257.6000003814697","3","confid","","","html-slider-response","385","230551","0.0-4.0-10.44-0.44","","","","Rate your confidence","1",""
"546.5999999046326","i","choice","right","i","experimental","392","232926","0.0-4.0-8.45","true","46","3.8499999999999996","","",""
"2915.9000000953674","4","confid","","","html-slider-response","394","236353","0.0-4.0-10.45-0.45","","","","Rate your confidence","1",""
"513.8000001907349","i","choice","right","i","experimental","401","238694","0.0-4.0-8.46","true","47","3.7499999999999996","","",""
"2330.699999809265","3","confid","","","html-slider-response","403","241534","0.0-4.0-10.46-0.46","","","","Rate your confidence","1",""
"544.0999999046326","e","choice","left","e","experimental","410","243924","0.0-4.0-8.47","true","48","3.7499999999999996","","",""
"2932.0999999046326","5","confid","","","html-slider-response","412","247358","0.0-4.0-10.47-0.47","","","","Rate your confidence","1",""
"46.69999980926514","e","choice","left","e","experimental","419","249221","0.0-4.0-8.48","true","49","3.6499999999999995","","",""
"2637.5","5","confid","","","html-slider-response","421","252364","0.0-4.0-10.48-0.48","","","","Rate your confidence","1",""
"415.40000009536743","i","choice","right","i","experimental","428","254617","0.0-4.0-8.49","true","50","3.6499999999999995","","",""
"2787.800000190735","3","confid","","","html-slider-response","430","257915","0.0-4.0-10.49-0.49","","","","Rate your confidence","1",""
"365.69999980926514","e","choice","left","e","experimental","437","260089","0.0-4.0-8.50","true","51","3.5499999999999994","","",""
"3587","3","confid","","","html-slider-response","439","264181","0.0-4.0-10.50-0.50","","","","Rate your confidence","1",""
"395.30000019073486","i","choice","right","i","experimental","446","266425","0.0-4.0-8.51","true","52","3.5499999999999994","","",""
"2276.5","5","confid","","","html-slider-response","448","269207","0.0-4.0-10.51-0.51","","","","Rate your confidence","1",""
"261.40000009536743","e","choice","left","e","experimental","455","271306","0.0-4.0-8.52","true","53","3.4499999999999993","","",""
"2920.699999809265","5","confid","","","html-slider-response","457","274736","0.0-4.0-10.52-0.52","","","","Rate your confidence","1",""
"239.80000019073486","e","choice","right","i","experimental","464","276794","0.0-4.0-8.53","false","54","3.4499999999999993","","",""
"3486.5","3","confid","","","html-slider-response","466","280810","0.0-4.0-10.53-0.53","","","","Rate your confidence","1",""
"273.40000009536743","e","choice","left","e","experimental","473","282904","0.0-4.0-8.54","true","55","3.5499999999999994","","",""
"2407.5","4","confid","","","html-slider-response","475","285816","0.0-4.0-10.54-0.54","","","","Rate your confidence","1",""
"641.3000001907349","i","choice","right","i","experimental","482","288299","0.0-4.0-8.55","true","56","3.5499999999999994","","",""
"3419.7000002861023","3","confid","","","html-slider-response","484","292228","0.0-4.0-10.55-0.55","","","","Rate your confidence","1",""
"590.9000000953674","i","choice","right","i","experimental","491","294634","0.0-4.0-8.56","true","57","3.4499999999999993","","",""
"4796.699999809265","5","confid","","","html-slider-response","493","299940","0.0-4.0-10.56-0.56","","","","Rate your confidence","1",""
"256.69999980926514","e","choice","left","e","experimental","500","302027","0.0-4.0-8.57","true","58","3.4499999999999993","","",""
"3140.5","3","confid","","","html-slider-response","502","305676","0.0-4.0-10.57-0.57","","","","Rate your confidence","1",""
"365.90000009536743","i","choice","right","i","experimental","509","307869","0.0-4.0-8.58","true","59","3.349999999999999","","",""
"2995.5999999046326","2","confid","","","html-slider-response","511","311370","0.0-4.0-10.58-0.58","","","","Rate your confidence","1",""
"125.7999997138977","e","choice","left","e","experimental","518","313301","0.0-4.0-8.59","true","60","3.349999999999999","","",""
"3137.9000000953674","4","confid","","","html-slider-response","520","316948","0.0-4.0-10.59-0.59","","","","Rate your confidence","1",""
"227.90000009536743","e","choice","left","e","experimental","527","319002","0.0-4.0-8.60","true","61","3.249999999999999","","",""
"2793.6000003814697","4","confid","","","html-slider-response","529","322303","0.0-4.0-10.60-0.60","","","","Rate your confidence","1",""
"199","i","choice","right","i","experimental","536","324349","0.0-4.0-8.61","true","62","3.249999999999999","","",""
"3050.7999997138977","3","confid","","","html-slider-response","538","327910","0.0-4.0-10.61-0.61","","","","Rate your confidence","1",""
"406.40000009536743","e","choice","left","e","experimental","545","330162","0.0-4.0-8.62","true","63","3.149999999999999","","",""
"3529.199999809265","4","confid","","","html-slider-response","547","334206","0.0-4.0-10.62-0.62","","","","Rate your confidence","1",""
"241","i","choice","right","i","experimental","554","336250","0.0-4.0-8.63","true","64","3.149999999999999","","",""
"3993.9000000953674","2","confid","","","html-slider-response","556","340753","0.0-4.0-10.63-0.63","","","","Rate your confidence","1",""
"97.59999990463257","e","choice","right","i","experimental","563","342686","0.0-4.0-8.64","false","65","3.049999999999999","","",""
"3282.2999997138977","2","confid","","","html-slider-response","565","346477","0.0-4.0-10.64-0.64","","","","Rate your confidence","1",""
"714.4000000953674","i","choice","left","e","experimental","572","349013","0.0-4.0-8.65","false","66","3.149999999999999","","",""
"2982.699999809265","2","confid","","","html-slider-response","574","352511","0.0-4.0-10.65-0.65","","","","Rate your confidence","1",""
"1042.1999998092651","e","choice","left","e","experimental","581","355400","0.0-4.0-8.66","true","67","3.249999999999999","","",""
"2898.800000190735","2","confid","","","html-slider-response","583","358806","0.0-4.0-10.66-0.66","","","","Rate your confidence","1",""
"271.59999990463257","i","choice","right","i","experimental","590","360915","0.0-4.0-8.67","true","68","3.249999999999999","","",""
"3734.6000003814697","4","confid","","","html-slider-response","592","365160","0.0-4.0-10.67-0.67","","","","Rate your confidence","1",""
"852.2999997138977","i","choice","right","i","experimental","600","462084","0.0-4.0-8.68","true","69","3.149999999999999","","",""
"2345.5999999046326","2","confid","","","html-slider-response","602","464942","0.0-4.0-10.68-0.68","","","","Rate your confidence","1",""
"265.2999997138977","i","choice","left","e","experimental","609","467062","0.0-4.0-8.69","false","70","3.149999999999999","","",""
"2763.800000190735","2","confid","","","html-slider-response","611","470337","0.0-4.0-10.69-0.69","","","","Rate your confidence","1",""
"25.299999713897705","e","choice","left","e","experimental","618","472182","0.0-4.0-8.70","true","71","3.249999999999999","","",""
"3119.5","3","confid","","","html-slider-response","620","475809","0.0-4.0-10.70-0.70","","","","Rate your confidence","1",""
"904.0999999046326","i","choice","right","i","experimental","627","478534","0.0-4.0-8.71","true","72","3.249999999999999","","",""
"3732.5999999046326","3","confid","","","html-slider-response","629","482774","0.0-4.0-10.71-0.71","","","","Rate your confidence","1",""
"284.19999980926514","e","choice","left","e","experimental","636","484904","0.0-4.0-8.72","true","73","3.149999999999999","","",""
"3472.300000190735","5","confid","","","html-slider-response","638","488886","0.0-4.0-10.72-0.72","","","","Rate your confidence","1",""
"681.1999998092651","i","choice","right","i","experimental","645","491401","0.0-4.0-8.73","true","74","3.149999999999999","","",""
"2389.9000000953674","3","confid","","","html-slider-response","647","494308","0.0-4.0-10.73-0.73","","","","Rate your confidence","1",""
"226.80000019073486","e","choice","right","i","experimental","654","496365","0.0-4.0-8.74","false","75","3.049999999999999","","",""
"2268.5","2","confid","","","html-slider-response","656","499139","0.0-4.0-10.74-0.74","","","","Rate your confidence","1",""
"926.3000001907349","i","choice","left","e","experimental","663","501896","0.0-4.0-8.75","false","76","3.149999999999999","","",""
"2909.300000190735","2","confid","","","html-slider-response","665","505317","0.0-4.0-10.75-0.75","","","","Rate your confidence","1",""
"124.69999980926514","e","choice","left","e","experimental","672","507253","0.0-4.0-8.76","true","77","3.249999999999999","","",""
"10065.199999809265","2","confid","","","html-slider-response","674","517825","0.0-4.0-10.76-0.76","","","","Rate your confidence","1",""
"77.40000009536743","e","choice","right","i","experimental","681","519772","0.0-4.0-8.77","false","78","3.249999999999999","","",""
"2121.4000000953674","3","confid","","","html-slider-response","683","522403","0.0-4.0-10.77-0.77","","","","Rate your confidence","1",""
"40.09999990463257","e","choice","left","e","experimental","690","524271","0.0-4.0-8.78","true","79","3.349999999999999","","",""
"3069.0999999046326","3","confid","","","html-slider-response","692","527845","0.0-4.0-10.78-0.78","","","","Rate your confidence","1",""
"746","i","choice","right","i","experimental","699","530417","0.0-4.0-8.79","true","80","3.349999999999999","","",""
"2689","5","confid","","","html-slider-response","701","533616","0.0-4.0-10.79-0.79","","","","Rate your confidence","1",""
"822.7999997138977","i","choice","right","i","experimental","708","536264","0.0-4.0-8.80","true","81","3.249999999999999","","",""
"2327.2000002861023","4","confid","","","html-slider-response","710","539097","0.0-4.0-10.80-0.80","","","","Rate your confidence","1",""
"194.69999980926514","e","choice","left","e","experimental","717","541126","0.0-4.0-8.81","true","82","3.249999999999999","","",""
"4992.5","5","confid","","","html-slider-response","719","546624","0.0-4.0-10.81-0.81","","","","Rate your confidence","1",""
"83.2999997138977","e","choice","left","e","experimental","726","548552","0.0-4.0-8.82","true","83","3.149999999999999","","",""
"2927.800000190735","5","confid","","","html-slider-response","728","551987","0.0-4.0-10.82-0.82","","","","Rate your confidence","1",""
"694.8000001907349","e","choice","right","i","experimental","735","554551","0.0-4.0-8.83","false","84","3.149999999999999","","",""
"2398.9000000953674","2","confid","","","html-slider-response","737","557458","0.0-4.0-10.83-0.83","","","","Rate your confidence","1",""
"487.59999990463257","i","choice","right","i","experimental","744","559755","0.0-4.0-8.84","true","85","3.249999999999999","","",""
"3357.8999996185303","3","confid","","","html-slider-response","746","563617","0.0-4.0-10.84-0.84","","","","Rate your confidence","1",""
"129.69999980926514","e","choice","left","e","experimental","753","565575","0.0-4.0-8.85","true","86","3.249999999999999","","",""
"3082.2000002861023","5","confid","","","html-slider-response","755","569166","0.0-4.0-10.85-0.85","","","","Rate your confidence","1",""
"348.2000002861023","i","choice","right","i","experimental","762","571321","0.0-4.0-8.86","true","87","3.149999999999999","","",""
"3834","3","confid","","","html-slider-response","764","575674","0.0-4.0-10.86-0.86","","","","Rate your confidence","1",""
"129.40000009536743","e","choice","left","e","experimental","771","577644","0.0-4.0-8.87","true","88","3.149999999999999","","",""
"4671.199999809265","4","confid","","","html-slider-response","773","582820","0.0-4.0-10.87-0.87","","","","Rate your confidence","1",""
"254","e","choice","right","i","experimental","780","584901","0.0-4.0-8.88","false","89","3.049999999999999","","",""
"3673.0999999046326","4","confid","","","html-slider-response","782","589086","0.0-4.0-10.88-0.88","","","","Rate your confidence","1",""
"153.80000019073486","e","choice","left","e","experimental","789","591068","0.0-4.0-8.89","true","90","3.149999999999999","","",""
"2594.9000000953674","3","confid","","","html-slider-response","791","594178","0.0-4.0-10.89-0.89","","","","Rate your confidence","1",""
"794.5","i","choice","right","i","experimental","798","596797","0.0-4.0-8.90","true","91","3.149999999999999","","",""
"3504.5999999046326","3","confid","","","html-slider-response","800","600813","0.0-4.0-10.90-0.90","","","","Rate your confidence","1",""
"120.80000019073486","e","choice","left","e","experimental","807","602777","0.0-4.0-8.91","true","92","3.049999999999999","","",""
"3965.4000000953674","5","confid","","","html-slider-response","809","607253","0.0-4.0-10.91-0.91","","","","Rate your confidence","1",""
"314.09999990463257","e","choice","right","i","experimental","816","609405","0.0-4.0-8.92","false","93","3.049999999999999","","",""
"2723.800000190735","2","confid","","","html-slider-response","818","612636","0.0-4.0-10.92-0.92","","","","Rate your confidence","1",""
"326.19999980926514","e","choice","left","e","experimental","825","614804","0.0-4.0-8.93","true","94","3.149999999999999","","",""
"2863.9000000953674","5","confid","","","html-slider-response","827","618175","0.0-4.0-10.93-0.93","","","","Rate your confidence","1",""
"288.19999980926514","i","choice","right","i","experimental","834","620295","0.0-4.0-8.94","true","95","3.149999999999999","","",""
"2778.9000000953674","3","confid","","","html-slider-response","836","623587","0.0-4.0-10.94-0.94","","","","Rate your confidence","1",""
"181","e","choice","left","e","experimental","843","625612","0.0-4.0-8.95","true","96","3.049999999999999","","",""
"3185.5","5","confid","","","html-slider-response","845","629309","0.0-4.0-10.95-0.95","","","","Rate your confidence","1",""
"445.90000009536743","e","choice","right","i","experimental","852","631599","0.0-4.0-8.96","false","97","3.049999999999999","","",""
"2322.9000000953674","3","confid","","","html-slider-response","854","634430","0.0-4.0-10.96-0.96","","","","Rate your confidence","1",""
"71.80000019073486","e","choice","left","e","experimental","861","636338","0.0-4.0-8.97","true","98","3.149999999999999","","",""
"3383.5999999046326","4","confid","","","html-slider-response","863","640232","0.0-4.0-10.97-0.97","","","","Rate your confidence","1",""
"6.099999904632568","e","choice","right","i","experimental","870","642068","0.0-4.0-8.98","false","99","3.149999999999999","","",""
"2381.0999999046326","3","confid","","","html-slider-response","872","644956","0.0-4.0-10.98-0.98","","","","Rate your confidence","1",""
"67.2999997138977","e","choice","left","e","experimental","879","646853","0.0-4.0-8.99","true","100","3.249999999999999","","",""
"2285.800000190735","4","confid","","","html-slider-response","881","649651","0.0-4.0-10.99-0.99","","","","Rate your confidence","1",""
"210.69999980926514","e","choice","left","e","experimental","888","651700","0.0-4.0-8.100","true","101","3.249999999999999","","",""
"3097.699999809265","5","confid","","","html-slider-response","890","655315","0.0-4.0-10.100-0.100","","","","Rate your confidence","1",""
"625.6000003814697","e","choice","right","i","experimental","897","657770","0.0-4.0-8.101","false","102","3.149999999999999","","",""
"2980.1000003814697","3","confid","","","html-slider-response","899","661261","0.0-4.0-10.101-0.101","","","","Rate your confidence","1",""
"101.40000009536743","e","choice","left","e","experimental","906","663170","0.0-4.0-8.102","true","103","3.249999999999999","","",""
"2762.5999999046326","5","confid","","","html-slider-response","908","666440","0.0-4.0-10.102-0.102","","","","Rate your confidence","1",""
"251.90000009536743","e","choice","right","i","experimental","915","668522","0.0-4.0-8.103","false","104","3.249999999999999","","",""
"4909.800000190735","5","confid","","","html-slider-response","917","673937","0.0-4.0-10.103-0.103","","","","Rate your confidence","1",""
"700.3000001907349","i","choice","right","i","experimental","924","676461","0.0-4.0-8.104","true","105","3.349999999999999","","",""
"2943.7000002861023","4","confid","","","html-slider-response","926","679912","0.0-4.0-10.104-0.104","","","","Rate your confidence","1",""
"172.5","e","choice","left","e","experimental","933","681921","0.0-4.0-8.105","true","106","3.349999999999999","","",""
"2582.0999999046326","3","confid","","","html-slider-response","935","685014","0.0-4.0-10.105-0.105","","","","Rate your confidence","1",""
"105.5","e","choice","left","e","experimental","942","686967","0.0-4.0-8.106","true","107","3.249999999999999","","",""
"3932.300000190735","4","confid","","","html-slider-response","944","691406","0.0-4.0-10.106-0.106","","","","Rate your confidence","1",""
"550.3999996185303","i","choice","right","i","experimental","951","693774","0.0-4.0-8.107","true","108","3.249999999999999","","",""
"3343.2999997138977","4","confid","","","html-slider-response","953","697622","0.0-4.0-10.107-0.107","","","","Rate your confidence","1",""
"83.30000019073486","e","choice","right","i","experimental","960","699530","0.0-4.0-8.108","false","109","3.149999999999999","","",""
"2899.2000002861023","4","confid","","","html-slider-response","962","702938","0.0-4.0-10.108-0.108","","","","Rate your confidence","1",""
"348.7999997138977","e","choice","left","e","experimental","969","705129","0.0-4.0-8.109","true","110","3.249999999999999","","",""
"2819.1000003814697","2","confid","","","html-slider-response","971","708457","0.0-4.0-10.109-0.109","","","","Rate your confidence","1",""
"1260.5","i","choice","right","i","experimental","979","833221","0.0-4.0-8.110","true","111","3.249999999999999","","",""
"3004.2000002861023","2","confid","","","html-slider-response","981","836733","0.0-4.0-10.110-0.110","","","","Rate your confidence","1",""
"1026.5","e","choice","left","e","experimental","988","839593","0.0-4.0-8.111","true","112","3.149999999999999","","",""
"2804.0999999046326","4","confid","","","html-slider-response","990","842903","0.0-4.0-10.111-0.111","","","","Rate your confidence","1",""
"162.30000019073486","e","choice","left","e","experimental","997","844890","0.0-4.0-8.112","true","113","3.149999999999999","","",""
"2656.5999999046326","4","confid","","","html-slider-response","999","848054","0.0-4.0-10.112-0.112","","","","Rate your confidence","1",""
"349","i","choice","right","i","experimental","1006","850244","0.0-4.0-8.113","true","114","3.049999999999999","","",""
"4762.599999904633","5","confid","","","html-slider-response","1008","855513","0.0-4.0-10.113-0.113","","","","Rate your confidence","1",""
"507.09999990463257","i","choice","left","e","experimental","1015","857854","0.0-4.0-8.114","false","115","3.049999999999999","","",""
"2439.5999999046326","3","confid","","","html-slider-response","1017","860799","0.0-4.0-10.114-0.114","","","","Rate your confidence","1",""
"284.40000009536743","i","choice","right","i","experimental","1024","862920","0.0-4.0-8.115","true","116","3.149999999999999","","",""
"2867.2000002861023","3","confid","","","html-slider-response","1026","866299","0.0-4.0-10.115-0.115","","","","Rate your confidence","1",""
"250.19999980926514","i","choice","left","e","experimental","1033","868376","0.0-4.0-8.116","false","117","3.149999999999999","","",""
"2109","4","confid","","","html-slider-response","1035","870993","0.0-4.0-10.116-0.116","","","","Rate your confidence","1",""
"0.39999961853027344","e","choice","right","i","experimental","1042","872833","0.0-4.0-8.117","false","118","3.249999999999999","","",""
"3108.9000000953674","2","confid","","","html-slider-response","1044","876454","0.0-4.0-10.117-0.117","","","","Rate your confidence","1",""
"87.69999980926514","i","choice","right","i","experimental","1051","878385","0.0-4.0-8.118","true","119","3.349999999999999","","",""
"2508.2000002861023","2","confid","","","html-slider-response","1053","881400","0.0-4.0-10.118-0.118","","","","Rate your confidence","1",""
"227.60000038146973","e","choice","left","e","experimental","1060","883486","0.0-4.0-8.119","true","120","3.349999999999999","","",""
"3119.4000000953674","5","confid","","","html-slider-response","1062","887113","0.0-4.0-10.119-0.119","","","","Rate your confidence","1",""
"277.40000009536743","i","choice","left","e","experimental","1069","889216","0.0-4.0-8.120","false","121","3.249999999999999","","",""
"2039.3000001907349","2","confid","","","html-slider-response","1071","891774","0.0-4.0-10.120-0.120","","","","Rate your confidence","1",""
"287.09999990463257","e","choice","right","i","experimental","1078","893870","0.0-4.0-8.121","false","122","3.349999999999999","","",""
"2226.1000003814697","2","confid","","","html-slider-response","1080","896604","0.0-4.0-10.121-0.121","","","","Rate your confidence","1",""
"223.19999980926514","e","choice","left","e","experimental","1087","898661","0.0-4.0-8.122","true","123","3.4499999999999993","","",""
"1985.1999998092651","3","confid","","","html-slider-response","1089","901153","0.0-4.0-10.122-0.122","","","","Rate your confidence","1",""
"188.19999980926514","i","choice","right","i","experimental","1096","903169","0.0-4.0-8.123","true","124","3.4499999999999993","","",""
"2937","2","confid","","","html-slider-response","1098","906613","0.0-4.0-10.123-0.123","","","","Rate your confidence","1",""
"241.40000009536743","i","choice","right","i","experimental","1105","908707","0.0-4.0-8.124","true","125","3.349999999999999","","",""
"3690.6000003814697","2","confid","","","html-slider-response","1107","912917","0.0-4.0-10.124-0.124","","","","Rate your confidence","1",""
"279","e","choice","left","e","experimental","1114","915014","0.0-4.0-8.125","true","126","3.349999999999999","","",""
"2526.5999999046326","2","confid","","","html-slider-response","1116","918048","0.0-4.0-10.125-0.125","","","","Rate your confidence","1",""
"221.5","e","choice","left","e","experimental","1123","920105","0.0-4.0-8.126","true","127","3.249999999999999","","",""
"2372.4000000953674","4","confid","","","html-slider-response","1125","923004","0.0-4.0-10.126-0.126","","","","Rate your confidence","1",""
"121.90000009536743","e","choice","right","i","experimental","1132","924953","0.0-4.0-8.127","false","128","3.249999999999999","","",""
"4059.0999999046326","3","confid","","","html-slider-response","1134","929531","0.0-4.0-10.127-0.127","","","","Rate your confidence","1",""
"207.30000019073486","i","choice","left","e","experimental","1141","931560","0.0-4.0-8.128","false","129","3.349999999999999","","",""
"2524.199999809265","4","confid","","","html-slider-response","1143","934594","0.0-4.0-10.128-0.128","","","","Rate your confidence","1",""
"163.7999997138977","e","choice","right","i","experimental","1150","936575","0.0-4.0-8.129","false","130","3.4499999999999993","","",""
"3451.0999999046326","3","confid","","","html-slider-response","1152","940538","0.0-4.0-10.129-0.129","","","","Rate your confidence","1",""
"255.09999990463257","e","choice","left","e","experimental","1159","942675","0.0-4.0-8.130","true","131","3.5499999999999994","","",""
"3077.800000190735","5","confid","","","html-slider-response","1161","946260","0.0-4.0-10.130-0.130","","","","Rate your confidence","1",""
"379.59999990463257","e","choice","right","i","experimental","1168","948465","0.0-4.0-8.131","false","132","3.5499999999999994","","",""
"3476.199999809265","3","confid","","","html-slider-response","1170","952453","0.0-4.0-10.131-0.131","","","","Rate your confidence","1",""
"186.40000009536743","e","choice","left","e","experimental","1177","954465","0.0-4.0-8.132","true","133","3.6499999999999995","","",""
"2730.2999997138977","3","confid","","","html-slider-response","1179","957709","0.0-4.0-10.132-0.132","","","","Rate your confidence","1",""
"129.40000009536743","e","choice","right","i","experimental","1186","959656","0.0-4.0-8.133","false","134","3.6499999999999995","","",""
"3152.699999809265","4","confid","","","html-slider-response","1188","963314","0.0-4.0-10.133-0.133","","","","Rate your confidence","1",""
"56.200000286102295","e","choice","right","i","experimental","1195","965213","0.0-4.0-8.134","false","135","3.7499999999999996","","",""
"2696.5999999046326","5","confid","","","html-slider-response","1197","968415","0.0-4.0-10.134-0.134","","","","Rate your confidence","1",""
"226.39999961853027","e","choice","left","e","experimental","1204","970492","0.0-4.0-8.135","true","136","3.8499999999999996","","",""
"3390.9000000953674","5","confid","","","html-slider-response","1206","974389","0.0-4.0-10.135-0.135","","","","Rate your confidence","1",""
"305.7000002861023","e","choice","left","e","experimental","1213","976520","0.0-4.0-8.136","true","137","3.8499999999999996","","",""
"3196.8999996185303","5","confid","","","html-slider-response","1215","980227","0.0-4.0-10.136-0.136","","","","Rate your confidence","1",""
"276","e","choice","right","i","experimental","1222","982336","0.0-4.0-8.137","false","138","3.7499999999999996","","",""
"2091.5","3","confid","","","html-slider-response","1224","984940","0.0-4.0-10.137-0.137","","","","Rate your confidence","1",""
"233.59999990463257","e","choice","left","e","experimental","1231","986992","0.0-4.0-8.138","true","139","3.8499999999999996","","",""
"2959.5","5","confid","","","html-slider-response","1233","990458","0.0-4.0-10.138-0.138","","","","Rate your confidence","1",""
"374.40000009536743","i","choice","right","i","experimental","1240","992689","0.0-4.0-8.139","true","140","3.8499999999999996","","",""
"2784.2000002861023","3","confid","","","html-slider-response","1242","995986","0.0-4.0-10.139-0.139","","","","Rate your confidence","1",""
"170.30000019073486","e","choice","left","e","experimental","1249","998000","0.0-4.0-8.140","true","141","3.7499999999999996","","",""
"2268.0999999046326","4","confid","","","html-slider-response","1251","1000776","0.0-4.0-10.140-0.140","","","","Rate your confidence","1",""
"196.59999990463257","e","choice","right","i","experimental","1258","1002816","0.0-4.0-8.141","false","142","3.7499999999999996","","",""
"2633","4","confid","","","html-slider-response","1260","1005955","0.0-4.0-10.141-0.141","","","","Rate your confidence","1",""
"43.09999990463257","i","choice","right","i","experimental","1267","1007810","0.0-4.0-8.142","true","143","3.8499999999999996","","",""
"3238.4000000953674","5","confid","","","html-slider-response","1269","1011560","0.0-4.0-10.142-0.142","","","","Rate your confidence","1",""
"334","e","choice","left","e","experimental","1276","1013733","0.0-4.0-8.143","true","144","3.8499999999999996","","",""
"2188.2000002861023","5","confid","","","html-slider-response","1278","1016428","0.0-4.0-10.143-0.143","","","","Rate your confidence","1",""
"254.89999961853027","i","choice","right","i","experimental","1285","1018544","0.0-4.0-8.144","true","145","3.7499999999999996","","",""
"2583.199999809265","5","confid","","","html-slider-response","1287","1021645","0.0-4.0-10.144-0.144","","","","Rate your confidence","1",""
"25.699999809265137","e","choice","left","e","experimental","1294","1023496","0.0-4.0-8.145","true","146","3.7499999999999996","","",""
"2343.2000002861023","5","confid","","","html-slider-response","1296","1026348","0.0-4.0-10.145-0.145","","","","Rate your confidence","1",""
"216.5","e","choice","right","i","experimental","1303","1028393","0.0-4.0-8.146","false","147","3.6499999999999995","","",""
"2335.699999809265","5","confid","","","html-slider-response","1305","1031235","0.0-4.0-10.146-0.146","","","","Rate your confidence","1",""
"257.80000019073486","e","choice","left","e","experimental","1312","1033326","0.0-4.0-8.147","true","148","3.7499999999999996","","",""
"3329.300000190735","5","confid","","","html-slider-response","1314","1037161","0.0-4.0-10.147-0.147","","","","Rate your confidence","1",""
"119.7999997138977","e","choice","left","e","experimental","1321","1039116","0.0-4.0-8.148","true","149","3.7499999999999996","","",""
"2955.4000000953674","5","confid","","","html-slider-response","1323","1042581","0.0-4.0-10.148-0.148","","","","Rate your confidence","1",""
"232.09999990463257","i","choice","right","i","experimental","1330","1044660","0.0-4.0-8.149","true","150","3.6499999999999995","","",""
"2791.2999997138977","5","confid","","","html-slider-response","1332","1047962","0.0-4.0-10.149-0.149","","","","Rate your confidence","1",""
"215.59999990463257","e","choice","left","e","experimental","1339","1050022","0.0-4.0-8.150","true","151","3.6499999999999995","","",""
"2932.5","4","confid","","","html-slider-response","1341","1053470","0.0-4.0-10.150-0.150","","","","Rate your confidence","1",""
"1099.2000002861023","i","choice","right","i","experimental","1348","1056411","0.0-4.0-8.151","true","152","3.5499999999999994","","",""
"2650.800000190735","2","confid","","","html-slider-response","1350","1059569","0.0-4.0-10.151-0.151","","","","Rate your confidence","1",""
"320.7999997138977","e","choice","left","e","experimental","1358","1062857","0.0-4.0-8.152","true","153","3.5499999999999994","","",""
"2547.4000000953674","5","confid","","","html-slider-response","1360","1065911","0.0-4.0-10.152-0.152","","","","Rate your confidence","1",""
"186.59999990463257","i","choice","right","i","experimental","1367","1067930","0.0-4.0-8.153","true","154","3.4499999999999993","","",""
"2878.300000190735","4","confid","","","html-slider-response","1369","1071324","0.0-4.0-10.153-0.153","","","","Rate your confidence","1",""
"67.90000009536743","e","choice","left","e","experimental","1376","1073225","0.0-4.0-8.154","true","155","3.4499999999999993","","",""
"2342.9000000953674","5","confid","","","html-slider-response","1378","1076075","0.0-4.0-10.154-0.154","","","","Rate your confidence","1",""
"277.59999990463257","i","choice","right","i","experimental","1385","1078187","0.0-4.0-8.155","true","156","3.349999999999999","","",""
"2671.9000000953674","5","confid","","","html-slider-response","1387","1081370","0.0-4.0-10.155-0.155","","","","Rate your confidence","1",""
"845.0999999046326","e","choice","left","e","experimental","1394","1084040","0.0-4.0-8.156","true","157","3.349999999999999","","",""
"3771.800000190735","1","confid","","","html-slider-response","1396","1088322","0.0-4.0-10.156-0.156","","","","Rate your confidence","1",""
"58.700000286102295","e","choice","right","i","experimental","1403","1090190","0.0-4.0-8.157","false","158","3.249999999999999","","",""
"4119.099999904633","3","confid","","","html-slider-response","1405","1094819","0.0-4.0-10.157-0.157","","","","Rate your confidence","1",""
"317.2000002861023","i","choice","right","i","experimental","1412","1096971","0.0-4.0-8.158","true","159","3.349999999999999","","",""
"2674.5","4","confid","","","html-slider-response","1414","1100153","0.0-4.0-10.158-0.158","","","","Rate your confidence","1",""
"298.2000002861023","e","choice","left","e","experimental","1421","1102288","0.0-4.0-8.159","true","160","3.349999999999999","","",""
"2447.1000003814697","5","confid","","","html-slider-response","1423","1105243","0.0-4.0-10.159-0.159","","","","Rate your confidence","1",""
"216.90000009536743","e","choice","left","e","experimental","1430","1107286","0.0-4.0-8.160","true","161","3.249999999999999","","",""
"2054.1000003814697","5","confid","","","html-slider-response","1432","1109849","0.0-4.0-10.160-0.160","","","","Rate your confidence","1",""
"345.59999990463257","i","choice","right","i","experimental","1439","1112026","0.0-4.0-8.161","true","162","3.249999999999999","","",""
"2783.199999809265","5","confid","","","html-slider-response","1441","1115317","0.0-4.0-10.161-0.161","","","","Rate your confidence","1",""
"213","e","choice","left","e","experimental","1448","1117358","0.0-4.0-8.162","true","163","3.149999999999999","","",""
"2757.2999997138977","5","confid","","","html-slider-response","1450","1120621","0.0-4.0-10.162-0.162","","","","Rate your confidence","1",""
"80","e","choice","right","i","experimental","1457","1122540","0.0-4.0-8.163","false","164","3.149999999999999","","",""
"3001.5999999046326","5","confid","","","html-slider-response","1459","1126052","0.0-4.0-10.163-0.163","","","","Rate your confidence","1",""
"371.59999990463257","e","choice","left","e","experimental","1466","1128249","0.0-4.0-8.164","true","165","3.249999999999999","","",""
"2748.800000190735","5","confid","","","html-slider-response","1468","1131507","0.0-4.0-10.164-0.164","","","","Rate your confidence","1",""
"574.3000001907349","i","choice","right","i","experimental","1475","1133904","0.0-4.0-8.165","true","166","3.249999999999999","","",""
"2820.5","5","confid","","","html-slider-response","1477","1137237","0.0-4.0-10.165-0.165","","","","Rate your confidence","1",""
"67.7000002861023","e","choice","right","i","experimental","1484","1139143","0.0-4.0-8.166","false","167","3.149999999999999","","",""
"2487.4000000953674","5","confid","","","html-slider-response","1486","1142162","0.0-4.0-10.166-0.166","","","","Rate your confidence","1",""
"71.69999980926514","e","choice","left","e","experimental","1493","1144056","0.0-4.0-8.167","true","168","3.249999999999999","","",""
"2447.5","4","confid","","","html-slider-response","1495","1147009","0.0-4.0-10.167-0.167","","","","Rate your confidence","1",""
"53","e","choice","left","e","experimental","1502","1148882","0.0-4.0-8.168","true","169","3.249999999999999","","",""
"2022.5","4","confid","","","html-slider-response","1504","1151411","0.0-4.0-10.168-0.168","","","","Rate your confidence","1",""
"362.5","i","choice","right","i","experimental","1511","1153597","0.0-4.0-8.169","true","170","3.149999999999999","","",""
"2765.3999996185303","5","confid","","","html-slider-response","1513","1156879","0.0-4.0-10.169-0.169","","","","Rate your confidence","1",""
"355.5","e","choice","left","e","experimental","1520","1159089","0.0-4.0-8.170","true","171","3.149999999999999","","",""
"2900.300000190735","5","confid","","","html-slider-response","1522","1162502","0.0-4.0-10.170-0.170","","","","Rate your confidence","1",""
"588.5","i","choice","right","i","experimental","1529","1164929","0.0-4.0-8.171","true","172","3.049999999999999","","",""
"5183.5","4","confid","","","html-slider-response","1531","1170627","0.0-4.0-10.171-0.171","","","","Rate your confidence","1",""
"554.7000002861023","e","choice","left","e","experimental","1538","1173024","0.0-4.0-8.172","true","173","3.049999999999999","","",""
"2342.4000000953674","5","confid","","","html-slider-response","1540","1175872","0.0-4.0-10.172-0.172","","","","Rate your confidence","1",""
"192.30000019073486","i","choice","right","i","experimental","1547","1177884","0.0-4.0-8.173","true","174","2.949999999999999","","",""
"2561.199999809265","5","confid","","","html-slider-response","1549","1180952","0.0-4.0-10.173-0.173","","","","Rate your confidence","1",""
"303.40000009536743","e","choice","left","e","experimental","1556","1183107","0.0-4.0-8.174","true","175","2.949999999999999","","",""
"3838.199999809265","3","confid","","","html-slider-response","1558","1187458","0.0-4.0-10.174-0.174","","","","Rate your confidence","1",""
"269.8999996185303","i","choice","right","i","experimental","1565","1189594","0.0-4.0-8.175","true","176","2.8499999999999988","","",""
"2214.5","4","confid","","","html-slider-response","1567","1192316","0.0-4.0-10.175-0.175","","","","Rate your confidence","1",""
"157.2000002861023","e","choice","left","e","experimental","1574","1194307","0.0-4.0-8.176","true","177","2.8499999999999988","","",""
"2372.0999999046326","4","confid","","","html-slider-response","1576","1197192","0.0-4.0-10.176-0.176","","","","Rate your confidence","1",""
"428.19999980926514","i","choice","right","i","experimental","1583","1199468","0.0-4.0-8.177","true","178","2.7499999999999987","","",""
"2750.300000190735","4","confid","","","html-slider-response","1585","1202728","0.0-4.0-10.177-0.177","","","","Rate your confidence","1",""
"824.5999999046326","e","choice","right","i","experimental","1592","1205378","0.0-4.0-8.178","false","179","2.7499999999999987","","",""
"2846.2999997138977","2","confid","","","html-slider-response","1594","1208739","0.0-4.0-10.178-0.178","","","","Rate your confidence","1",""
"223.90000009536743","i","choice","left","e","experimental","1601","1210811","0.0-4.0-8.179","false","180","2.8499999999999988","","",""
"2771.699999809265","4","confid","","","html-slider-response","1603","1214091","0.0-4.0-10.179-0.179","","","","Rate your confidence","1",""
"210.90000009536743","e","choice","right","i","experimental","1610","1216137","0.0-4.0-8.180","false","181","2.949999999999999","","",""
"2971.8999996185303","2","confid","","","html-slider-response","1612","1219617","0.0-4.0-10.180-0.180","","","","Rate your confidence","1",""
"868.9000000953674","e","choice","left","e","experimental","1619","1222343","0.0-4.0-8.181","true","182","3.049999999999999","","",""
"2876.5999999046326","3","confid","","","html-slider-response","1621","1225725","0.0-4.0-10.181-0.181","","","","Rate your confidence","1",""
"294.1000003814697","i","choice","right","i","experimental","1628","1227832","0.0-4.0-8.182","true","183","3.049999999999999","","",""
"2375.5","4","confid","","","html-slider-response","1630","1230718","0.0-4.0-10.182-0.182","","","","Rate your confidence","1",""
"330.1000003814697","i","choice","left","e","experimental","1637","1232880","0.0-4.0-8.183","false","184","2.949999999999999","","",""
"2623","5","confid","","","html-slider-response","1639","1236012","0.0-4.0-10.183-0.183","","","","Rate your confidence","1",""
"466.7999997138977","e","choice","right","i","experimental","1646","1238302","0.0-4.0-8.184","false","185","3.049999999999999","","",""
"2456.0999999046326","3","confid","","","html-slider-response","1648","1241267","0.0-4.0-10.184-0.184","","","","Rate your confidence","1",""
"275.59999990463257","e","choice","left","e","experimental","1655","1243383","0.0-4.0-8.185","true","186","3.149999999999999","","",""
"3122.5","3","confid","","","html-slider-response","1657","1247016","0.0-4.0-10.185-0.185","","","","Rate your confidence","1",""
"934.5","i","choice","left","e","experimental","1664","1249813","0.0-4.0-8.186","false","187","3.149999999999999","","",""
"4683.5","5","confid","","","html-slider-response","1666","1255010","0.0-4.0-10.186-0.186","","","","Rate your confidence","1",""
"127.69999980926514","e","choice","right","i","experimental","1673","1256980","0.0-4.0-8.187","false","188","3.249999999999999","","",""
"2837.800000190735","2","confid","","","html-slider-response","1675","1260323","0.0-4.0-10.187-0.187","","","","Rate your confidence","1",""
"186.90000009536743","i","choice","left","e","experimental","1682","1262342","0.0-4.0-8.188","false","189","3.349999999999999","","",""
"2787.4000000953674","3","confid","","","html-slider-response","1684","1265636","0.0-4.0-10.188-0.188","","","","Rate your confidence","1",""
"355.7999997138977","i","choice","right","i","experimental","1691","1267815","0.0-4.0-8.189","true","190","3.4499999999999993","","",""
"2286.9000000953674","5","confid","","","html-slider-response","1693","1270610","0.0-4.0-10.189-0.189","","","","Rate your confidence","1",""
"302.7000002861023","i","choice","left","e","experimental","1700","1272752","0.0-4.0-8.190","false","191","3.4499999999999993","","",""
"2535.800000190735","5","confid","","","html-slider-response","1702","1275797","0.0-4.0-10.190-0.190","","","","Rate your confidence","1",""
"986.5999999046326","e","choice","right","i","experimental","1709","1278644","0.0-4.0-8.191","false","192","3.5499999999999994","","",""
"2529.2000002861023","3","confid","","","html-slider-response","1711","1281683","0.0-4.0-10.191-0.191","","","","Rate your confidence","1",""
"688","e","choice","left","e","experimental","1718","1284213","0.0-4.0-8.192","true","193","3.6499999999999995","","",""
"3233.7999997138977","5","confid","","","html-slider-response","1720","1287966","0.0-4.0-10.192-0.192","","","","Rate your confidence","1",""
"548.9000000953674","i","choice","right","i","experimental","1727","1290330","0.0-4.0-8.193","true","194","3.6499999999999995","","",""
"3716","4","confid","","","html-slider-response","1729","1294568","0.0-4.0-10.193-0.193","","","","Rate your confidence","1","16614"
