"rt","response","task","target_side","correct_response","trial_type","trial_index","time_elapsed","internal_node_id","correct","trial_number","n_dots","stimulus","slider_start","participant"
"3106","e","choice","right","i","practice","10","145170","0.0-4.0-8.0","false","1","4.25","","",""
"721.7999999523163","e","choice","left","e","practice","18","148226","0.0-4.0-8.1","true","2","4.65","","",""
"437.2000000476837","e","choice","left","e","practice","26","150995","0.0-4.0-8.2","true","3","4.65","","",""
"601.0999999046326","e","choice","right","i","practice","34","153900","0.0-4.0-8.3","false","4","4.25","","",""
"219.29999995231628","e","choice","left","e","practice","42","156447","0.0-4.0-8.4","true","5","4.65","","",""
"354.2999999523163","i","choice","right","i","practice","50","159127","0.0-4.0-8.5","true","6","4.65","","",""
"453.5","e","choice","right","i","practice","58","161911","0.0-4.0-8.6","false","7","4.45","","",""
"899.5","e","choice","left","e","practice","66","165114","0.0-4.0-8.7","true","8","4.65","","",""
"90.29999995231628","e","choice","left","e","practice","74","167528","0.0-4.0-8.8","true","9","4.65","","",""
"973.5","i","choice","right","i","practice","82","170828","0.0-4.0-8.9","true","10","4.45","","",""
"713.2000000476837","e","choice","left","e","practice","90","173857","0.0-4.0-8.10","true","11","4.45","","",""
"384.5","e","choice","right","i","practice","98","176564","0.0-4.0-8.11","false","12","4.3500000000000005","","",""
"359.40000009536743","e","choice","left","e","practice","106","179223","0.0-4.0-8.12","true","13","4.45","","",""
"780.9000000953674","i","choice","right","i","practice","114","182308","0.0-4.0-8.13","true","14","4.45","","",""
"724.5999999046326","i","choice","right","i","practice","122","185359","0.0-4.0-8.14","true","15","4.3500000000000005","","",""
"332.7000000476837","e","choice","left","e","practice","130","188002","0.0-4.0-8.15","true","16","4.3500000000000005","","",""
"408.2000000476837","i","choice","right","i","practice","138","190741","0.0-4.0-8.16","true","17","4.250000000000001","","",""
"241.90000009536743","e","choice","left","e","practice","146","193292","0.0-4.0-8.17","true","18","4.250000000000001","","",""
"2.4000000953674316","e","choice","left","e","practice","154","195631","0.0-4.0-8.18","true","19","4.150000000000001","","",""
"835.8999998569489","i","choice","right","i","practice","162","198795","0.0-4.0-8.19","true","20","4.150000000000001","","",""
"535.4000000953674","i","choice","right","i","practice","170","201652","0.0-4.0-8.20","true","21","4.050000000000002","","",""
"305.10000014305115","e","choice","left","e","practice","178","204264","0.0-4.0-8.21","true","22","4.050000000000002","","",""
"418.2000000476837","e","choice","left","e","practice","186","206985","0.0-4.0-8.22","true","23","3.9500000000000015","","",""
"251.10000014305115","i","choice","right","i","practice","194","209579","0.0-4.0-8.23","true","24","3.9500000000000015","","",""
"753.7000000476837","i","choice","left","e","practice","202","212662","0.0-4.0-8.24","false","25","3.8500000000000014","","",""
"322.80000019073486","i","choice","right","i","practice","210","215281","0.0-4.0-8.25","true","26","3.9500000000000015","","",""
"391.5","e","choice","left","e","experimental","221","257350","0.0-4.0-8.26","true","27","3.9500000000000015","","",""
"4027.7000000476837","6","confid","","","html-slider-response","223","261886","0.0-4.0-10.26-0.26","","","","Rate your confidence","1",""
"348.7000000476837","i","choice","right","i","experimental","230","264062","0.0-4.0-8.27","true","28","3.8500000000000014","","",""
"4567.299999952316","6","confid","","","html-slider-response","232","269135","0.0-4.0-10.27-0.27","","","","Rate your confidence","1",""
"456.7999999523163","i","choice","right","i","experimental","239","271425","0.0-4.0-8.28","true","29","3.8500000000000014","","",""
"3881.7999999523163","6","confid","","","html-slider-response","241","275813","0.0-4.0-10.28-0.28","","","","Rate your confidence","1",""
"344","e","choice","left","e","experimental","248","277975","0.0-4.0-8.29","true","30","3.7500000000000013","","",""
"2179.100000143051","6","confid","","","html-slider-response","250","280661","0.0-4.0-10.29-0.29","","","","Rate your confidence","1",""
"392.7999999523163","i","choice","right","i","experimental","257","282863","0.0-4.0-8.30","true","31","3.7500000000000013","","",""
"1827.1000001430511","6","confid","","","html-slider-response","259","285205","0.0-4.0-10.30-0.30","","","","Rate your confidence","1",""
"343.09999990463257","e","choice","left","e","experimental","266","287359","0.0-4.0-8.31","true","32","3.6500000000000012","","",""
"2079.5","6","confid","","","html-slider-response","268","289945","0.0-4.0-10.31-0.31","","","","Rate your confidence","1",""
"1446.2000000476837","e","choice","left","e","experimental","275","293214","0.0-4.0-8.32","true","33","3.6500000000000012","","",""
"1662.3999998569489","2","confid","","","html-slider-response","277","295383","0.0-4.0-10.32-0.32","","","","Rate your confidence","1",""
"510.59999990463257","i","choice","right","i","experimental","284","297707","0.0-4.0-8.33","true","34","3.550000000000001","","",""
"3612.2000000476837","5","confid","","","html-slider-response","286","301823","0.0-4.0-10.33-0.33","","","","Rate your confidence","1",""
"335","i","choice","right","i","experimental","293","303986","0.0-4.0-8.34","true","35","3.550000000000001","","",""
"2518.7000000476837","5","confid","","","html-slider-response","295","307024","0.0-4.0-10.34-0.34","","","","Rate your confidence","1",""
"368.5","e","choice","left","e","experimental","302","309216","0.0-4.0-8.35","true","36","3.450000000000001","","",""
"3273.300000190735","6","confid","","","html-slider-response","304","313017","0.0-4.0-10.35-0.35","","","","Rate your confidence","1",""
"720.8999998569489","i","choice","right","i","experimental","311","315549","0.0-4.0-8.36","true","37","3.450000000000001","","",""
"3198.5","5","confid","","","html-slider-response","313","319260","0.0-4.0-10.36-0.36","","","","Rate your confidence","1",""
"243.89999985694885","e","choice","left","e","experimental","320","321332","0.0-4.0-8.37","true","38","3.350000000000001","","",""
"3152.199999809265","6","confid","","","html-slider-response","322","324990","0.0-4.0-10.37-0.37","","","","Rate your confidence","1",""
"541","e","choice","left","e","experimental","329","327355","0.0-4.0-8.38","true","39","3.350000000000001","","",""
"2510.100000143051","6","confid","","","html-slider-response","331","330371","0.0-4.0-10.38-0.38","","","","Rate your confidence","1",""
"213.90000009536743","e","choice","right","i","experimental","338","332382","0.0-4.0-8.39","false","40","3.250000000000001","","",""
"2116.7000000476837","6","confid","","","html-slider-response","340","335008","0.0-4.0-10.39-0.39","","","","Rate your confidence","1",""
"478","e","choice","right","i","experimental","347","337280","0.0-4.0-8.40","false","41","3.350000000000001","","",""
"2088.9000000953674","5","confid","","","html-slider-response","349","339875","0.0-4.0-10.40-0.40","","","","Rate your confidence","1",""
"26.299999952316284","e","choice","left","e","experimental","356","341715","0.0-4.0-8.41","true","42","3.450000000000001","","",""
"3447.7999999523163","6","confid","","","html-slider-response","358","345678","0.0-4.0-10.41-0.41","","","","Rate your confidence","1",""
"302.7000000476837","e","choice","right","i","experimental","365","347783","0.0-4.0-8.42","false","43","3.450000000000001","","",""
"1828.1999998092651","4","confid","","","html-slider-response","367","350115","0.0-4.0-10.42-0.42","","","","Rate your confidence","1",""
"666.9000000953674","e","choice","left","e","experimental","374","352614","0.0-4.0-8.43","true","44","3.550000000000001","","",""
"2029.2000000476837","4","confid","","","html-slider-response","376","355148","0.0-4.0-10.43-0.43","","","","Rate your confidence","1",""
"1419.5","e","choice","right","i","experimental","383","358408","0.0-4.0-8.44","false","45","3.550000000000001","","",""
"1942","4","confid","","","html-slider-response","385","360862","0.0-4.0-10.44-0.44","","","","Rate your confidence","1",""
"294.89999985694885","e","choice","left","e","experimental","392","362963","0.0-4.0-8.45","true","46","3.6500000000000012","","",""
"2278.2999999523163","6","confid","","","html-slider-response","394","365765","0.0-4.0-10.45-0.45","","","","Rate your confidence","1",""
"1556.2000000476837","e","choice","left","e","experimental","401","369129","0.0-4.0-8.46","true","47","3.6500000000000012","","",""
"1599.7000000476837","3","confid","","","html-slider-response","403","371237","0.0-4.0-10.46-0.46","","","","Rate your confidence","1",""
"269.2000000476837","e","choice","right","i","experimental","410","373304","0.0-4.0-8.47","false","48","3.550000000000001","","",""
"5121.400000095367","3","confid","","","html-slider-response","412","378933","0.0-4.0-10.47-0.47","","","","Rate your confidence","1",""
"263.59999990463257","e","choice","right","i","experimental","419","381020","0.0-4.0-8.48","false","49","3.6500000000000012","","",""
"1703","6","confid","","","html-slider-response","421","383231","0.0-4.0-10.48-0.48","","","","Rate your confidence","1",""
"539.1000001430511","e","choice","left","e","experimental","428","385572","0.0-4.0-8.49","true","50","3.7500000000000013","","",""
"1678.2999999523163","4","confid","","","html-slider-response","430","387756","0.0-4.0-10.49-0.49","","","","Rate your confidence","1",""
"414.09999990463257","e","choice","left","e","experimental","437","389982","0.0-4.0-8.50","true","51","3.7500000000000013","","",""
"2399.0999999046326","4","confid","","","html-slider-response","439","392907","0.0-4.0-10.50-0.50","","","","Rate your confidence","1",""
"376.2000000476837","e","choice","right","i","experimental","446","395086","0.0-4.0-8.51","false","52","3.6500000000000012","","",""
"1620.5","4","confid","","","html-slider-response","448","397214","0.0-4.0-10.51-0.51","","","","Rate your confidence","1",""
"491.7000000476837","e","choice","left","e","experimental","455","399529","0.0-4.0-8.52","true","53","3.7500000000000013","","",""
"2319.2999999523163","3","confid","","","html-slider-response","457","402359","0.0-4.0-10.52-0.52","","","","Rate your confidence","1",""
"775.7999999523163","i","choice","right","i","experimental","464","404964","0.0-4.0-8.53","true","54","3.7500000000000013","","",""
"1498.8999998569489","3","confid","","","html-slider-response","466","406970","0.0-4.0-10.53-0.53","","","","Rate your confidence","1",""
"337.5","e","choice","left","e","experimental","473","409135","0.0-4.0-8.54","true","55","3.6500000000000012","","",""
"1811.4000000953674","3","confid","","","html-slider-response","475","411451","0.0-4.0-10.54-0.54","","","","Rate your confidence","1",""
"443.59999990463257","i","choice","right","i","experimental","482","413696","0.0-4.0-8.55","true","56","3.6500000000000012","","",""
"1515.0999999046326","4","confid","","","html-slider-response","484","415720","0.0-4.0-10.55-0.55","","","","Rate your confidence","1",""
"299.5","e","choice","left","e","experimental","491","417817","0.0-4.0-8.56","true","57","3.550000000000001","","",""
"2782.5999999046326","4","confid","","","html-slider-response","493","421107","0.0-4.0-10.56-0.56","","","","Rate your confidence","1",""
"1374","i","choice","right","i","experimental","500","424302","0.0-4.0-8.57","true","58","3.550000000000001","","",""
"4040.0999999046326","5","confid","","","html-slider-response","502","428848","0.0-4.0-10.57-0.57","","","","Rate your confidence","1",""
"991","e","choice","right","i","experimental","509","431670","0.0-4.0-8.58","false","59","3.450000000000001","","",""
"2668.5","3","confid","","","html-slider-response","511","434855","0.0-4.0-10.58-0.58","","","","Rate your confidence","1",""
"401.19999980926514","e","choice","left","e","experimental","518","437073","0.0-4.0-8.59","true","60","3.550000000000001","","",""
"1659.0999999046326","3","confid","","","html-slider-response","520","439251","0.0-4.0-10.59-0.59","","","","Rate your confidence","1",""
"538.7000000476837","i","choice","right","i","experimental","527","441614","0.0-4.0-8.60","true","61","3.550000000000001","","",""
"2621.5999999046326","3","confid","","","html-slider-response","529","444743","0.0-4.0-10.60-0.60","","","","Rate your confidence","1",""
"305.39999985694885","e","choice","left","e","experimental","536","446863","0.0-4.0-8.61","true","62","3.450000000000001","","",""
"3169.7000000476837","4","confid","","","html-slider-response","538","450561","0.0-4.0-10.61-0.61","","","","Rate your confidence","1",""
"621.1999998092651","e","choice","left","e","experimental","545","452983","0.0-4.0-8.62","true","63","3.450000000000001","","",""
"1689.9000000953674","3","confid","","","html-slider-response","547","455178","0.0-4.0-10.62-0.62","","","","Rate your confidence","1",""
"365.5","i","choice","right","i","experimental","554","457369","0.0-4.0-8.63","true","64","3.350000000000001","","",""
"1872.7000000476837","5","confid","","","html-slider-response","556","459750","0.0-4.0-10.63-0.63","","","","Rate your confidence","1",""
"325.5","e","choice","left","e","experimental","563","461897","0.0-4.0-8.64","true","65","3.350000000000001","","",""
"3743.9000000953674","5","confid","","","html-slider-response","565","466147","0.0-4.0-10.64-0.64","","","","Rate your confidence","1",""
"484.90000009536743","e","choice","right","i","experimental","572","468444","0.0-4.0-8.65","false","66","3.250000000000001","","",""
"1734.1999998092651","3","confid","","","html-slider-response","574","470687","0.0-4.0-10.65-0.65","","","","Rate your confidence","1",""
"476","i","choice","right","i","experimental","581","472977","0.0-4.0-8.66","true","67","3.350000000000001","","",""
"4834.900000095367","5","confid","","","html-slider-response","583","478319","0.0-4.0-10.66-0.66","","","","Rate your confidence","1",""
"525.4000000953674","i","choice","left","e","experimental","590","480660","0.0-4.0-8.67","false","68","3.350000000000001","","",""
"2256.800000190735","5","confid","","","html-slider-response","592","483428","0.0-4.0-10.67-0.67","","","","Rate your confidence","1",""
"570.0999999046326","e","choice","left","e","experimental","600","690599","0.0-4.0-8.68","true","69","3.450000000000001","","",""
"3348.7000000476837","4","confid","","","html-slider-response","602","694452","0.0-4.0-10.68-0.68","","","","Rate your confidence","1",""
"307","i","choice","right","i","experimental","609","696586","0.0-4.0-8.69","true","70","3.450000000000001","","",""
"1483.6999998092651","4","confid","","","html-slider-response","611","698575","0.0-4.0-10.69-0.69","","","","Rate your confidence","1",""
"899.6000001430511","e","choice","left","e","experimental","618","701274","0.0-4.0-8.70","true","71","3.350000000000001","","",""
"3033.2000000476837","3","confid","","","html-slider-response","620","704814","0.0-4.0-10.70-0.70","","","","Rate your confidence","1",""
"400","i","choice","right","i","experimental","627","707028","0.0-4.0-8.71","true","72","3.350000000000001","","",""
"1507.2999999523163","4","confid","","","html-slider-response","629","709041","0.0-4.0-10.71-0.71","","","","Rate your confidence","1",""
"374.39999985694885","e","choice","left","e","experimental","636","711216","0.0-4.0-8.72","true","73","3.250000000000001","","",""
"3217.5","3","confid","","","html-slider-response","638","714939","0.0-4.0-10.72-0.72","","","","Rate your confidence","1",""
"462.2999999523163","e","choice","right","i","experimental","645","717233","0.0-4.0-8.73","false","74","3.250000000000001","","",""
"1791.2000000476837","4","confid","","","html-slider-response","647","719529","0.0-4.0-10.73-0.73","","","","Rate your confidence","1",""
"289.5","e","choice","left","e","experimental","654","721650","0.0-4.0-8.74","true","75","3.350000000000001","","",""
"4660.200000047684","3","confid","","","html-slider-response","656","726816","0.0-4.0-10.74-0.74","","","","Rate your confidence","1",""
"0.40000009536743164","i","choice","right","i","experimental","663","728625","0.0-4.0-8.75","true","76","3.350000000000001","","",""
"4204.400000095367","4","confid","","","html-slider-response","665","733337","0.0-4.0-10.75-0.75","","","","Rate your confidence","1",""
"696.5999999046326","i","choice","right","i","experimental","672","735837","0.0-4.0-8.76","true","77","3.250000000000001","","",""
"1668.0999999046326","4","confid","","","html-slider-response","674","738011","0.0-4.0-10.76-0.76","","","","Rate your confidence","1",""
"1285.0999999046326","e","choice","left","e","experimental","681","741099","0.0-4.0-8.77","true","78","3.250000000000001","","",""
"3720.600000143051","2","confid","","","html-slider-response","683","745329","0.0-4.0-10.77-0.77","","","","Rate your confidence","1",""
"4.799999952316284","i","choice","right","i","experimental","690","747138","0.0-4.0-8.78","true","79","3.150000000000001","","",""
"7550.700000047684","2","confid","","","html-slider-response","692","755196","0.0-4.0-10.78-0.78","","","","Rate your confidence","1",""
"337.10000014305115","i","choice","left","e","experimental","699","757357","0.0-4.0-8.79","false","80","3.150000000000001","","",""
"1489.8999998569489","4","confid","","","html-slider-response","701","759352","0.0-4.0-10.79-0.79","","","","Rate your confidence","1",""
"297.7000000476837","e","choice","left","e","experimental","708","761479","0.0-4.0-8.80","true","81","3.250000000000001","","",""
"2832.0999999046326","4","confid","","","html-slider-response","710","764820","0.0-4.0-10.80-0.80","","","","Rate your confidence","1",""
"322.7999999523163","i","choice","right","i","experimental","717","766959","0.0-4.0-8.81","true","82","3.250000000000001","","",""
"1518.8999998569489","4","confid","","","html-slider-response","719","769004","0.0-4.0-10.81-0.81","","","","Rate your confidence","1",""
"316.59999990463257","e","choice","left","e","experimental","726","771128","0.0-4.0-8.82","true","83","3.150000000000001","","",""
"4832","6","confid","","","html-slider-response","728","776465","0.0-4.0-10.82-0.82","","","","Rate your confidence","1",""
"416.60000014305115","e","choice","right","i","experimental","735","778692","0.0-4.0-8.83","false","84","3.150000000000001","","",""
"1671.2999999523163","4","confid","","","html-slider-response","737","780870","0.0-4.0-10.83-0.83","","","","Rate your confidence","1",""
"1007","e","choice","right","i","experimental","744","783702","0.0-4.0-8.84","false","85","3.250000000000001","","",""
"2493.600000143051","4","confid","","","html-slider-response","746","786704","0.0-4.0-10.84-0.84","","","","Rate your confidence","1",""
"285.90000009536743","e","choice","left","e","experimental","753","788809","0.0-4.0-8.85","true","86","3.350000000000001","","",""
"1822.1000001430511","6","confid","","","html-slider-response","755","791137","0.0-4.0-10.85-0.85","","","","Rate your confidence","1",""
"504.5","e","choice","right","i","experimental","762","793465","0.0-4.0-8.86","false","87","3.350000000000001","","",""
"2340.4000000953674","6","confid","","","html-slider-response","764","796312","0.0-4.0-10.86-0.86","","","","Rate your confidence","1",""
"303.90000009536743","e","choice","left","e","experimental","771","798414","0.0-4.0-8.87","true","88","3.450000000000001","","",""
"1759.5","6","confid","","","html-slider-response","773","800678","0.0-4.0-10.87-0.87","","","","Rate your confidence","1",""
"304.2999999523163","e","choice","left","e","experimental","780","802804","0.0-4.0-8.88","true","89","3.450000000000001","","",""
"1808.5","5","confid","","","html-slider-response","782","805117","0.0-4.0-10.88-0.88","","","","Rate your confidence","1",""
"245.79999995231628","e","choice","right","i","experimental","789","807194","0.0-4.0-8.89","false","90","3.350000000000001","","",""
"3146","5","confid","","","html-slider-response","791","810848","0.0-4.0-10.89-0.89","","","","Rate your confidence","1",""
"238","e","choice","left","e","experimental","798","812891","0.0-4.0-8.90","true","91","3.450000000000001","","",""
"2374","4","confid","","","html-slider-response","800","815773","0.0-4.0-10.90-0.90","","","","Rate your confidence","1",""
"351.09999990463257","i","choice","right","i","experimental","807","817929","0.0-4.0-8.91","true","92","3.450000000000001","","",""
"1809.7999999523163","3","confid","","","html-slider-response","809","820244","0.0-4.0-10.91-0.91","","","","Rate your confidence","1",""
"139.60000014305115","e","choice","left","e","experimental","816","822214","0.0-4.0-8.92","true","93","3.350000000000001","","",""
"1539.2000000476837","3","confid","","","html-slider-response","818","824263","0.0-4.0-10.92-0.92","","","","Rate your confidence","1",""
"818.6000001430511","i","choice","right","i","experimental","825","826909","0.0-4.0-8.93","true","94","3.350000000000001","","",""
"2109.2000000476837","3","confid","","","html-slider-response","827","829538","0.0-4.0-10.93-0.93","","","","Rate your confidence","1",""
"146.89999985694885","e","choice","left","e","experimental","834","831492","0.0-4.0-8.94","true","95","3.250000000000001","","",""
"1544.7999999523163","3","confid","","","html-slider-response","836","833552","0.0-4.0-10.94-0.94","","","","Rate your confidence","1",""
"1381.2000000476837","e","choice","right","i","experimental","843","836743","0.0-4.0-8.95","false","96","3.250000000000001","","",""
"3836.100000143051","1","confid","","","html-slider-response","845","841084","0.0-4.0-10.95-0.95","","","","Rate your confidence","1",""
"423.2000000476837","e","choice","left","e","experimental","852","843320","0.0-4.0-8.96","true","97","3.350000000000001","","",""
"3039.5","2","confid","","","html-slider-response","854","846867","0.0-4.0-10.96-0.96","","","","Rate your confidence","1",""
"410.2999999523163","e","choice","right","i","experimental","861","849097","0.0-4.0-8.97","false","98","3.350000000000001","","",""
"2394.2999999523163","3","confid","","","html-slider-response","863","851997","0.0-4.0-10.97-0.97","","","","Rate your confidence","1",""
"354.90000009536743","e","choice","left","e","experimental","870","854183","0.0-4.0-8.98","true","99","3.450000000000001","","",""
"3210.2000000476837","3","confid","","","html-slider-response","872","857900","0.0-4.0-10.98-0.98","","","","Rate your confidence","1",""
"21.800000190734863","e","choice","right","i","experimental","879","859752","0.0-4.0-8.99","false","100","3.450000000000001","","",""
"2533.7000000476837","4","confid","","","html-slider-response","881","862794","0.0-4.0-10.99-0.99","","","","Rate your confidence","1",""
"432.7999999523163","e","choice","left","e","experimental","888","865049","0.0-4.0-8.100","true","101","3.550000000000001","","",""
"1541.2000000476837","3","confid","","","html-slider-response","890","867122","0.0-4.0-10.100-0.100","","","","Rate your confidence","1",""
"299.59999990463257","e","choice","right","i","experimental","897","869231","0.0-4.0-8.101","false","102","3.550000000000001","","",""
"1411.9000000953674","3","confid","","","html-slider-response","899","871151","0.0-4.0-10.101-0.101","","","","Rate your confidence","1",""
"280.10000014305115","e","choice","right","i","experimental","906","873254","0.0-4.0-8.102","false","103","3.6500000000000012","","",""
"1821.2999999523163","3","confid","","","html-slider-response","908","875584","0.0-4.0-10.102-0.102","","","","Rate your confidence","1",""
"227.10000014305115","e","choice","left","e","experimental","915","877641","0.0-4.0-8.103","true","104","3.7500000000000013","","",""
"1651.1000001430511","3","confid","","","html-slider-response","917","879804","0.0-4.0-10.103-0.103","","","","Rate your confidence","1",""
"341.09999990463257","e","choice","right","i","experimental","924","881960","0.0-4.0-8.104","false","105","3.7500000000000013","","",""
"1300.4000000953674","3","confid","","","html-slider-response","926","883765","0.0-4.0-10.104-0.104","","","","Rate your confidence","1",""
"241.5","e","choice","left","e","experimental","933","885823","0.0-4.0-8.105","true","106","3.8500000000000014","","",""
"3024.5","5","confid","","","html-slider-response","935","889353","0.0-4.0-10.105-0.105","","","","Rate your confidence","1",""
"262.7000000476837","e","choice","left","e","experimental","942","891450","0.0-4.0-8.106","true","107","3.8500000000000014","","",""
"1824.5999999046326","4","confid","","","html-slider-response","944","893779","0.0-4.0-10.106-0.106","","","","Rate your confidence","1",""
"227.69999980926514","e","choice","right","i","experimental","951","895835","0.0-4.0-8.107","false","108","3.7500000000000013","","",""
"2725.4000000953674","3","confid","","","html-slider-response","953","899067","0.0-4.0-10.107-0.107","","","","Rate your confidence","1",""
"298.5","e","choice","left","e","experimental","960","901171","0.0-4.0-8.108","true","109","3.8500000000000014","","",""
"2261.9000000953674","3","confid","","","html-slider-response","962","903963","0.0-4.0-10.108-0.108","","","","Rate your confidence","1",""
"201.70000004768372","i","choice","right","i","experimental","969","905967","0.0-4.0-8.109","true","110","3.8500000000000014","","",""
"3608.4000000953674","2","confid","","","html-slider-response","971","910086","0.0-4.0-10.109-0.109","","","","Rate your confidence","1",""
"346.2999999523163","i","choice","right","i","experimental","979","1202510","0.0-4.0-8.110","true","111","3.7500000000000013","","",""
"7826.099999904633","4","confid","","","html-slider-response","981","1210844","0.0-4.0-10.110-0.110","","","","Rate your confidence","1",""
"108.29999995231628","e","choice","left","e","experimental","988","1212782","0.0-4.0-8.111","true","112","3.7500000000000013","","",""
"2440.5","3","confid","","","html-slider-response","990","1215727","0.0-4.0-10.111-0.111","","","","Rate your confidence","1",""
"108.40000009536743","e","choice","right","i","experimental","997","1217657","0.0-4.0-8.112","false","113","3.6500000000000012","","",""
"2190.2999999523163","3","confid","","","html-slider-response","999","1220354","0.0-4.0-10.112-0.112","","","","Rate your confidence","1",""
"162.20000004768372","e","choice","left","e","experimental","1006","1222320","0.0-4.0-8.113","true","114","3.7500000000000013","","",""
"2103.399999856949","3","confid","","","html-slider-response","1008","1224929","0.0-4.0-10.113-0.113","","","","Rate your confidence","1",""
"190.59999990463257","e","choice","left","e","experimental","1015","1226951","0.0-4.0-8.114","true","115","3.7500000000000013","","",""
"1847.8999998569489","4","confid","","","html-slider-response","1017","1229307","0.0-4.0-10.114-0.114","","","","Rate your confidence","1",""
"50.60000014305115","i","choice","right","i","experimental","1024","1231164","0.0-4.0-8.115","true","116","3.6500000000000012","","",""
"3148.100000143051","4","confid","","","html-slider-response","1026","1234818","0.0-4.0-10.115-0.115","","","","Rate your confidence","1",""
"28.90000009536743","e","choice","left","e","experimental","1033","1236651","0.0-4.0-8.116","true","117","3.6500000000000012","","",""
"1986.7999999523163","3","confid","","","html-slider-response","1035","1239143","0.0-4.0-10.116-0.116","","","","Rate your confidence","1",""
"896.8999998569489","e","choice","right","i","experimental","1042","1241865","0.0-4.0-8.117","false","118","3.550000000000001","","",""
"2419.7999999523163","4","confid","","","html-slider-response","1044","1244795","0.0-4.0-10.117-0.117","","","","Rate your confidence","1",""
"208.20000004768372","e","choice","right","i","experimental","1051","1246819","0.0-4.0-8.118","false","119","3.6500000000000012","","",""
"1957.2000000476837","4","confid","","","html-slider-response","1053","1249286","0.0-4.0-10.118-0.118","","","","Rate your confidence","1",""
"90.40000009536743","e","choice","left","e","experimental","1060","1251204","0.0-4.0-8.119","true","120","3.7500000000000013","","",""
"1596.3000001907349","3","confid","","","html-slider-response","1062","1253307","0.0-4.0-10.119-0.119","","","","Rate your confidence","1",""
"324.10000014305115","e","choice","left","e","experimental","1069","1255462","0.0-4.0-8.120","true","121","3.7500000000000013","","",""
"1412.4000000953674","4","confid","","","html-slider-response","1071","1257389","0.0-4.0-10.120-0.120","","","","Rate your confidence","1",""
"394.2999999523163","e","choice","right","i","experimental","1078","1259615","0.0-4.0-8.121","false","122","3.6500000000000012","","",""
"1608.2000000476837","3","confid","","","html-slider-response","1080","1261732","0.0-4.0-10.121-0.121","","","","Rate your confidence","1",""
"237.80000019073486","e","choice","right","i","experimental","1087","1263799","0.0-4.0-8.122","false","123","3.7500000000000013","","",""
"1477","4","confid","","","html-slider-response","1089","1265782","0.0-4.0-10.122-0.122","","","","Rate your confidence","1",""
"134.20000004768372","e","choice","left","e","experimental","1096","1267727","0.0-4.0-8.123","true","124","3.8500000000000014","","",""
"2015.4000000953674","4","confid","","","html-slider-response","1098","1270250","0.0-4.0-10.123-0.123","","","","Rate your confidence","1",""
"61.799999952316284","e","choice","left","e","experimental","1105","1272127","0.0-4.0-8.124","true","125","3.8500000000000014","","",""
"1449.2999999523163","3","confid","","","html-slider-response","1107","1274083","0.0-4.0-10.124-0.124","","","","Rate your confidence","1",""
"242.59999990463257","e","choice","right","i","experimental","1114","1276150","0.0-4.0-8.125","false","126","3.7500000000000013","","",""
"1750.4000000953674","5","confid","","","html-slider-response","1116","1278408","0.0-4.0-10.125-0.125","","","","Rate your confidence","1",""
"117.5","e","choice","left","e","experimental","1123","1280361","0.0-4.0-8.126","true","127","3.8500000000000014","","",""
"1627.2999999523163","4","confid","","","html-slider-response","1125","1282500","0.0-4.0-10.126-0.126","","","","Rate your confidence","1",""
"444.59999990463257","i","choice","right","i","experimental","1132","1284784","0.0-4.0-8.127","true","128","3.8500000000000014","","",""
"1567.8999998569489","4","confid","","","html-slider-response","1134","1286859","0.0-4.0-10.127-0.127","","","","Rate your confidence","1",""
"457.09999990463257","i","choice","right","i","experimental","1141","1289142","0.0-4.0-8.128","true","129","3.7500000000000013","","",""
"1594.9000000953674","4","confid","","","html-slider-response","1143","1291243","0.0-4.0-10.128-0.128","","","","Rate your confidence","1",""
"411.90000009536743","e","choice","left","e","experimental","1150","1293466","0.0-4.0-8.129","true","130","3.7500000000000013","","",""
"2505","4","confid","","","html-slider-response","1152","1296503","0.0-4.0-10.129-0.129","","","","Rate your confidence","1",""
"308.40000009536743","e","choice","left","e","experimental","1159","1298613","0.0-4.0-8.130","true","131","3.6500000000000012","","",""
"2527.7000000476837","5","confid","","","html-slider-response","1161","1301649","0.0-4.0-10.130-0.130","","","","Rate your confidence","1",""
"403.90000009536743","e","choice","right","i","experimental","1168","1303895","0.0-4.0-8.131","false","132","3.6500000000000012","","",""
"2054.800000190735","5","confid","","","html-slider-response","1170","1306457","0.0-4.0-10.131-0.131","","","","Rate your confidence","1",""
"229","e","choice","left","e","experimental","1177","1308499","0.0-4.0-8.132","true","133","3.7500000000000013","","",""
"2526.699999809265","5","confid","","","html-slider-response","1179","1311540","0.0-4.0-10.132-0.132","","","","Rate your confidence","1",""
"303.2999999523163","e","choice","right","i","experimental","1186","1313664","0.0-4.0-8.133","false","134","3.7500000000000013","","",""
"1966.2000000476837","5","confid","","","html-slider-response","1188","1316135","0.0-4.0-10.133-0.133","","","","Rate your confidence","1",""
"433.09999990463257","e","choice","left","e","experimental","1195","1318394","0.0-4.0-8.134","true","135","3.8500000000000014","","",""
"1806.9000000953674","5","confid","","","html-slider-response","1197","1320711","0.0-4.0-10.134-0.134","","","","Rate your confidence","1",""
"684.5","i","choice","right","i","experimental","1204","1323221","0.0-4.0-8.135","true","136","3.8500000000000014","","",""
"2433.600000143051","2","confid","","","html-slider-response","1206","1326161","0.0-4.0-10.135-0.135","","","","Rate your confidence","1",""
"257.90000009536743","i","choice","right","i","experimental","1213","1328248","0.0-4.0-8.136","true","137","3.7500000000000013","","",""
"1895","5","confid","","","html-slider-response","1215","1330664","0.0-4.0-10.136-0.136","","","","Rate your confidence","1",""
"360.09999990463257","e","choice","left","e","experimental","1222","1332849","0.0-4.0-8.137","true","138","3.7500000000000013","","",""
"2291.899999856949","4","confid","","","html-slider-response","1224","1335658","0.0-4.0-10.137-0.137","","","","Rate your confidence","1",""
"317.40000009536743","e","choice","right","i","experimental","1231","1337795","0.0-4.0-8.138","false","139","3.6500000000000012","","",""
"3385.899999856949","6","confid","","","html-slider-response","1233","1341686","0.0-4.0-10.138-0.138","","","","Rate your confidence","1",""
"301.10000014305115","e","choice","left","e","experimental","1240","1343822","0.0-4.0-8.139","true","140","3.7500000000000013","","",""
"1719.7000000476837","6","confid","","","html-slider-response","1242","1346047","0.0-4.0-10.139-0.139","","","","Rate your confidence","1",""
"361.5","i","choice","right","i","experimental","1249","1348242","0.0-4.0-8.140","true","141","3.7500000000000013","","",""
"1894.2000000476837","4","confid","","","html-slider-response","1251","1350643","0.0-4.0-10.140-0.140","","","","Rate your confidence","1",""
"87.29999995231628","e","choice","left","e","experimental","1258","1352560","0.0-4.0-8.141","true","142","3.6500000000000012","","",""
"1743.7000000476837","4","confid","","","html-slider-response","1260","1354817","0.0-4.0-10.141-0.141","","","","Rate your confidence","1",""
"195.29999995231628","e","choice","right","i","experimental","1267","1356825","0.0-4.0-8.142","false","143","3.6500000000000012","","",""
"2451.199999809265","5","confid","","","html-slider-response","1269","1359783","0.0-4.0-10.142-0.142","","","","Rate your confidence","1",""
"288.60000014305115","e","choice","left","e","experimental","1276","1361877","0.0-4.0-8.143","true","144","3.7500000000000013","","",""
"1458.3999998569489","5","confid","","","html-slider-response","1278","1363851","0.0-4.0-10.143-0.143","","","","Rate your confidence","1",""
"391.40000009536743","e","choice","left","e","experimental","1285","1366048","0.0-4.0-8.144","true","145","3.7500000000000013","","",""
"1575.2000000476837","4","confid","","","html-slider-response","1287","1368132","0.0-4.0-10.144-0.144","","","","Rate your confidence","1",""
"270.40000009536743","e","choice","right","i","experimental","1294","1370211","0.0-4.0-8.145","false","146","3.6500000000000012","","",""
"3177.4000000953674","6","confid","","","html-slider-response","1296","1373897","0.0-4.0-10.145-0.145","","","","Rate your confidence","1",""
"187.5","i","choice","right","i","experimental","1303","1375899","0.0-4.0-8.146","true","147","3.7500000000000013","","",""
"1925.3999998569489","4","confid","","","html-slider-response","1305","1378335","0.0-4.0-10.146-0.146","","","","Rate your confidence","1",""
"114","e","choice","left","e","experimental","1312","1380279","0.0-4.0-8.147","true","148","3.7500000000000013","","",""
"3091.699999809265","3","confid","","","html-slider-response","1314","1383884","0.0-4.0-10.147-0.147","","","","Rate your confidence","1",""
"324","e","choice","left","e","experimental","1321","1386019","0.0-4.0-8.148","true","149","3.6500000000000012","","",""
"1669","5","confid","","","html-slider-response","1323","1388194","0.0-4.0-10.148-0.148","","","","Rate your confidence","1",""
"274.7000000476837","e","choice","right","i","experimental","1330","1390282","0.0-4.0-8.149","false","150","3.6500000000000012","","",""
"2095.800000190735","5","confid","","","html-slider-response","1332","1392891","0.0-4.0-10.149-0.149","","","","Rate your confidence","1",""
"252.20000004768372","e","choice","left","e","experimental","1339","1394951","0.0-4.0-8.150","true","151","3.7500000000000013","","",""
"1578.2999999523163","5","confid","","","html-slider-response","1341","1397037","0.0-4.0-10.150-0.150","","","","Rate your confidence","1",""
"194.09999990463257","i","choice","right","i","experimental","1348","1399067","0.0-4.0-8.151","true","152","3.7500000000000013","","",""
"1475","5","confid","","","html-slider-response","1350","1401048","0.0-4.0-10.151-0.151","","","","Rate your confidence","1",""
"164.90000009536743","e","choice","left","e","experimental","1358","1410450","0.0-4.0-8.152","true","153","3.6500000000000012","","",""
"1544.6000001430511","5","confid","","","html-slider-response","1360","1412504","0.0-4.0-10.152-0.152","","","","Rate your confidence","1",""
"389.5","e","choice","right","i","experimental","1367","1414700","0.0-4.0-8.153","false","154","3.6500000000000012","","",""
"1599.3000001907349","5","confid","","","html-slider-response","1369","1416807","0.0-4.0-10.153-0.153","","","","Rate your confidence","1",""
"82.20000004768372","i","choice","right","i","experimental","1376","1418715","0.0-4.0-8.154","true","155","3.7500000000000013","","",""
"2236.7999999523163","4","confid","","","html-slider-response","1378","1421478","0.0-4.0-10.154-0.154","","","","Rate your confidence","1",""
"72.5","e","choice","left","e","experimental","1385","1423360","0.0-4.0-8.155","true","156","3.7500000000000013","","",""
"1593.1000001430511","3","confid","","","html-slider-response","1387","1425461","0.0-4.0-10.155-0.155","","","","Rate your confidence","1",""
"244.70000004768372","e","choice","left","e","experimental","1394","1427549","0.0-4.0-8.156","true","157","3.6500000000000012","","",""
"2076.2999999523163","5","confid","","","html-slider-response","1396","1430142","0.0-4.0-10.156-0.156","","","","Rate your confidence","1",""
"646.7999999523163","i","choice","right","i","experimental","1403","1432614","0.0-4.0-8.157","true","158","3.6500000000000012","","",""
"1383.2999999523163","5","confid","","","html-slider-response","1405","1434503","0.0-4.0-10.157-0.157","","","","Rate your confidence","1",""
"33.5","e","choice","right","i","experimental","1412","1436348","0.0-4.0-8.158","false","159","3.550000000000001","","",""
"1700.7000000476837","4","confid","","","html-slider-response","1414","1438555","0.0-4.0-10.158-0.158","","","","Rate your confidence","1",""
"244.79999995231628","e","choice","left","e","experimental","1421","1440610","0.0-4.0-8.159","true","160","3.6500000000000012","","",""
"1677.7000000476837","6","confid","","","html-slider-response","1423","1442794","0.0-4.0-10.159-0.159","","","","Rate your confidence","1",""
"402.5","e","choice","left","e","experimental","1430","1444997","0.0-4.0-8.160","true","161","3.6500000000000012","","",""
"1518.1999998092651","6","confid","","","html-slider-response","1432","1447026","0.0-4.0-10.160-0.160","","","","Rate your confidence","1",""
"295.2000000476837","e","choice","right","i","experimental","1439","1449156","0.0-4.0-8.161","false","162","3.550000000000001","","",""
"1957.6000001430511","6","confid","","","html-slider-response","1441","1451621","0.0-4.0-10.161-0.161","","","","Rate your confidence","1",""
"53.5","i","choice","right","i","experimental","1448","1453504","0.0-4.0-8.162","true","163","3.6500000000000012","","",""
"3444.5","2","confid","","","html-slider-response","1450","1457454","0.0-4.0-10.162-0.162","","","","Rate your confidence","1",""
"641.3999998569489","e","choice","left","e","experimental","1457","1459913","0.0-4.0-8.163","true","164","3.6500000000000012","","",""
"1649.2000000476837","4","confid","","","html-slider-response","1459","1462071","0.0-4.0-10.163-0.163","","","","Rate your confidence","1",""
"138.59999990463257","e","choice","left","e","experimental","1466","1464019","0.0-4.0-8.164","true","165","3.550000000000001","","",""
"1757.7000000476837","5","confid","","","html-slider-response","1468","1466287","0.0-4.0-10.164-0.164","","","","Rate your confidence","1",""
"582.0999999046326","e","choice","right","i","experimental","1475","1468692","0.0-4.0-8.165","false","166","3.550000000000001","","",""
"2509.9000000953674","4","confid","","","html-slider-response","1477","1471708","0.0-4.0-10.165-0.165","","","","Rate your confidence","1",""
"127.20000004768372","e","choice","left","e","experimental","1484","1473661","0.0-4.0-8.166","true","167","3.6500000000000012","","",""
"2377.5999999046326","5","confid","","","html-slider-response","1486","1476551","0.0-4.0-10.166-0.166","","","","Rate your confidence","1",""
"8.099999904632568","i","choice","right","i","experimental","1493","1478388","0.0-4.0-8.167","true","168","3.6500000000000012","","",""
"2976.5","3","confid","","","html-slider-response","1495","1481871","0.0-4.0-10.167-0.167","","","","Rate your confidence","1",""
"303.90000009536743","e","choice","right","i","experimental","1502","1483991","0.0-4.0-8.168","false","169","3.550000000000001","","",""
"2446.2999999523163","2","confid","","","html-slider-response","1504","1486949","0.0-4.0-10.168-0.168","","","","Rate your confidence","1",""
"256.19999980926514","e","choice","left","e","experimental","1511","1489017","0.0-4.0-8.169","true","170","3.6500000000000012","","",""
"2868.7000000476837","6","confid","","","html-slider-response","1513","1492393","0.0-4.0-10.169-0.169","","","","Rate your confidence","1",""
"276.39999985694885","e","choice","left","e","experimental","1520","1494499","0.0-4.0-8.170","true","171","3.6500000000000012","","",""
"1661.2000000476837","6","confid","","","html-slider-response","1522","1496673","0.0-4.0-10.170-0.170","","","","Rate your confidence","1",""
"1160.0999999046326","i","choice","right","i","experimental","1529","1499671","0.0-4.0-8.171","true","172","3.550000000000001","","",""
"2835.7000000476837","3","confid","","","html-slider-response","1531","1503020","0.0-4.0-10.171-0.171","","","","Rate your confidence","1",""
"392.2999999523163","e","choice","left","e","experimental","1538","1505262","0.0-4.0-8.172","true","173","3.550000000000001","","",""
"2106.2000000476837","4","confid","","","html-slider-response","1540","1507876","0.0-4.0-10.172-0.172","","","","Rate your confidence","1",""
"1059.1999998092651","i","choice","right","i","experimental","1547","1510747","0.0-4.0-8.173","true","174","3.450000000000001","","",""
"1646.7000000476837","2","confid","","","html-slider-response","1549","1512899","0.0-4.0-10.173-0.173","","","","Rate your confidence","1",""
"1298.8999998569489","i","choice","right","i","experimental","1556","1516010","0.0-4.0-8.174","true","175","3.450000000000001","","",""
"1590.7000000476837","2","confid","","","html-slider-response","1558","1518105","0.0-4.0-10.174-0.174","","","","Rate your confidence","1",""
"552","e","choice","left","e","experimental","1565","1520472","0.0-4.0-8.175","true","176","3.350000000000001","","",""
"1931.7000000476837","4","confid","","","html-slider-response","1567","1522922","0.0-4.0-10.175-0.175","","","","Rate your confidence","1",""
"430.89999985694885","e","choice","right","i","experimental","1574","1525152","0.0-4.0-8.176","false","177","3.350000000000001","","",""
"1916","2","confid","","","html-slider-response","1576","1527577","0.0-4.0-10.176-0.176","","","","Rate your confidence","1",""
"174","e","choice","left","e","experimental","1583","1529587","0.0-4.0-8.177","true","178","3.450000000000001","","",""
"2289.0999999046326","4","confid","","","html-slider-response","1585","1532386","0.0-4.0-10.177-0.177","","","","Rate your confidence","1",""
"300.89999985694885","e","choice","right","i","experimental","1592","1534514","0.0-4.0-8.178","false","179","3.450000000000001","","",""
"2151.4000000953674","5","confid","","","html-slider-response","1594","1537173","0.0-4.0-10.178-0.178","","","","Rate your confidence","1",""
"213.40000009536743","e","choice","left","e","experimental","1601","1539194","0.0-4.0-8.179","true","180","3.550000000000001","","",""
"1502.5999999046326","4","confid","","","html-slider-response","1603","1541204","0.0-4.0-10.179-0.179","","","","Rate your confidence","1",""
"224.59999990463257","e","choice","right","i","experimental","1610","1543235","0.0-4.0-8.180","false","181","3.550000000000001","","",""
"4497.099999904633","6","confid","","","html-slider-response","1612","1548247","0.0-4.0-10.180-0.180","","","","Rate your confidence","1",""
"301.7000000476837","e","choice","left","e","experimental","1619","1550360","0.0-4.0-8.181","true","182","3.6500000000000012","","",""
"1618.8999998569489","4","confid","","","html-slider-response","1621","1552500","0.0-4.0-10.181-0.181","","","","Rate your confidence","1",""
"219.20000004768372","e","choice","left","e","experimental","1628","1554531","0.0-4.0-8.182","true","183","3.6500000000000012","","",""
"1776.3000001907349","5","confid","","","html-slider-response","1630","1556814","0.0-4.0-10.182-0.182","","","","Rate your confidence","1",""
"133.39999985694885","e","choice","right","i","experimental","1637","1558760","0.0-4.0-8.183","false","184","3.550000000000001","","",""
"1742.5","5","confid","","","html-slider-response","1639","1561010","0.0-4.0-10.183-0.183","","","","Rate your confidence","1",""
"215.20000004768372","e","choice","right","i","experimental","1646","1563054","0.0-4.0-8.184","false","185","3.6500000000000012","","",""
"1555.1000001430511","2","confid","","","html-slider-response","1648","1565120","0.0-4.0-10.184-0.184","","","","Rate your confidence","1",""
"223","e","choice","left","e","experimental","1655","1567186","0.0-4.0-8.185","true","186","3.7500000000000013","","",""
"1803.4000000953674","5","confid","","","html-slider-response","1657","1569501","0.0-4.0-10.185-0.185","","","","Rate your confidence","1",""
"85.40000009536743","e","choice","right","i","experimental","1664","1571405","0.0-4.0-8.186","false","187","3.7500000000000013","","",""
"1906.2000000476837","5","confid","","","html-slider-response","1666","1573818","0.0-4.0-10.186-0.186","","","","Rate your confidence","1",""
"233.19999980926514","e","choice","left","e","experimental","1673","1575852","0.0-4.0-8.187","true","188","3.8500000000000014","","",""
"1578","5","confid","","","html-slider-response","1675","1577940","0.0-4.0-10.187-0.187","","","","Rate your confidence","1",""
"278.40000009536743","e","choice","right","i","experimental","1682","1580038","0.0-4.0-8.188","false","189","3.8500000000000014","","",""
"3109.2999999523163","5","confid","","","html-slider-response","1684","1583653","0.0-4.0-10.188-0.188","","","","Rate your confidence","1",""
"222.29999995231628","e","choice","left","e","experimental","1691","1585704","0.0-4.0-8.189","true","190","3.9500000000000015","","",""
"4043.2000000476837","6","confid","","","html-slider-response","1693","1590253","0.0-4.0-10.189-0.189","","","","Rate your confidence","1",""
"101.30000019073486","e","choice","left","e","experimental","1700","1592171","0.0-4.0-8.190","true","191","3.9500000000000015","","",""
"2506.2000000476837","6","confid","","","html-slider-response","1702","1595197","0.0-4.0-10.190-0.190","","","","Rate your confidence","1",""
"360.2999999523163","i","choice","right","i","experimental","1709","1597370","0.0-4.0-8.191","true","192","3.8500000000000014","","",""
"2559.0999999046326","3","confid","","","html-slider-response","1711","1600439","0.0-4.0-10.191-0.191","","","","Rate your confidence","1",""
"260.90000009536743","e","choice","right","i","experimental","1718","1602530","0.0-4.0-8.192","false","193","3.8500000000000014","","",""
"2804.2999999523163","2","confid","","","html-slider-response","1720","1605852","0.0-4.0-10.192-0.192","","","","Rate your confidence","1",""
"282.5","e","choice","left","e","experimental","1727","1607972","0.0-4.0-8.193","true","194","3.9500000000000015","","",""
"2036.6999998092651","4","confid","","","html-slider-response","1729","1610525","0.0-4.0-10.193-0.193","","","","Rate your confidence","1","95980"
