"rt","response","task","target_side","correct_response","trial_type","trial_index","time_elapsed","internal_node_id","correct","trial_number","n_dots","stimulus","slider_start","participant"
"1612","i","choice","right","i","practice","10","67604","0.0-4.0-8.0","true","1","4.25","","",""
"563","e","choice","left","e","practice","18","70464","0.0-4.0-8.1","true","2","4.25","","",""
"681","e","choice","left","e","practice","26","73445","0.0-4.0-8.2","true","3","3.85","","",""
"531","i","choice","right","i","practice","34","76277","0.0-4.0-8.3","true","4","3.85","","",""
"605","i","choice","left","e","practice","42","79189","0.0-4.0-8.4","false","5","3.45","","",""
"583","i","choice","right","i","practice","50","82072","0.0-4.0-8.5","true","6","3.85","","",""
"358","i","choice","right","i","practice","58","84734","0.0-4.0-8.6","true","7","3.85","","",""
"638","e","choice","left","e","practice","66","87674","0.0-4.0-8.7","true","8","3.65","","",""
"355","i","choice","left","e","practice","74","90330","0.0-4.0-8.8","false","9","3.65","","",""
"367","i","choice","right","i","practice","82","93002","0.0-4.0-8.9","true","10","3.85","","",""
"342","i","choice","right","i","practice","90","95642","0.0-4.0-8.10","true","11","3.85","","",""
"581","e","choice","left","e","practice","98","98520","0.0-4.0-8.11","true","12","3.75","","",""
"749","i","choice","left","e","practice","106","101572","0.0-4.0-8.12","false","13","3.75","","",""
"400","i","choice","right","i","practice","114","104269","0.0-4.0-8.13","true","14","3.85","","",""
"300","i","choice","right","i","practice","122","106865","0.0-4.0-8.14","true","15","3.85","","",""
"347.0000000000291","i","choice","left","e","practice","130","109514","0.0-4.0-8.15","false","16","3.75","","",""
"339","i","choice","right","i","practice","138","112157","0.0-4.0-8.16","true","17","3.85","","",""
"454","e","choice","left","e","practice","146","114912","0.0-4.0-8.17","true","18","3.85","","",""
"263","e","choice","left","e","practice","154","117474","0.0-4.0-8.18","true","19","3.75","","",""
"457","i","choice","right","i","practice","162","120228","0.0-4.0-8.19","true","20","3.75","","",""
"553","e","choice","left","e","practice","170","123083","0.0-4.0-8.20","true","21","3.65","","",""
"419.0000000000291","i","choice","right","i","practice","178","125800","0.0-4.0-8.21","true","22","3.65","","",""
"271","i","choice","right","i","practice","186","128368","0.0-4.0-8.22","true","23","3.55","","",""
"555","e","choice","left","e","practice","194","131223","0.0-4.0-8.23","true","24","3.55","","",""
"123.0000000000291","i","choice","right","i","practice","202","133645","0.0-4.0-8.24","true","25","3.4499999999999997","","",""
"544","e","choice","left","e","practice","210","136488","0.0-4.0-8.25","true","26","3.4499999999999997","","",""
"547","e","choice","left","e","experimental","221","165861","0.0-4.0-8.26","true","27","3.3499999999999996","","",""
"4617","4","confid","","","html-slider-response","223","170987","0.0-4.0-10.26-0.26","","","","Rate your confidence","1",""
"429","i","choice","right","i","experimental","230","173216","0.0-4.0-8.27","true","28","3.3499999999999996","","",""
"2438","5","confid","","","html-slider-response","232","176161","0.0-4.0-10.27-0.27","","","","Rate your confidence","1",""
"514","i","choice","right","i","experimental","239","178469","0.0-4.0-8.28","true","29","3.2499999999999996","","",""
"8342.00000000003","4","confid","","","html-slider-response","241","187318","0.0-4.0-10.28-0.28","","","","Rate your confidence","1",""
"640.9999999999709","e","choice","left","e","experimental","248","189751","0.0-4.0-8.29","true","30","3.2499999999999996","","",""
"4120.000000000029","3","confid","","","html-slider-response","250","194378","0.0-4.0-10.29-0.29","","","","Rate your confidence","1",""
"1736.0000000000582","i","choice","left","e","experimental","257","197914","0.0-4.0-8.30","false","31","3.1499999999999995","","",""
"2177","3","confid","","","html-slider-response","259","200598","0.0-4.0-10.30-0.30","","","","Rate your confidence","1",""
"359","i","choice","right","i","experimental","266","202763","0.0-4.0-8.31","true","32","3.2499999999999996","","",""
"1752","3","confid","","","html-slider-response","268","205019","0.0-4.0-10.31-0.31","","","","Rate your confidence","1",""
"483.0000000000582","i","choice","left","e","experimental","275","207301","0.0-4.0-8.32","false","33","3.2499999999999996","","",""
"1438","2","confid","","","html-slider-response","277","209245","0.0-4.0-10.32-0.32","","","","Rate your confidence","1",""
"524","i","choice","right","i","experimental","284","211563","0.0-4.0-8.33","true","34","3.3499999999999996","","",""
"2757","4","confid","","","html-slider-response","286","214825","0.0-4.0-10.33-0.33","","","","Rate your confidence","1",""
"496","e","choice","left","e","experimental","293","217113","0.0-4.0-8.34","true","35","3.3499999999999996","","",""
"3475","2","confid","","","html-slider-response","295","221094","0.0-4.0-10.34-0.34","","","","Rate your confidence","1",""
"430","i","choice","right","i","experimental","302","223326","0.0-4.0-8.35","true","36","3.2499999999999996","","",""
"2502","3","confid","","","html-slider-response","304","226335","0.0-4.0-10.35-0.35","","","","Rate your confidence","1",""
"357","i","choice","right","i","experimental","311","228488","0.0-4.0-8.36","true","37","3.2499999999999996","","",""
"1503.0000000000582","2","confid","","","html-slider-response","313","230496","0.0-4.0-10.36-0.36","","","","Rate your confidence","1",""
"373","i","choice","left","e","experimental","320","232665","0.0-4.0-8.37","false","38","3.1499999999999995","","",""
"1591.0000000000582","3","confid","","","html-slider-response","322","234763","0.0-4.0-10.37-0.37","","","","Rate your confidence","1",""
"338","i","choice","left","e","experimental","329","236896","0.0-4.0-8.38","false","39","3.2499999999999996","","",""
"2398","2","confid","","","html-slider-response","331","239801","0.0-4.0-10.38-0.38","","","","Rate your confidence","1",""
"404","i","choice","right","i","experimental","338","242007","0.0-4.0-8.39","true","40","3.3499999999999996","","",""
"2002","4","confid","","","html-slider-response","340","244516","0.0-4.0-10.39-0.39","","","","Rate your confidence","1",""
"356","i","choice","right","i","experimental","347","246664","0.0-4.0-8.40","true","41","3.3499999999999996","","",""
"1820","4","confid","","","html-slider-response","349","248990","0.0-4.0-10.40-0.40","","","","Rate your confidence","1",""
"420.0000000000582","e","choice","left","e","experimental","356","251210","0.0-4.0-8.41","true","42","3.2499999999999996","","",""
"2123","4","confid","","","html-slider-response","358","253838","0.0-4.0-10.41-0.41","","","","Rate your confidence","1",""
"440","i","choice","left","e","experimental","365","256078","0.0-4.0-8.42","false","43","3.2499999999999996","","",""
"3333","3","confid","","","html-slider-response","367","259918","0.0-4.0-10.42-0.42","","","","Rate your confidence","1",""
"587","i","choice","right","i","experimental","374","262299","0.0-4.0-8.43","true","44","3.3499999999999996","","",""
"1622","3","confid","","","html-slider-response","376","264429","0.0-4.0-10.43-0.43","","","","Rate your confidence","1",""
"509","i","choice","left","e","experimental","383","266733","0.0-4.0-8.44","false","45","3.3499999999999996","","",""
"2700","4","confid","","","html-slider-response","385","269939","0.0-4.0-10.44-0.44","","","","Rate your confidence","1",""
"374","i","choice","right","i","experimental","392","272105","0.0-4.0-8.45","true","46","3.4499999999999997","","",""
"2604","3","confid","","","html-slider-response","394","275215","0.0-4.0-10.45-0.45","","","","Rate your confidence","1",""
"429.9999999999418","i","choice","right","i","experimental","401","277436","0.0-4.0-8.46","true","47","3.4499999999999997","","",""
"1635","2","confid","","","html-slider-response","403","279575","0.0-4.0-10.46-0.46","","","","Rate your confidence","1",""
"368","i","choice","left","e","experimental","410","281735","0.0-4.0-8.47","false","48","3.3499999999999996","","",""
"1459","3","confid","","","html-slider-response","412","283700","0.0-4.0-10.47-0.47","","","","Rate your confidence","1",""
"284","i","choice","right","i","experimental","419","285784","0.0-4.0-8.48","true","49","3.4499999999999997","","",""
"1942.0000000000582","3","confid","","","html-slider-response","421","288232","0.0-4.0-10.48-0.48","","","","Rate your confidence","1",""
"278","e","choice","left","e","experimental","428","290303","0.0-4.0-8.49","true","50","3.4499999999999997","","",""
"4604.000000000058","2","confid","","","html-slider-response","430","295416","0.0-4.0-10.49-0.49","","","","Rate your confidence","1",""
"624","e","choice","left","e","experimental","437","297838","0.0-4.0-8.50","true","51","3.3499999999999996","","",""
"2020","3","confid","","","html-slider-response","439","300365","0.0-4.0-10.50-0.50","","","","Rate your confidence","1",""
"381","i","choice","right","i","experimental","446","302545","0.0-4.0-8.51","true","52","3.3499999999999996","","",""
"1769","4","confid","","","html-slider-response","448","304821","0.0-4.0-10.51-0.51","","","","Rate your confidence","1",""
"572","e","choice","left","e","experimental","455","307188","0.0-4.0-8.52","true","53","3.2499999999999996","","",""
"1551.9999999999418","3","confid","","","html-slider-response","457","309247","0.0-4.0-10.52-0.52","","","","Rate your confidence","1",""
"565.9999999999418","i","choice","right","i","experimental","464","311607","0.0-4.0-8.53","true","54","3.2499999999999996","","",""
"3620","3","confid","","","html-slider-response","466","315734","0.0-4.0-10.53-0.53","","","","Rate your confidence","1",""
"363","e","choice","left","e","experimental","473","317896","0.0-4.0-8.54","true","55","3.1499999999999995","","",""
"3592","3","confid","","","html-slider-response","475","321993","0.0-4.0-10.54-0.54","","","","Rate your confidence","1",""
"297","i","choice","right","i","experimental","482","324085","0.0-4.0-8.55","true","56","3.1499999999999995","","",""
"1437","4","confid","","","html-slider-response","484","326030","0.0-4.0-10.55-0.55","","","","Rate your confidence","1",""
"1127","e","choice","left","e","experimental","491","328950","0.0-4.0-8.56","true","57","3.0499999999999994","","",""
"2671.000000000058","3","confid","","","html-slider-response","493","332128","0.0-4.0-10.56-0.56","","","","Rate your confidence","1",""
"268","i","choice","right","i","experimental","500","334197","0.0-4.0-8.57","true","58","3.0499999999999994","","",""
"1876.0000000000582","3","confid","","","html-slider-response","502","336580","0.0-4.0-10.57-0.57","","","","Rate your confidence","1",""
"333","i","choice","right","i","experimental","509","338716","0.0-4.0-8.58","true","59","2.9499999999999993","","",""
"1837","2","confid","","","html-slider-response","511","341058","0.0-4.0-10.58-0.58","","","","Rate your confidence","1",""
"135","i","choice","left","e","experimental","518","342991","0.0-4.0-8.59","false","60","2.9499999999999993","","",""
"1620","2","confid","","","html-slider-response","520","345120","0.0-4.0-10.59-0.59","","","","Rate your confidence","1",""
"50","e","choice","left","e","experimental","527","346962","0.0-4.0-8.60","true","61","3.0499999999999994","","",""
"1633.0000000000582","3","confid","","","html-slider-response","529","349105","0.0-4.0-10.60-0.60","","","","Rate your confidence","1",""
"119","i","choice","right","i","experimental","536","351019","0.0-4.0-8.61","true","62","3.0499999999999994","","",""
"1797","4","confid","","","html-slider-response","538","353323","0.0-4.0-10.61-0.61","","","","Rate your confidence","1",""
"258.0000000000582","i","choice","left","e","experimental","545","355378","0.0-4.0-8.62","false","63","2.9499999999999993","","",""
"1567","3","confid","","","html-slider-response","547","357450","0.0-4.0-10.62-0.62","","","","Rate your confidence","1",""
"337","i","choice","right","i","experimental","554","359583","0.0-4.0-8.63","true","64","3.0499999999999994","","",""
"1631","4","confid","","","html-slider-response","556","361721","0.0-4.0-10.63-0.63","","","","Rate your confidence","1",""
"555","e","choice","right","i","experimental","563","364076","0.0-4.0-8.64","false","65","3.0499999999999994","","",""
"2207.000000000058","3","confid","","","html-slider-response","565","366789","0.0-4.0-10.64-0.64","","","","Rate your confidence","1",""
"466.0000000000582","e","choice","left","e","experimental","572","369056","0.0-4.0-8.65","true","66","3.1499999999999995","","",""
"1564","3","confid","","","html-slider-response","574","371126","0.0-4.0-10.65-0.65","","","","Rate your confidence","1",""
"278.0000000000582","i","choice","right","i","experimental","581","373199","0.0-4.0-8.66","true","67","3.1499999999999995","","",""
"1416","2","confid","","","html-slider-response","583","375123","0.0-4.0-10.66-0.66","","","","Rate your confidence","1",""
"79","i","choice","left","e","experimental","590","376996","0.0-4.0-8.67","false","68","3.0499999999999994","","",""
"2615","3","confid","","","html-slider-response","592","380119","0.0-4.0-10.67-0.67","","","","Rate your confidence","1",""
"284","i","choice","right","i","experimental","600","386636","0.0-4.0-8.68","true","69","3.1499999999999995","","",""
"2689.999999999942","3","confid","","","html-slider-response","602","389834","0.0-4.0-10.68-0.68","","","","Rate your confidence","1",""
"276.9999999999418","e","choice","left","e","experimental","609","391908","0.0-4.0-8.69","true","70","3.1499999999999995","","",""
"1677","4","confid","","","html-slider-response","611","394094","0.0-4.0-10.69-0.69","","","","Rate your confidence","1",""
"545","i","choice","left","e","experimental","618","396430","0.0-4.0-8.70","false","71","3.0499999999999994","","",""
"1394","3","confid","","","html-slider-response","620","398332","0.0-4.0-10.70-0.70","","","","Rate your confidence","1",""
"335","i","choice","right","i","experimental","627","400459","0.0-4.0-8.71","true","72","3.1499999999999995","","",""
"2166","3","confid","","","html-slider-response","629","403132","0.0-4.0-10.71-0.71","","","","Rate your confidence","1",""
"439","i","choice","left","e","experimental","636","405365","0.0-4.0-8.72","false","73","3.1499999999999995","","",""
"1611","4","confid","","","html-slider-response","638","407483","0.0-4.0-10.72-0.72","","","","Rate your confidence","1",""
"317.9999999999418","i","choice","right","i","experimental","645","409598","0.0-4.0-8.73","true","74","3.2499999999999996","","",""
"2239","4","confid","","","html-slider-response","647","412342","0.0-4.0-10.73-0.73","","","","Rate your confidence","1",""
"295.0000000000582","i","choice","right","i","experimental","654","414441","0.0-4.0-8.74","true","75","3.2499999999999996","","",""
"1410","4","confid","","","html-slider-response","656","416357","0.0-4.0-10.74-0.74","","","","Rate your confidence","1",""
"667","i","choice","left","e","experimental","663","418820","0.0-4.0-8.75","false","76","3.1499999999999995","","",""
"1626","4","confid","","","html-slider-response","665","420955","0.0-4.0-10.75-0.75","","","","Rate your confidence","1",""
"376","i","choice","left","e","experimental","672","423129","0.0-4.0-8.76","false","77","3.2499999999999996","","",""
"2089","3","confid","","","html-slider-response","674","425726","0.0-4.0-10.76-0.76","","","","Rate your confidence","1",""
"358","i","choice","right","i","experimental","681","427884","0.0-4.0-8.77","true","78","3.3499999999999996","","",""
"1965","3","confid","","","html-slider-response","683","430360","0.0-4.0-10.77-0.77","","","","Rate your confidence","1",""
"634.9999999999418","i","choice","left","e","experimental","690","432797","0.0-4.0-8.78","false","79","3.3499999999999996","","",""
"3651","3","confid","","","html-slider-response","692","436961","0.0-4.0-10.78-0.78","","","","Rate your confidence","1",""
"286","i","choice","right","i","experimental","699","439050","0.0-4.0-8.79","true","80","3.4499999999999997","","",""
"2140.000000000058","2","confid","","","html-slider-response","701","441699","0.0-4.0-10.79-0.79","","","","Rate your confidence","1",""
"374","e","choice","left","e","experimental","708","443874","0.0-4.0-8.80","true","81","3.4499999999999997","","",""
"2391.999999999942","3","confid","","","html-slider-response","710","446775","0.0-4.0-10.80-0.80","","","","Rate your confidence","1",""
"336","i","choice","right","i","experimental","717","448910","0.0-4.0-8.81","true","82","3.3499999999999996","","",""
"1272.0000000000582","3","confid","","","html-slider-response","719","450694","0.0-4.0-10.81-0.81","","","","Rate your confidence","1",""
"313.9999999999418","e","choice","left","e","experimental","726","452802","0.0-4.0-8.82","true","83","3.3499999999999996","","",""
"2074.999999999942","3","confid","","","html-slider-response","728","455385","0.0-4.0-10.82-0.82","","","","Rate your confidence","1",""
"426","i","choice","right","i","experimental","735","457609","0.0-4.0-8.83","true","84","3.2499999999999996","","",""
"1433","3","confid","","","html-slider-response","737","459548","0.0-4.0-10.83-0.83","","","","Rate your confidence","1",""
"178","i","choice","right","i","experimental","744","461523","0.0-4.0-8.84","true","85","3.2499999999999996","","",""
"3181","3","confid","","","html-slider-response","746","465211","0.0-4.0-10.84-0.84","","","","Rate your confidence","1",""
"311","i","choice","left","e","experimental","753","467317","0.0-4.0-8.85","false","86","3.1499999999999995","","",""
"1440.9999999998836","2","confid","","","html-slider-response","755","469266","0.0-4.0-10.85-0.85","","","","Rate your confidence","1",""
"139.00000000011642","e","choice","right","i","experimental","762","471200","0.0-4.0-8.86","false","87","3.2499999999999996","","",""
"1383","3","confid","","","html-slider-response","764","473091","0.0-4.0-10.86-0.86","","","","Rate your confidence","1",""
"3950","i","choice","left","e","experimental","771","478837","0.0-4.0-8.87","false","88","3.3499999999999996","","",""
"3005.9999999998836","3","confid","","","html-slider-response","773","482351","0.0-4.0-10.87-0.87","","","","Rate your confidence","1",""
"374","i","choice","right","i","experimental","780","484524","0.0-4.0-8.88","true","89","3.4499999999999997","","",""
"3020","3","confid","","","html-slider-response","782","488053","0.0-4.0-10.88-0.88","","","","Rate your confidence","1",""
"241","e","choice","left","e","experimental","789","490089","0.0-4.0-8.89","true","90","3.4499999999999997","","",""
"1575","3","confid","","","html-slider-response","791","492175","0.0-4.0-10.89-0.89","","","","Rate your confidence","1",""
"134","i","choice","left","e","experimental","798","494106","0.0-4.0-8.90","false","91","3.3499999999999996","","",""
"2257","3","confid","","","html-slider-response","800","496871","0.0-4.0-10.90-0.90","","","","Rate your confidence","1",""
"233.00000000011642","i","choice","right","i","experimental","807","498897","0.0-4.0-8.91","true","92","3.4499999999999997","","",""
"42319","3","confid","","","html-slider-response","809","541721","0.0-4.0-10.91-0.91","","","","Rate your confidence","1",""
"1460.9999999998836","e","choice","left","e","experimental","816","544982","0.0-4.0-8.92","true","93","3.4499999999999997","","",""
"3705","2","confid","","","html-slider-response","818","549193","0.0-4.0-10.92-0.92","","","","Rate your confidence","1",""
"614.9999999998836","i","choice","right","i","experimental","825","551607","0.0-4.0-8.93","true","94","3.3499999999999996","","",""
"1527","3","confid","","","html-slider-response","827","553641","0.0-4.0-10.93-0.93","","","","Rate your confidence","1",""
"1572","i","choice","left","e","experimental","834","557013","0.0-4.0-8.94","false","95","3.3499999999999996","","",""
"1871","3","confid","","","html-slider-response","836","559393","0.0-4.0-10.94-0.94","","","","Rate your confidence","1",""
"526","i","choice","right","i","experimental","843","561715","0.0-4.0-8.95","true","96","3.4499999999999997","","",""
"2889","3","confid","","","html-slider-response","845","565110","0.0-4.0-10.95-0.95","","","","Rate your confidence","1",""
"893","i","choice","right","i","experimental","852","567805","0.0-4.0-8.96","true","97","3.4499999999999997","","",""
"1806","3","confid","","","html-slider-response","854","570118","0.0-4.0-10.96-0.96","","","","Rate your confidence","1",""
"287","i","choice","left","e","experimental","861","572202","0.0-4.0-8.97","false","98","3.3499999999999996","","",""
"2200","3","confid","","","html-slider-response","863","574909","0.0-4.0-10.97-0.97","","","","Rate your confidence","1",""
"634","i","choice","right","i","experimental","870","577336","0.0-4.0-8.98","true","99","3.4499999999999997","","",""
"1759","3","confid","","","html-slider-response","872","579605","0.0-4.0-10.98-0.98","","","","Rate your confidence","1",""
"188","i","choice","left","e","experimental","879","581590","0.0-4.0-8.99","false","100","3.4499999999999997","","",""
"1651","3","confid","","","html-slider-response","881","583749","0.0-4.0-10.99-0.99","","","","Rate your confidence","1",""
"371","i","choice","right","i","experimental","888","585915","0.0-4.0-8.100","true","101","3.55","","",""
"1307.9999999998836","3","confid","","","html-slider-response","890","587731","0.0-4.0-10.100-0.100","","","","Rate your confidence","1",""
"380","e","choice","left","e","experimental","897","589906","0.0-4.0-8.101","true","102","3.55","","",""
"1496","3","confid","","","html-slider-response","899","591908","0.0-4.0-10.101-0.101","","","","Rate your confidence","1",""
"895","i","choice","right","i","experimental","906","594602","0.0-4.0-8.102","true","103","3.4499999999999997","","",""
"1503","3","confid","","","html-slider-response","908","596617","0.0-4.0-10.102-0.102","","","","Rate your confidence","1",""
"586","e","choice","left","e","experimental","915","598997","0.0-4.0-8.103","true","104","3.4499999999999997","","",""
"1967.0000000001164","4","confid","","","html-slider-response","917","601471","0.0-4.0-10.103-0.103","","","","Rate your confidence","1",""
"1260","i","choice","right","i","experimental","924","604534","0.0-4.0-8.104","true","105","3.3499999999999996","","",""
"7944.000000000116","3","confid","","","html-slider-response","926","612984","0.0-4.0-10.104-0.104","","","","Rate your confidence","1",""
"447.9999999998836","i","choice","left","e","experimental","933","615240","0.0-4.0-8.105","false","106","3.3499999999999996","","",""
"2253","3","confid","","","html-slider-response","935","618000","0.0-4.0-10.105-0.105","","","","Rate your confidence","1",""
"505","i","choice","right","i","experimental","942","620304","0.0-4.0-8.106","true","107","3.4499999999999997","","",""
"1155","3","confid","","","html-slider-response","944","621964","0.0-4.0-10.106-0.106","","","","Rate your confidence","1",""
"478","i","choice","left","e","experimental","951","624235","0.0-4.0-8.107","false","108","3.4499999999999997","","",""
"2357","2","confid","","","html-slider-response","953","627097","0.0-4.0-10.107-0.107","","","","Rate your confidence","1",""
"741.9999999998836","e","choice","left","e","experimental","960","629629","0.0-4.0-8.108","true","109","3.55","","",""
"1975.0000000001164","3","confid","","","html-slider-response","962","632114","0.0-4.0-10.108-0.108","","","","Rate your confidence","1",""
"315","i","choice","right","i","experimental","969","634224","0.0-4.0-8.109","true","110","3.55","","",""
"1619","3","confid","","","html-slider-response","971","636352","0.0-4.0-10.109-0.109","","","","Rate your confidence","1",""
"1047","i","choice","right","i","experimental","979","710132","0.0-4.0-8.110","true","111","3.4499999999999997","","",""
"3691","3","confid","","","html-slider-response","981","714332","0.0-4.0-10.110-0.110","","","","Rate your confidence","1",""
"313","i","choice","left","e","experimental","988","716443","0.0-4.0-8.111","false","112","3.4499999999999997","","",""
"4749","2","confid","","","html-slider-response","990","721699","0.0-4.0-10.111-0.111","","","","Rate your confidence","1",""
"592","e","choice","left","e","experimental","997","724088","0.0-4.0-8.112","true","113","3.55","","",""
"1590","2","confid","","","html-slider-response","999","726185","0.0-4.0-10.112-0.112","","","","Rate your confidence","1",""
"474","i","choice","right","i","experimental","1006","728450","0.0-4.0-8.113","true","114","3.55","","",""
"3019","2","confid","","","html-slider-response","1008","731976","0.0-4.0-10.113-0.113","","","","Rate your confidence","1",""
"458","e","choice","left","e","experimental","1015","734228","0.0-4.0-8.114","true","115","3.4499999999999997","","",""
"2630","3","confid","","","html-slider-response","1017","737364","0.0-4.0-10.114-0.114","","","","Rate your confidence","1",""
"774.9999999998836","i","choice","right","i","experimental","1024","739932","0.0-4.0-8.115","true","116","3.4499999999999997","","",""
"3082","3","confid","","","html-slider-response","1026","743524","0.0-4.0-10.115-0.115","","","","Rate your confidence","1",""
"516","i","choice","left","e","experimental","1033","745843","0.0-4.0-8.116","false","117","3.3499999999999996","","",""
"2952.0000000001164","3","confid","","","html-slider-response","1035","749301","0.0-4.0-10.116-0.116","","","","Rate your confidence","1",""
"540","i","choice","right","i","experimental","1042","751637","0.0-4.0-8.117","true","118","3.4499999999999997","","",""
"1698","3","confid","","","html-slider-response","1044","753843","0.0-4.0-10.117-0.117","","","","Rate your confidence","1",""
"249","i","choice","left","e","experimental","1051","755885","0.0-4.0-8.118","false","119","3.4499999999999997","","",""
"2506","2","confid","","","html-slider-response","1053","758900","0.0-4.0-10.118-0.118","","","","Rate your confidence","1",""
"2128","i","choice","right","i","experimental","1060","762826","0.0-4.0-8.119","true","120","3.55","","",""
"2369","3","confid","","","html-slider-response","1062","765701","0.0-4.0-10.119-0.119","","","","Rate your confidence","1",""
"492","i","choice","left","e","experimental","1069","767992","0.0-4.0-8.120","false","121","3.55","","",""
"1645","2","confid","","","html-slider-response","1071","770145","0.0-4.0-10.120-0.120","","","","Rate your confidence","1",""
"294","i","choice","right","i","experimental","1078","772237","0.0-4.0-8.121","true","122","3.65","","",""
"1859.0000000001164","3","confid","","","html-slider-response","1080","774603","0.0-4.0-10.121-0.121","","","","Rate your confidence","1",""
"411","i","choice","right","i","experimental","1087","776813","0.0-4.0-8.122","true","123","3.65","","",""
"2876","2","confid","","","html-slider-response","1089","780195","0.0-4.0-10.122-0.122","","","","Rate your confidence","1",""
"447","i","choice","left","e","experimental","1096","782441","0.0-4.0-8.123","false","124","3.55","","",""
"1944","3","confid","","","html-slider-response","1098","784891","0.0-4.0-10.123-0.123","","","","Rate your confidence","1",""
"256","i","choice","right","i","experimental","1105","786942","0.0-4.0-8.124","true","125","3.65","","",""
"2007","3","confid","","","html-slider-response","1107","789456","0.0-4.0-10.124-0.124","","","","Rate your confidence","1",""
"266.9999999998836","i","choice","left","e","experimental","1114","791518","0.0-4.0-8.125","false","126","3.65","","",""
"1459.9999999998836","2","confid","","","html-slider-response","1116","793486","0.0-4.0-10.125-0.125","","","","Rate your confidence","1",""
"526","i","choice","right","i","experimental","1123","795807","0.0-4.0-8.126","true","127","3.75","","",""
"4317","3","confid","","","html-slider-response","1125","800632","0.0-4.0-10.126-0.126","","","","Rate your confidence","1",""
"2034.9999999998836","i","choice","left","e","experimental","1132","804464","0.0-4.0-8.127","false","128","3.75","","",""
"3276.0000000001164","3","confid","","","html-slider-response","1134","808250","0.0-4.0-10.127-0.127","","","","Rate your confidence","1",""
"844","i","choice","right","i","experimental","1141","810891","0.0-4.0-8.128","true","129","3.85","","",""
"2051.0000000001164","3","confid","","","html-slider-response","1143","813447","0.0-4.0-10.128-0.128","","","","Rate your confidence","1",""
"487","e","choice","left","e","experimental","1150","815727","0.0-4.0-8.129","true","130","3.85","","",""
"1575","3","confid","","","html-slider-response","1152","817809","0.0-4.0-10.129-0.129","","","","Rate your confidence","1",""
"615","i","choice","right","i","experimental","1159","820224","0.0-4.0-8.130","true","131","3.75","","",""
"1853.0000000001164","2","confid","","","html-slider-response","1161","822589","0.0-4.0-10.130-0.130","","","","Rate your confidence","1",""
"431","e","choice","left","e","experimental","1168","824815","0.0-4.0-8.131","true","132","3.75","","",""
"2513","2","confid","","","html-slider-response","1170","827835","0.0-4.0-10.131-0.131","","","","Rate your confidence","1",""
"781","e","choice","left","e","experimental","1177","830419","0.0-4.0-8.132","true","133","3.65","","",""
"1865.0000000001164","3","confid","","","html-slider-response","1179","832789","0.0-4.0-10.132-0.132","","","","Rate your confidence","1",""
"587","i","choice","right","i","experimental","1186","835172","0.0-4.0-8.133","true","134","3.65","","",""
"2350","2","confid","","","html-slider-response","1188","838030","0.0-4.0-10.133-0.133","","","","Rate your confidence","1",""
"489.0000000001164","e","choice","right","i","experimental","1195","840312","0.0-4.0-8.134","false","135","3.55","","",""
"1993.0000000001164","2","confid","","","html-slider-response","1197","842813","0.0-4.0-10.134-0.134","","","","Rate your confidence","1",""
"350","e","choice","left","e","experimental","1204","844959","0.0-4.0-8.135","true","136","3.65","","",""
"3141","3","confid","","","html-slider-response","1206","848610","0.0-4.0-10.135-0.135","","","","Rate your confidence","1",""
"577","i","choice","right","i","experimental","1213","850987","0.0-4.0-8.136","true","137","3.65","","",""
"2284","3","confid","","","html-slider-response","1215","853782","0.0-4.0-10.136-0.136","","","","Rate your confidence","1",""
"3088","e","choice","left","e","experimental","1222","858667","0.0-4.0-8.137","true","138","3.55","","",""
"2552","2","confid","","","html-slider-response","1224","861728","0.0-4.0-10.137-0.137","","","","Rate your confidence","1",""
"1038","i","choice","left","e","experimental","1231","864565","0.0-4.0-8.138","false","139","3.55","","",""
"1438.9999999998836","4","confid","","","html-slider-response","1233","866510","0.0-4.0-10.138-0.138","","","","Rate your confidence","1",""
"1020","i","choice","right","i","experimental","1240","869323","0.0-4.0-8.139","true","140","3.65","","",""
"2158","3","confid","","","html-slider-response","1242","871990","0.0-4.0-10.139-0.139","","","","Rate your confidence","1",""
"1378","i","choice","right","i","experimental","1249","875167","0.0-4.0-8.140","true","141","3.65","","",""
"2702","4","confid","","","html-slider-response","1251","878375","0.0-4.0-10.140-0.140","","","","Rate your confidence","1",""
"43","e","choice","left","e","experimental","1258","880222","0.0-4.0-8.141","true","142","3.55","","",""
"1951","3","confid","","","html-slider-response","1260","882683","0.0-4.0-10.141-0.141","","","","Rate your confidence","1",""
"285.9999999998836","i","choice","right","i","experimental","1267","884764","0.0-4.0-8.142","true","143","3.55","","",""
"1521.9999999998836","4","confid","","","html-slider-response","1269","886794","0.0-4.0-10.142-0.142","","","","Rate your confidence","1",""
"51.000000000116415","e","choice","left","e","experimental","1276","888646","0.0-4.0-8.143","true","144","3.4499999999999997","","",""
"1618","3","confid","","","html-slider-response","1278","890773","0.0-4.0-10.143-0.143","","","","Rate your confidence","1",""
"290","i","choice","right","i","experimental","1285","892857","0.0-4.0-8.144","true","145","3.4499999999999997","","",""
"1637","4","confid","","","html-slider-response","1287","895004","0.0-4.0-10.144-0.144","","","","Rate your confidence","1",""
"385","i","choice","left","e","experimental","1294","897186","0.0-4.0-8.145","false","146","3.3499999999999996","","",""
"1604","3","confid","","","html-slider-response","1296","899298","0.0-4.0-10.145-0.145","","","","Rate your confidence","1",""
"584","i","choice","right","i","experimental","1303","901680","0.0-4.0-8.146","true","147","3.4499999999999997","","",""
"1489","4","confid","","","html-slider-response","1305","903678","0.0-4.0-10.146-0.146","","","","Rate your confidence","1",""
"311","e","choice","left","e","experimental","1312","905782","0.0-4.0-8.147","true","148","3.4499999999999997","","",""
"1469","3","confid","","","html-slider-response","1314","907758","0.0-4.0-10.147-0.147","","","","Rate your confidence","1",""
"275","e","choice","left","e","experimental","1321","909825","0.0-4.0-8.148","true","149","3.3499999999999996","","",""
"1590","3","confid","","","html-slider-response","1323","911923","0.0-4.0-10.148-0.148","","","","Rate your confidence","1",""
"306","i","choice","right","i","experimental","1330","914023","0.0-4.0-8.149","true","150","3.3499999999999996","","",""
"1619","3","confid","","","html-slider-response","1332","916152","0.0-4.0-10.149-0.149","","","","Rate your confidence","1",""
"341","i","choice","right","i","experimental","1339","918287","0.0-4.0-8.150","true","151","3.2499999999999996","","",""
"1809","4","confid","","","html-slider-response","1341","920602","0.0-4.0-10.150-0.150","","","","Rate your confidence","1",""
"685","e","choice","left","e","experimental","1348","923089","0.0-4.0-8.151","true","152","3.2499999999999996","","",""
"1773","4","confid","","","html-slider-response","1350","925370","0.0-4.0-10.151-0.151","","","","Rate your confidence","1",""
"448.0000000001164","e","choice","left","e","experimental","1358","929785","0.0-4.0-8.152","true","153","3.1499999999999995","","",""
"2339.9999999998836","3","confid","","","html-slider-response","1360","932634","0.0-4.0-10.152-0.152","","","","Rate your confidence","1",""
"287","e","choice","right","i","experimental","1367","934718","0.0-4.0-8.153","false","154","3.1499999999999995","","",""
"1617","3","confid","","","html-slider-response","1369","936841","0.0-4.0-10.153-0.153","","","","Rate your confidence","1",""
"313","i","choice","left","e","experimental","1376","938949","0.0-4.0-8.154","false","155","3.2499999999999996","","",""
"1509","4","confid","","","html-slider-response","1378","940965","0.0-4.0-10.154-0.154","","","","Rate your confidence","1",""
"316","i","choice","right","i","experimental","1385","943078","0.0-4.0-8.155","true","156","3.3499999999999996","","",""
"1376","3","confid","","","html-slider-response","1387","944959","0.0-4.0-10.155-0.155","","","","Rate your confidence","1",""
"272","e","choice","left","e","experimental","1394","947026","0.0-4.0-8.156","true","157","3.3499999999999996","","",""
"2194","4","confid","","","html-slider-response","1396","949727","0.0-4.0-10.156-0.156","","","","Rate your confidence","1",""
"372","i","choice","right","i","experimental","1403","951898","0.0-4.0-8.157","true","158","3.2499999999999996","","",""
"2576.0000000001164","4","confid","","","html-slider-response","1405","954981","0.0-4.0-10.157-0.157","","","","Rate your confidence","1",""
"124.00000000011642","i","choice","right","i","experimental","1412","956904","0.0-4.0-8.158","true","159","3.2499999999999996","","",""
"2163","3","confid","","","html-slider-response","1414","959573","0.0-4.0-10.158-0.158","","","","Rate your confidence","1",""
"444","i","choice","left","e","experimental","1421","961813","0.0-4.0-8.159","false","160","3.1499999999999995","","",""
"2370.0000000001164","3","confid","","","html-slider-response","1423","964690","0.0-4.0-10.159-0.159","","","","Rate your confidence","1",""
"1423","e","choice","right","i","experimental","1430","967910","0.0-4.0-8.160","false","161","3.2499999999999996","","",""
"1892","4","confid","","","html-slider-response","1432","970309","0.0-4.0-10.160-0.160","","","","Rate your confidence","1",""
"167.99999999988358","e","choice","left","e","experimental","1439","972271","0.0-4.0-8.161","true","162","3.3499999999999996","","",""
"2621.0000000001164","3","confid","","","html-slider-response","1441","975402","0.0-4.0-10.161-0.161","","","","Rate your confidence","1",""
"2645","e","choice","right","i","experimental","1448","979841","0.0-4.0-8.162","false","163","3.3499999999999996","","",""
"2557","3","confid","","","html-slider-response","1450","982905","0.0-4.0-10.162-0.162","","","","Rate your confidence","1",""
"487","i","choice","left","e","experimental","1457","985190","0.0-4.0-8.163","false","164","3.4499999999999997","","",""
"3462","3","confid","","","html-slider-response","1459","989157","0.0-4.0-10.163-0.163","","","","Rate your confidence","1",""
"1904","e","choice","left","e","experimental","1466","992858","0.0-4.0-8.164","true","165","3.55","","",""
"2218","3","confid","","","html-slider-response","1468","995585","0.0-4.0-10.164-0.164","","","","Rate your confidence","1",""
"380","i","choice","right","i","experimental","1475","997763","0.0-4.0-8.165","true","166","3.55","","",""
"1498","3","confid","","","html-slider-response","1477","999767","0.0-4.0-10.165-0.165","","","","Rate your confidence","1",""
"247","i","choice","right","i","experimental","1484","1001812","0.0-4.0-8.166","true","167","3.4499999999999997","","",""
"1410","4","confid","","","html-slider-response","1486","1003729","0.0-4.0-10.166-0.166","","","","Rate your confidence","1",""
"198","i","choice","left","e","experimental","1493","1005721","0.0-4.0-8.167","false","168","3.4499999999999997","","",""
"1499","3","confid","","","html-slider-response","1495","1007728","0.0-4.0-10.167-0.167","","","","Rate your confidence","1",""
"277","i","choice","left","e","experimental","1502","1009800","0.0-4.0-8.168","false","169","3.55","","",""
"2267","3","confid","","","html-slider-response","1504","1012573","0.0-4.0-10.168-0.168","","","","Rate your confidence","1",""
"280.00000000023283","i","choice","right","i","experimental","1511","1014649","0.0-4.0-8.169","true","170","3.65","","",""
"2573","4","confid","","","html-slider-response","1513","1017731","0.0-4.0-10.169-0.169","","","","Rate your confidence","1",""
"759.0000000002328","e","choice","right","i","experimental","1520","1020283","0.0-4.0-8.170","false","171","3.65","","",""
"2859","3","confid","","","html-slider-response","1522","1023651","0.0-4.0-10.170-0.170","","","","Rate your confidence","1",""
"516","e","choice","left","e","experimental","1529","1025965","0.0-4.0-8.171","true","172","3.75","","",""
"1744","4","confid","","","html-slider-response","1531","1028218","0.0-4.0-10.171-0.171","","","","Rate your confidence","1",""
"399","i","choice","right","i","experimental","1538","1030407","0.0-4.0-8.172","true","173","3.75","","",""
"1438","3","confid","","","html-slider-response","1540","1032354","0.0-4.0-10.172-0.172","","","","Rate your confidence","1",""
"347","i","choice","left","e","experimental","1547","1034500","0.0-4.0-8.173","false","174","3.65","","",""
"1789","4","confid","","","html-slider-response","1549","1036795","0.0-4.0-10.173-0.173","","","","Rate your confidence","1",""
"261","e","choice","left","e","experimental","1556","1038857","0.0-4.0-8.174","true","175","3.75","","",""
"1787","3","confid","","","html-slider-response","1558","1041150","0.0-4.0-10.174-0.174","","","","Rate your confidence","1",""
"211.00000000023283","i","choice","right","i","experimental","1565","1043158","0.0-4.0-8.175","true","176","3.75","","",""
"1641","4","confid","","","html-slider-response","1567","1045306","0.0-4.0-10.175-0.175","","","","Rate your confidence","1",""
"183","i","choice","right","i","experimental","1574","1047284","0.0-4.0-8.176","true","177","3.65","","",""
"1346","3","confid","","","html-slider-response","1576","1049140","0.0-4.0-10.176-0.176","","","","Rate your confidence","1",""
"239","i","choice","left","e","experimental","1583","1051172","0.0-4.0-8.177","false","178","3.65","","",""
"2216","3","confid","","","html-slider-response","1585","1053895","0.0-4.0-10.177-0.177","","","","Rate your confidence","1",""
"276","i","choice","right","i","experimental","1592","1055967","0.0-4.0-8.178","true","179","3.75","","",""
"2041","4","confid","","","html-slider-response","1594","1058518","0.0-4.0-10.178-0.178","","","","Rate your confidence","1",""
"37","e","choice","left","e","experimental","1601","1060351","0.0-4.0-8.179","true","180","3.75","","",""
"1797.0000000002328","3","confid","","","html-slider-response","1603","1062657","0.0-4.0-10.179-0.179","","","","Rate your confidence","1",""
"45","i","choice","right","i","experimental","1610","1064499","0.0-4.0-8.180","true","181","3.65","","",""
"1804.0000000002328","3","confid","","","html-slider-response","1612","1066812","0.0-4.0-10.180-0.180","","","","Rate your confidence","1",""
"1421","e","choice","left","e","experimental","1619","1070036","0.0-4.0-8.181","true","182","3.65","","",""
"1924","3","confid","","","html-slider-response","1621","1072468","0.0-4.0-10.181-0.181","","","","Rate your confidence","1",""
"230","i","choice","right","i","experimental","1628","1074500","0.0-4.0-8.182","true","183","3.55","","",""
"1562.0000000002328","3","confid","","","html-slider-response","1630","1076569","0.0-4.0-10.182-0.182","","","","Rate your confidence","1",""
"196.00000000023283","e","choice","left","e","experimental","1637","1078560","0.0-4.0-8.183","true","184","3.55","","",""
"1899","3","confid","","","html-slider-response","1639","1080967","0.0-4.0-10.183-0.183","","","","Rate your confidence","1",""
"392","e","choice","left","e","experimental","1646","1083164","0.0-4.0-8.184","true","185","3.4499999999999997","","",""
"2151","3","confid","","","html-slider-response","1648","1085824","0.0-4.0-10.184-0.184","","","","Rate your confidence","1",""
"808","i","choice","right","i","experimental","1655","1088436","0.0-4.0-8.185","true","186","3.4499999999999997","","",""
"1724","3","confid","","","html-slider-response","1657","1090665","0.0-4.0-10.185-0.185","","","","Rate your confidence","1",""
"53.99999999976717","e","choice","left","e","experimental","1664","1092518","0.0-4.0-8.186","true","187","3.3499999999999996","","",""
"1590","3","confid","","","html-slider-response","1666","1094618","0.0-4.0-10.186-0.186","","","","Rate your confidence","1",""
"154","i","choice","right","i","experimental","1673","1096574","0.0-4.0-8.187","true","188","3.3499999999999996","","",""
"2576","4","confid","","","html-slider-response","1675","1099660","0.0-4.0-10.187-0.187","","","","Rate your confidence","1",""
"8","i","choice","right","i","experimental","1682","1101462","0.0-4.0-8.188","true","189","3.2499999999999996","","",""
"1713.0000000002328","3","confid","","","html-slider-response","1684","1103684","0.0-4.0-10.188-0.188","","","","Rate your confidence","1",""
"715","i","choice","left","e","experimental","1691","1106191","0.0-4.0-8.189","false","190","3.2499999999999996","","",""
"2810","3","confid","","","html-slider-response","1693","1109508","0.0-4.0-10.189-0.189","","","","Rate your confidence","1",""
"314.99999999976717","e","choice","left","e","experimental","1700","1111624","0.0-4.0-8.190","true","191","3.3499999999999996","","",""
"2113","3","confid","","","html-slider-response","1702","1114242","0.0-4.0-10.190-0.190","","","","Rate your confidence","1",""
"1044","i","choice","right","i","experimental","1709","1117094","0.0-4.0-8.191","true","192","3.3499999999999996","","",""
"2150","4","confid","","","html-slider-response","1711","1119752","0.0-4.0-10.191-0.191","","","","Rate your confidence","1",""
"272.00000000023283","e","choice","left","e","experimental","1718","1121828","0.0-4.0-8.192","true","193","3.2499999999999996","","",""
"1430","3","confid","","","html-slider-response","1720","1123767","0.0-4.0-10.192-0.192","","","","Rate your confidence","1",""
"3","i","choice","right","i","experimental","1727","1125565","0.0-4.0-8.193","true","194","3.2499999999999996","","",""
"1532.0000000002328","4","confid","","","html-slider-response","1729","1127606","0.0-4.0-10.193-0.193","","","","Rate your confidence","1","95208"
