"rt","response","task","target_side","correct_response","trial_type","trial_index","time_elapsed","internal_node_id","correct","trial_number","n_dots","stimulus","slider_start","participant"
"576.9000000357628","e","choice","right","i","practice","10","60832","0.0-4.0-8.0","false","1","4.25","","",""
"278.39999997615814","e","choice","left","e","practice","18","63398","0.0-4.0-8.1","true","2","4.65","","",""
"339","e","choice","left","e","practice","26","66019","0.0-4.0-8.2","true","3","4.65","","",""
"190.5","i","choice","right","i","practice","34","68493","0.0-4.0-8.3","true","4","4.25","","",""
"341.69999998807907","i","choice","left","e","practice","42","71123","0.0-4.0-8.4","false","5","4.25","","",""
"297.0999999642372","i","choice","right","i","practice","50","73700","0.0-4.0-8.5","true","6","4.65","","",""
"416.0999999642372","e","choice","left","e","practice","58","76401","0.0-4.0-8.6","true","7","4.65","","",""
"364.5","i","choice","right","i","practice","66","79054","0.0-4.0-8.7","true","8","4.45","","",""
"437.7999999523163","e","choice","left","e","practice","74","81780","0.0-4.0-8.8","true","9","4.45","","",""
"302.89999997615814","i","choice","right","i","practice","82","84367","0.0-4.0-8.9","true","10","4.25","","",""
"522.2000000476837","e","choice","left","e","practice","90","87168","0.0-4.0-8.10","true","11","4.25","","",""
"281","i","choice","right","i","practice","98","89727","0.0-4.0-8.11","true","12","4.15","","",""
"344","i","choice","right","i","practice","106","92354","0.0-4.0-8.12","true","13","4.15","","",""
"470.9000000357628","i","choice","left","e","practice","114","95112","0.0-4.0-8.13","false","14","4.050000000000001","","",""
"327.0999999642372","i","choice","right","i","practice","122","97720","0.0-4.0-8.14","true","15","4.15","","",""
"548.3999999761581","e","choice","left","e","practice","130","100548","0.0-4.0-8.15","true","16","4.15","","",""
"312.7999999523163","i","choice","right","i","practice","138","103143","0.0-4.0-8.16","true","17","4.050000000000001","","",""
"262.5","e","choice","left","e","practice","146","105685","0.0-4.0-8.17","true","18","4.050000000000001","","",""
"292.89999997615814","i","choice","right","i","practice","154","108263","0.0-4.0-8.18","true","19","3.9500000000000006","","",""
"945.5","e","choice","left","e","practice","162","111492","0.0-4.0-8.19","true","20","3.9500000000000006","","",""
"457.5999999642372","i","choice","right","i","practice","170","114228","0.0-4.0-8.20","true","21","3.8500000000000005","","",""
"373.80000001192093","i","choice","left","e","practice","178","116881","0.0-4.0-8.21","false","22","3.8500000000000005","","",""
"286.5","e","choice","left","e","practice","186","119453","0.0-4.0-8.22","true","23","3.9500000000000006","","",""
"307.5","i","choice","right","i","practice","194","122038","0.0-4.0-8.23","true","24","3.9500000000000006","","",""
"334","e","choice","left","e","practice","202","124660","0.0-4.0-8.24","true","25","3.8500000000000005","","",""
"336.5","i","choice","right","i","practice","210","127279","0.0-4.0-8.25","true","26","3.8500000000000005","","",""
"626.3999999761581","i","choice","left","e","experimental","221","151005","0.0-4.0-8.26","false","27","3.7500000000000004","","",""
"3827.7000000476837","2","confid","","","html-slider-response","223","155335","0.0-4.0-10.26-0.26","","","","Rate your confidence","1",""
"490.4000000357628","i","choice","right","i","experimental","230","157603","0.0-4.0-8.27","true","28","3.8500000000000005","","",""
"2720.600000023842","4","confid","","","html-slider-response","232","160826","0.0-4.0-10.27-0.27","","","","Rate your confidence","1",""
"416.5","i","choice","right","i","experimental","239","163026","0.0-4.0-8.28","true","29","3.8500000000000005","","",""
"1723.800000011921","4","confid","","","html-slider-response","241","165254","0.0-4.0-10.28-0.28","","","","Rate your confidence","1",""
"1420.2999999523163","i","choice","left","e","experimental","248","168458","0.0-4.0-8.29","false","30","3.7500000000000004","","",""
"2428.300000011921","2","confid","","","html-slider-response","250","171389","0.0-4.0-10.29-0.29","","","","Rate your confidence","1",""
"721.2000000476837","i","choice","left","e","experimental","257","173891","0.0-4.0-8.30","false","31","3.8500000000000005","","",""
"1943.800000011921","3","confid","","","html-slider-response","259","176338","0.0-4.0-10.30-0.30","","","","Rate your confidence","1",""
"604.8000000119209","i","choice","right","i","experimental","266","178722","0.0-4.0-8.31","true","32","3.9500000000000006","","",""
"2297.599999964237","3","confid","","","html-slider-response","268","181523","0.0-4.0-10.31-0.31","","","","Rate your confidence","1",""
"613.5","e","choice","left","e","experimental","275","183924","0.0-4.0-8.32","true","33","3.9500000000000006","","",""
"1609.699999988079","2","confid","","","html-slider-response","277","186036","0.0-4.0-10.32-0.32","","","","Rate your confidence","1",""
"534.1999999880791","i","choice","right","i","experimental","284","188355","0.0-4.0-8.33","true","34","3.8500000000000005","","",""
"1964.699999988079","3","confid","","","html-slider-response","286","190823","0.0-4.0-10.33-0.33","","","","Rate your confidence","1",""
"869.4000000357628","e","choice","left","e","experimental","293","193471","0.0-4.0-8.34","true","35","3.8500000000000005","","",""
"4177.900000035763","1","confid","","","html-slider-response","295","198157","0.0-4.0-10.34-0.34","","","","Rate your confidence","1",""
"457.19999998807907","i","choice","right","i","experimental","302","200392","0.0-4.0-8.35","true","36","3.7500000000000004","","",""
"1688.699999988079","4","confid","","","html-slider-response","304","202585","0.0-4.0-10.35-0.35","","","","Rate your confidence","1",""
"753.7000000476837","i","choice","left","e","experimental","311","205124","0.0-4.0-8.36","false","37","3.7500000000000004","","",""
"1595.199999988079","1","confid","","","html-slider-response","313","207223","0.0-4.0-10.36-0.36","","","","Rate your confidence","1",""
"450.5","i","choice","right","i","experimental","320","209448","0.0-4.0-8.37","true","38","3.8500000000000005","","",""
"1920.1000000238419","3","confid","","","html-slider-response","322","211873","0.0-4.0-10.37-0.37","","","","Rate your confidence","1",""
"350.89999997615814","i","choice","right","i","experimental","329","214008","0.0-4.0-8.38","true","39","3.8500000000000005","","",""
"1596","4","confid","","","html-slider-response","331","216108","0.0-4.0-10.38-0.38","","","","Rate your confidence","1",""
"796.1000000238419","e","choice","left","e","experimental","338","218682","0.0-4.0-8.39","true","40","3.7500000000000004","","",""
"2165.100000023842","1","confid","","","html-slider-response","340","221351","0.0-4.0-10.39-0.39","","","","Rate your confidence","1",""
"1182.4000000357628","e","choice","left","e","experimental","347","224312","0.0-4.0-8.40","true","41","3.7500000000000004","","",""
"1813.4000000357628","1","confid","","","html-slider-response","349","226630","0.0-4.0-10.40-0.40","","","","Rate your confidence","1",""
"23.80000001192093","i","choice","right","i","experimental","356","228439","0.0-4.0-8.41","true","42","3.6500000000000004","","",""
"2653.7000000476837","4","confid","","","html-slider-response","358","231597","0.0-4.0-10.41-0.41","","","","Rate your confidence","1",""
"613.6000000238419","i","choice","right","i","experimental","365","233998","0.0-4.0-8.42","true","43","3.6500000000000004","","",""
"1728.1000000238419","3","confid","","","html-slider-response","367","236229","0.0-4.0-10.42-0.42","","","","Rate your confidence","1",""
"1054.300000011921","i","choice","left","e","experimental","374","239066","0.0-4.0-8.43","false","44","3.5500000000000003","","",""
"1766.5999999642372","1","confid","","","html-slider-response","376","241351","0.0-4.0-10.43-0.43","","","","Rate your confidence","1",""
"422.30000001192093","i","choice","right","i","experimental","383","243550","0.0-4.0-8.44","true","45","3.6500000000000004","","",""
"1737.300000011921","2","confid","","","html-slider-response","385","245791","0.0-4.0-10.44-0.44","","","","Rate your confidence","1",""
"604.6000000238419","e","choice","left","e","experimental","392","248174","0.0-4.0-8.45","true","46","3.6500000000000004","","",""
"2752.300000011921","1","confid","","","html-slider-response","394","251430","0.0-4.0-10.45-0.45","","","","Rate your confidence","1",""
"1330.6000000238419","i","choice","left","e","experimental","401","254546","0.0-4.0-8.46","false","47","3.5500000000000003","","",""
"1775.7999999523163","1","confid","","","html-slider-response","403","256826","0.0-4.0-10.46-0.46","","","","Rate your confidence","1",""
"513","i","choice","right","i","experimental","410","259118","0.0-4.0-8.47","true","48","3.6500000000000004","","",""
"1686.9000000357628","2","confid","","","html-slider-response","412","261309","0.0-4.0-10.47-0.47","","","","Rate your confidence","1",""
"489.5","i","choice","right","i","experimental","419","263584","0.0-4.0-8.48","true","49","3.6500000000000004","","",""
"1685.699999988079","1","confid","","","html-slider-response","421","265774","0.0-4.0-10.48-0.48","","","","Rate your confidence","1",""
"836.3000000119209","e","choice","left","e","experimental","428","268389","0.0-4.0-8.49","true","50","3.5500000000000003","","",""
"1967.2000000476837","1","confid","","","html-slider-response","430","270859","0.0-4.0-10.49-0.49","","","","Rate your confidence","1",""
"573.8000000119209","i","choice","right","i","experimental","437","273208","0.0-4.0-8.50","true","51","3.5500000000000003","","",""
"1626.8999999761581","2","confid","","","html-slider-response","439","275346","0.0-4.0-10.50-0.50","","","","Rate your confidence","1",""
"1058.699999988079","i","choice","left","e","experimental","446","278182","0.0-4.0-8.51","false","52","3.45","","",""
"2781.699999988079","1","confid","","","html-slider-response","448","281467","0.0-4.0-10.51-0.51","","","","Rate your confidence","1",""
"537.5","i","choice","left","e","experimental","455","283788","0.0-4.0-8.52","false","53","3.5500000000000003","","",""
"3549.599999964237","2","confid","","","html-slider-response","457","287841","0.0-4.0-10.52-0.52","","","","Rate your confidence","1",""
"306","i","choice","right","i","experimental","464","289926","0.0-4.0-8.53","true","54","3.6500000000000004","","",""
"2294.399999976158","1","confid","","","html-slider-response","466","292738","0.0-4.0-10.53-0.53","","","","Rate your confidence","1",""
"328.9000000357628","i","choice","right","i","experimental","473","294847","0.0-4.0-8.54","true","55","3.6500000000000004","","",""
"1564.4000000357628","2","confid","","","html-slider-response","475","296916","0.0-4.0-10.54-0.54","","","","Rate your confidence","1",""
"514","e","choice","left","e","experimental","482","299209","0.0-4.0-8.55","true","56","3.5500000000000003","","",""
"1608.3999999761581","1","confid","","","html-slider-response","484","301322","0.0-4.0-10.55-0.55","","","","Rate your confidence","1",""
"800.6999999880791","e","choice","left","e","experimental","491","303909","0.0-4.0-8.56","true","57","3.5500000000000003","","",""
"3576.399999976158","1","confid","","","html-slider-response","493","307990","0.0-4.0-10.56-0.56","","","","Rate your confidence","1",""
"388.89999997615814","i","choice","right","i","experimental","500","310159","0.0-4.0-8.57","true","58","3.45","","",""
"2055.100000023842","3","confid","","","html-slider-response","502","312718","0.0-4.0-10.57-0.57","","","","Rate your confidence","1",""
"630.6999999880791","i","choice","left","e","experimental","509","315128","0.0-4.0-8.58","false","59","3.45","","",""
"1720.5","2","confid","","","html-slider-response","511","317352","0.0-4.0-10.58-0.58","","","","Rate your confidence","1",""
"399.89999997615814","i","choice","right","i","experimental","518","319530","0.0-4.0-8.59","true","60","3.5500000000000003","","",""
"2818.899999976158","2","confid","","","html-slider-response","520","322853","0.0-4.0-10.59-0.59","","","","Rate your confidence","1",""
"482.5","i","choice","right","i","experimental","527","325113","0.0-4.0-8.60","true","61","3.5500000000000003","","",""
"2245.400000035763","3","confid","","","html-slider-response","529","327862","0.0-4.0-10.60-0.60","","","","Rate your confidence","1",""
"351.39999997615814","i","choice","left","e","experimental","536","329993","0.0-4.0-8.61","false","62","3.45","","",""
"2366.100000023842","2","confid","","","html-slider-response","538","332863","0.0-4.0-10.61-0.61","","","","Rate your confidence","1",""
"440.80000001192093","e","choice","left","e","experimental","545","335086","0.0-4.0-8.62","true","63","3.5500000000000003","","",""
"1880.800000011921","3","confid","","","html-slider-response","547","337470","0.0-4.0-10.62-0.62","","","","Rate your confidence","1",""
"303.19999998807907","i","choice","right","i","experimental","554","339553","0.0-4.0-8.63","true","64","3.5500000000000003","","",""
"2405.2000000476837","2","confid","","","html-slider-response","556","342468","0.0-4.0-10.63-0.63","","","","Rate your confidence","1",""
"465.30000001192093","i","choice","right","i","experimental","563","344712","0.0-4.0-8.64","true","65","3.45","","",""
"1378.7000000476837","2","confid","","","html-slider-response","565","346595","0.0-4.0-10.64-0.64","","","","Rate your confidence","1",""
"304","e","choice","left","e","experimental","572","348686","0.0-4.0-8.65","true","66","3.45","","",""
"1627.0999999642372","2","confid","","","html-slider-response","574","350818","0.0-4.0-10.65-0.65","","","","Rate your confidence","1",""
"1146.5","e","choice","right","i","experimental","581","353741","0.0-4.0-8.66","false","67","3.35","","",""
"1646.7000000476837","1","confid","","","html-slider-response","583","355891","0.0-4.0-10.66-0.66","","","","Rate your confidence","1",""
"682.6999999880791","e","choice","left","e","experimental","590","358358","0.0-4.0-8.67","true","68","3.45","","",""
"2766.899999976158","2","confid","","","html-slider-response","592","361628","0.0-4.0-10.67-0.67","","","","Rate your confidence","1",""
"254.19999998807907","e","choice","left","e","experimental","600","447170","0.0-4.0-8.68","true","69","3.45","","",""
"2812","4","confid","","","html-slider-response","602","450486","0.0-4.0-10.68-0.68","","","","Rate your confidence","1",""
"291.69999998807907","i","choice","right","i","experimental","609","452556","0.0-4.0-8.69","true","70","3.35","","",""
"2492.300000011921","3","confid","","","html-slider-response","611","455552","0.0-4.0-10.69-0.69","","","","Rate your confidence","1",""
"814.8999999761581","e","choice","right","i","experimental","618","458147","0.0-4.0-8.70","false","71","3.35","","",""
"1731.699999988079","1","confid","","","html-slider-response","620","460383","0.0-4.0-10.70-0.70","","","","Rate your confidence","1",""
"497.19999998807907","e","choice","left","e","experimental","627","462662","0.0-4.0-8.71","true","72","3.45","","",""
"1870","1","confid","","","html-slider-response","629","465036","0.0-4.0-10.71-0.71","","","","Rate your confidence","1",""
"463.30000001192093","e","choice","left","e","experimental","636","467282","0.0-4.0-8.72","true","73","3.45","","",""
"1601","2","confid","","","html-slider-response","638","469387","0.0-4.0-10.72-0.72","","","","Rate your confidence","1",""
"345.69999998807907","i","choice","right","i","experimental","645","471511","0.0-4.0-8.73","true","74","3.35","","",""
"2016.6000000238419","2","confid","","","html-slider-response","647","474031","0.0-4.0-10.73-0.73","","","","Rate your confidence","1",""
"376.5","i","choice","left","e","experimental","654","476187","0.0-4.0-8.74","false","75","3.35","","",""
"1628","1","confid","","","html-slider-response","656","478319","0.0-4.0-10.74-0.74","","","","Rate your confidence","1",""
"278.2999999523163","i","choice","right","i","experimental","663","480375","0.0-4.0-8.75","true","76","3.45","","",""
"2554.800000011921","2","confid","","","html-slider-response","665","483433","0.0-4.0-10.75-0.75","","","","Rate your confidence","1",""
"456.5","i","choice","left","e","experimental","672","485668","0.0-4.0-8.76","false","77","3.45","","",""
"1821.199999988079","1","confid","","","html-slider-response","674","487993","0.0-4.0-10.76-0.76","","","","Rate your confidence","1",""
"274.7999999523163","i","choice","right","i","experimental","681","490054","0.0-4.0-8.77","true","78","3.5500000000000003","","",""
"1700.300000011921","2","confid","","","html-slider-response","683","492257","0.0-4.0-10.77-0.77","","","","Rate your confidence","1",""
"279.69999998807907","i","choice","right","i","experimental","690","494317","0.0-4.0-8.78","true","79","3.5500000000000003","","",""
"2771.5","1","confid","","","html-slider-response","692","497594","0.0-4.0-10.78-0.78","","","","Rate your confidence","1",""
"604.8000000119209","i","choice","left","e","experimental","699","499978","0.0-4.0-8.79","false","80","3.45","","",""
"3822.899999976158","1","confid","","","html-slider-response","701","504304","0.0-4.0-10.79-0.79","","","","Rate your confidence","1",""
"291.7999999523163","i","choice","right","i","experimental","708","506375","0.0-4.0-8.80","true","81","3.5500000000000003","","",""
"2389.300000011921","3","confid","","","html-slider-response","710","509269","0.0-4.0-10.80-0.80","","","","Rate your confidence","1",""
"575.7000000476837","e","choice","left","e","experimental","717","511622","0.0-4.0-8.81","true","82","3.5500000000000003","","",""
"1610.300000011921","1","confid","","","html-slider-response","719","513737","0.0-4.0-10.81-0.81","","","","Rate your confidence","1",""
"277.5","i","choice","right","i","experimental","726","515790","0.0-4.0-8.82","true","83","3.45","","",""
"1746.8999999761581","2","confid","","","html-slider-response","728","518040","0.0-4.0-10.82-0.82","","","","Rate your confidence","1",""
"452.30000001192093","e","choice","left","e","experimental","735","520273","0.0-4.0-8.83","true","84","3.45","","",""
"1653.6000000238419","1","confid","","","html-slider-response","737","522431","0.0-4.0-10.83-0.83","","","","Rate your confidence","1",""
"292.30000001192093","i","choice","right","i","experimental","744","524504","0.0-4.0-8.84","true","85","3.35","","",""
"1653.3999999761581","1","confid","","","html-slider-response","746","526662","0.0-4.0-10.84-0.84","","","","Rate your confidence","1",""
"398.9000000357628","e","choice","left","e","experimental","753","528840","0.0-4.0-8.85","true","86","3.35","","",""
"1785.0999999642372","1","confid","","","html-slider-response","755","531127","0.0-4.0-10.85-0.85","","","","Rate your confidence","1",""
"133.19999998807907","i","choice","right","i","experimental","762","533047","0.0-4.0-8.86","true","87","3.25","","",""
"1410.8999999761581","2","confid","","","html-slider-response","764","534961","0.0-4.0-10.86-0.86","","","","Rate your confidence","1",""
"401.69999998807907","e","choice","left","e","experimental","771","537143","0.0-4.0-8.87","true","88","3.25","","",""
"1593.1000000238419","1","confid","","","html-slider-response","773","539239","0.0-4.0-10.87-0.87","","","","Rate your confidence","1",""
"293.30000001192093","i","choice","right","i","experimental","780","541314","0.0-4.0-8.88","true","89","3.15","","",""
"2105.199999988079","2","confid","","","html-slider-response","782","543923","0.0-4.0-10.88-0.88","","","","Rate your confidence","1",""
"1378","i","choice","left","e","experimental","789","547079","0.0-4.0-8.89","false","90","3.15","","",""
"1691.800000011921","1","confid","","","html-slider-response","791","549276","0.0-4.0-10.89-0.89","","","","Rate your confidence","1",""
"264.80000001192093","i","choice","right","i","experimental","798","551326","0.0-4.0-8.90","true","91","3.25","","",""
"1745.4000000357628","4","confid","","","html-slider-response","800","553576","0.0-4.0-10.90-0.90","","","","Rate your confidence","1",""
"321.19999998807907","i","choice","left","e","experimental","807","555679","0.0-4.0-8.91","false","92","3.25","","",""
"2710.699999988079","1","confid","","","html-slider-response","809","558893","0.0-4.0-10.91-0.91","","","","Rate your confidence","1",""
"317.10000002384186","i","choice","left","e","experimental","816","560987","0.0-4.0-8.92","false","93","3.35","","",""
"2247.300000011921","2","confid","","","html-slider-response","818","563737","0.0-4.0-10.92-0.92","","","","Rate your confidence","1",""
"346.10000002384186","i","choice","right","i","experimental","825","565861","0.0-4.0-8.93","true","94","3.45","","",""
"2170.099999964237","2","confid","","","html-slider-response","827","568534","0.0-4.0-10.93-0.93","","","","Rate your confidence","1",""
"467.89999997615814","i","choice","right","i","experimental","834","570788","0.0-4.0-8.94","true","95","3.45","","",""
"1744.300000011921","1","confid","","","html-slider-response","836","573036","0.0-4.0-10.94-0.94","","","","Rate your confidence","1",""
"303.19999998807907","i","choice","left","e","experimental","843","575127","0.0-4.0-8.95","false","96","3.35","","",""
"1596.699999988079","1","confid","","","html-slider-response","845","577227","0.0-4.0-10.95-0.95","","","","Rate your confidence","1",""
"247.5","i","choice","left","e","experimental","852","579252","0.0-4.0-8.96","false","97","3.45","","",""
"1798","1","confid","","","html-slider-response","854","581553","0.0-4.0-10.96-0.96","","","","Rate your confidence","1",""
"80.69999998807907","i","choice","right","i","experimental","861","583415","0.0-4.0-8.97","true","98","3.5500000000000003","","",""
"9615.899999976158","2","confid","","","html-slider-response","863","593534","0.0-4.0-10.97-0.97","","","","Rate your confidence","1",""
"233.80000001192093","e","choice","left","e","experimental","870","595555","0.0-4.0-8.98","true","99","3.5500000000000003","","",""
"1311.300000011921","2","confid","","","html-slider-response","872","597370","0.0-4.0-10.98-0.98","","","","Rate your confidence","1",""
"1359.800000011921","i","choice","right","i","experimental","879","600515","0.0-4.0-8.99","true","100","3.45","","",""
"1904.4000000357628","2","confid","","","html-slider-response","881","602925","0.0-4.0-10.99-0.99","","","","Rate your confidence","1",""
"596.9000000357628","i","choice","left","e","experimental","888","605313","0.0-4.0-8.100","false","101","3.45","","",""
"3524.599999964237","1","confid","","","html-slider-response","890","609352","0.0-4.0-10.100-0.100","","","","Rate your confidence","1",""
"543.1000000238419","i","choice","right","i","experimental","897","611670","0.0-4.0-8.101","true","102","3.5500000000000003","","",""
"2822.699999988079","3","confid","","","html-slider-response","899","614996","0.0-4.0-10.101-0.101","","","","Rate your confidence","1",""
"377.9000000357628","i","choice","right","i","experimental","906","617150","0.0-4.0-8.102","true","103","3.5500000000000003","","",""
"1635.1000000238419","3","confid","","","html-slider-response","908","619289","0.0-4.0-10.102-0.102","","","","Rate your confidence","1",""
"236.29999995231628","e","choice","left","e","experimental","915","621312","0.0-4.0-8.103","true","104","3.45","","",""
"2288.699999988079","2","confid","","","html-slider-response","917","624104","0.0-4.0-10.103-0.103","","","","Rate your confidence","1",""
"284","e","choice","left","e","experimental","924","626166","0.0-4.0-8.104","true","105","3.45","","",""
"1995.3999999761581","1","confid","","","html-slider-response","926","628665","0.0-4.0-10.104-0.104","","","","Rate your confidence","1",""
"194.30000001192093","i","choice","right","i","experimental","933","630636","0.0-4.0-8.105","true","106","3.35","","",""
"2073.399999976158","2","confid","","","html-slider-response","935","633214","0.0-4.0-10.105-0.105","","","","Rate your confidence","1",""
"104.39999997615814","e","choice","left","e","experimental","942","635100","0.0-4.0-8.106","true","107","3.35","","",""
"4209.699999988079","2","confid","","","html-slider-response","944","639812","0.0-4.0-10.106-0.106","","","","Rate your confidence","1",""
"281.80000001192093","i","choice","right","i","experimental","951","641881","0.0-4.0-8.107","true","108","3.25","","",""
"1785.1000000238419","1","confid","","","html-slider-response","953","644170","0.0-4.0-10.107-0.107","","","","Rate your confidence","1",""
"93","e","choice","left","e","experimental","960","646043","0.0-4.0-8.108","true","109","3.25","","",""
"1381.0999999642372","2","confid","","","html-slider-response","962","647928","0.0-4.0-10.108-0.108","","","","Rate your confidence","1",""
"74.59999996423721","i","choice","right","i","experimental","969","649782","0.0-4.0-8.109","true","110","3.15","","",""
"1781.199999988079","2","confid","","","html-slider-response","971","652067","0.0-4.0-10.109-0.109","","","","Rate your confidence","1",""
"547.3000000119209","e","choice","left","e","experimental","979","708413","0.0-4.0-8.110","true","111","3.15","","",""
"1792.4000000357628","1","confid","","","html-slider-response","981","710710","0.0-4.0-10.110-0.110","","","","Rate your confidence","1",""
"1153.699999988079","i","choice","right","i","experimental","988","713654","0.0-4.0-8.111","true","112","3.05","","",""
"1667.699999988079","1","confid","","","html-slider-response","990","715825","0.0-4.0-10.111-0.111","","","","Rate your confidence","1",""
"271.39999997615814","e","choice","left","e","experimental","997","717877","0.0-4.0-8.112","true","113","3.05","","",""
"1531.300000011921","2","confid","","","html-slider-response","999","719911","0.0-4.0-10.112-0.112","","","","Rate your confidence","1",""
"390.2000000476837","e","choice","right","i","experimental","1006","722087","0.0-4.0-8.113","false","114","2.9499999999999997","","",""
"4129.900000035763","1","confid","","","html-slider-response","1008","726720","0.0-4.0-10.113-0.113","","","","Rate your confidence","1",""
"268.10000002384186","i","choice","right","i","experimental","1015","728769","0.0-4.0-8.114","true","115","3.05","","",""
"2271.399999976158","1","confid","","","html-slider-response","1017","731545","0.0-4.0-10.114-0.114","","","","Rate your confidence","1",""
"473.19999998807907","e","choice","left","e","experimental","1024","733796","0.0-4.0-8.115","true","116","3.05","","",""
"1671.199999988079","1","confid","","","html-slider-response","1026","735978","0.0-4.0-10.115-0.115","","","","Rate your confidence","1",""
"514.2999999523163","i","choice","right","i","experimental","1033","738269","0.0-4.0-8.116","true","117","2.9499999999999997","","",""
"1729.699999988079","1","confid","","","html-slider-response","1035","740503","0.0-4.0-10.116-0.116","","","","Rate your confidence","1",""
"298.19999998807907","i","choice","left","e","experimental","1042","742585","0.0-4.0-8.117","false","118","2.9499999999999997","","",""
"2387","1","confid","","","html-slider-response","1044","745477","0.0-4.0-10.117-0.117","","","","Rate your confidence","1",""
"272","i","choice","right","i","experimental","1051","747526","0.0-4.0-8.118","true","119","3.05","","",""
"2569.699999988079","2","confid","","","html-slider-response","1053","750600","0.0-4.0-10.118-0.118","","","","Rate your confidence","1",""
"294.69999998807907","e","choice","left","e","experimental","1060","752681","0.0-4.0-8.119","true","120","3.05","","",""
"1624.1000000238419","1","confid","","","html-slider-response","1062","754809","0.0-4.0-10.119-0.119","","","","Rate your confidence","1",""
"516.5","i","choice","right","i","experimental","1069","757106","0.0-4.0-8.120","true","121","2.9499999999999997","","",""
"1670.5","1","confid","","","html-slider-response","1071","759281","0.0-4.0-10.120-0.120","","","","Rate your confidence","1",""
"268.60000002384186","e","choice","left","e","experimental","1078","761321","0.0-4.0-8.121","true","122","2.9499999999999997","","",""
"1305.0999999642372","2","confid","","","html-slider-response","1080","763129","0.0-4.0-10.121-0.121","","","","Rate your confidence","1",""
"499","i","choice","right","i","experimental","1087","765406","0.0-4.0-8.122","true","123","2.8499999999999996","","",""
"1490.800000011921","1","confid","","","html-slider-response","1089","767401","0.0-4.0-10.122-0.122","","","","Rate your confidence","1",""
"426.69999998807907","e","choice","left","e","experimental","1096","769607","0.0-4.0-8.123","true","124","2.8499999999999996","","",""
"1399.300000011921","1","confid","","","html-slider-response","1098","771512","0.0-4.0-10.123-0.123","","","","Rate your confidence","1",""
"274","i","choice","right","i","experimental","1105","773570","0.0-4.0-8.124","true","125","2.7499999999999996","","",""
"1986.3999999761581","1","confid","","","html-slider-response","1107","776061","0.0-4.0-10.124-0.124","","","","Rate your confidence","1",""
"458.2999999523163","e","choice","left","e","experimental","1114","778298","0.0-4.0-8.125","true","126","2.7499999999999996","","",""
"2676.399999976158","1","confid","","","html-slider-response","1116","781478","0.0-4.0-10.125-0.125","","","","Rate your confidence","1",""
"457","i","choice","right","i","experimental","1123","783714","0.0-4.0-8.126","true","127","2.6499999999999995","","",""
"1645.8999999761581","1","confid","","","html-slider-response","1125","785863","0.0-4.0-10.126-0.126","","","","Rate your confidence","1",""
"298.2999999523163","e","choice","left","e","experimental","1132","787950","0.0-4.0-8.127","true","128","2.6499999999999995","","",""
"2126","1","confid","","","html-slider-response","1134","790580","0.0-4.0-10.127-0.127","","","","Rate your confidence","1",""
"256.60000002384186","i","choice","right","i","experimental","1141","792623","0.0-4.0-8.128","true","129","2.5499999999999994","","",""
"1683.5","1","confid","","","html-slider-response","1143","794810","0.0-4.0-10.128-0.128","","","","Rate your confidence","1",""
"686.8000000119209","e","choice","left","e","experimental","1150","797282","0.0-4.0-8.129","true","130","2.5499999999999994","","",""
"2029.699999988079","1","confid","","","html-slider-response","1152","799816","0.0-4.0-10.129-0.129","","","","Rate your confidence","1",""
"268.60000002384186","i","choice","right","i","experimental","1159","801861","0.0-4.0-8.130","true","131","2.4499999999999993","","",""
"2021.199999988079","2","confid","","","html-slider-response","1161","804386","0.0-4.0-10.130-0.130","","","","Rate your confidence","1",""
"458.10000002384186","e","choice","left","e","experimental","1168","806629","0.0-4.0-8.131","true","132","2.4499999999999993","","",""
"1771.199999988079","1","confid","","","html-slider-response","1170","808904","0.0-4.0-10.131-0.131","","","","Rate your confidence","1",""
"280.69999998807907","i","choice","left","e","experimental","1177","810964","0.0-4.0-8.132","false","133","2.349999999999999","","",""
"4590.300000011921","2","confid","","","html-slider-response","1179","816064","0.0-4.0-10.132-0.132","","","","Rate your confidence","1",""
"303.39999997615814","i","choice","right","i","experimental","1186","818145","0.0-4.0-8.133","true","134","2.4499999999999993","","",""
"1866.699999988079","2","confid","","","html-slider-response","1188","820516","0.0-4.0-10.133-0.133","","","","Rate your confidence","1",""
"292.4000000357628","i","choice","left","e","experimental","1195","822589","0.0-4.0-8.134","false","135","2.4499999999999993","","",""
"1724","2","confid","","","html-slider-response","1197","824817","0.0-4.0-10.134-0.134","","","","Rate your confidence","1",""
"225.60000002384186","i","choice","right","i","experimental","1204","826822","0.0-4.0-8.135","true","136","2.5499999999999994","","",""
"2463.300000011921","2","confid","","","html-slider-response","1206","829789","0.0-4.0-10.135-0.135","","","","Rate your confidence","1",""
"339.10000002384186","e","choice","left","e","experimental","1213","831906","0.0-4.0-8.136","true","137","2.5499999999999994","","",""
"2818.400000035763","1","confid","","","html-slider-response","1215","835228","0.0-4.0-10.136-0.136","","","","Rate your confidence","1",""
"120.5","i","choice","right","i","experimental","1222","837130","0.0-4.0-8.137","true","138","2.4499999999999993","","",""
"2391.100000023842","2","confid","","","html-slider-response","1224","840026","0.0-4.0-10.137-0.137","","","","Rate your confidence","1",""
"459.69999998807907","i","choice","right","i","experimental","1231","842267","0.0-4.0-8.138","true","139","2.4499999999999993","","",""
"1573.4000000357628","2","confid","","","html-slider-response","1233","844345","0.0-4.0-10.138-0.138","","","","Rate your confidence","1",""
"351.89999997615814","e","choice","left","e","experimental","1240","846478","0.0-4.0-8.139","true","140","2.349999999999999","","",""
"2167.899999976158","2","confid","","","html-slider-response","1242","849149","0.0-4.0-10.139-0.139","","","","Rate your confidence","1",""
"427.4000000357628","e","choice","right","i","experimental","1249","851361","0.0-4.0-8.140","false","141","2.349999999999999","","",""
"1954.3999999761581","2","confid","","","html-slider-response","1251","853820","0.0-4.0-10.140-0.140","","","","Rate your confidence","1",""
"438.4000000357628","e","choice","left","e","experimental","1258","856039","0.0-4.0-8.141","true","142","2.4499999999999993","","",""
"2361.800000011921","1","confid","","","html-slider-response","1260","858905","0.0-4.0-10.141-0.141","","","","Rate your confidence","1",""
"312.4000000357628","i","choice","right","i","experimental","1267","860992","0.0-4.0-8.142","true","143","2.4499999999999993","","",""
"1754.5","1","confid","","","html-slider-response","1269","863250","0.0-4.0-10.142-0.142","","","","Rate your confidence","1",""
"258.39999997615814","i","choice","left","e","experimental","1276","865292","0.0-4.0-8.143","false","144","2.349999999999999","","",""
"3576.300000011921","2","confid","","","html-slider-response","1278","869372","0.0-4.0-10.143-0.143","","","","Rate your confidence","1",""
"274.5","e","choice","right","i","experimental","1285","871439","0.0-4.0-8.144","false","145","2.4499999999999993","","",""
"2669.2999999523163","2","confid","","","html-slider-response","1287","874613","0.0-4.0-10.144-0.144","","","","Rate your confidence","1",""
"431.89999997615814","i","choice","left","e","experimental","1294","876832","0.0-4.0-8.145","false","146","2.5499999999999994","","",""
"1935","1","confid","","","html-slider-response","1296","879272","0.0-4.0-10.145-0.145","","","","Rate your confidence","1",""
"295.69999998807907","i","choice","right","i","experimental","1303","881347","0.0-4.0-8.146","true","147","2.6499999999999995","","",""
"2496.100000023842","1","confid","","","html-slider-response","1305","884348","0.0-4.0-10.146-0.146","","","","Rate your confidence","1",""
"250.89999997615814","i","choice","left","e","experimental","1312","886378","0.0-4.0-8.147","false","148","2.6499999999999995","","",""
"1541.300000011921","1","confid","","","html-slider-response","1314","888423","0.0-4.0-10.147-0.147","","","","Rate your confidence","1",""
"261.80000001192093","e","choice","left","e","experimental","1321","890462","0.0-4.0-8.148","true","149","2.7499999999999996","","",""
"1595.199999988079","1","confid","","","html-slider-response","1323","892561","0.0-4.0-10.148-0.148","","","","Rate your confidence","1",""
"257.4000000357628","i","choice","right","i","experimental","1330","894604","0.0-4.0-8.149","true","150","2.7499999999999996","","",""
"1680","1","confid","","","html-slider-response","1332","896788","0.0-4.0-10.149-0.149","","","","Rate your confidence","1",""
"348.9000000357628","i","choice","right","i","experimental","1339","898916","0.0-4.0-8.150","true","151","2.6499999999999995","","",""
"1712.8999999761581","1","confid","","","html-slider-response","1341","901132","0.0-4.0-10.150-0.150","","","","Rate your confidence","1",""
"295.69999998807907","i","choice","left","e","experimental","1348","903208","0.0-4.0-8.151","false","152","2.6499999999999995","","",""
"1818.800000011921","1","confid","","","html-slider-response","1350","905530","0.0-4.0-10.151-0.151","","","","Rate your confidence","1",""
"475","i","choice","right","i","experimental","1358","911910","0.0-4.0-8.152","true","153","2.7499999999999996","","",""
"1611.699999988079","2","confid","","","html-slider-response","1360","914027","0.0-4.0-10.152-0.152","","","","Rate your confidence","1",""
"308.5","e","choice","left","e","experimental","1367","916120","0.0-4.0-8.153","true","154","2.7499999999999996","","",""
"1729.1000000238419","2","confid","","","html-slider-response","1369","918353","0.0-4.0-10.153-0.153","","","","Rate your confidence","1",""
"271.39999997615814","i","choice","right","i","experimental","1376","920404","0.0-4.0-8.154","true","155","2.6499999999999995","","",""
"1951.1000000238419","1","confid","","","html-slider-response","1378","922859","0.0-4.0-10.154-0.154","","","","Rate your confidence","1",""
"268.19999998807907","i","choice","left","e","experimental","1385","924904","0.0-4.0-8.155","false","156","2.6499999999999995","","",""
"1631","1","confid","","","html-slider-response","1387","927039","0.0-4.0-10.155-0.155","","","","Rate your confidence","1",""
"307.2000000476837","i","choice","right","i","experimental","1394","929124","0.0-4.0-8.156","true","157","2.7499999999999996","","",""
"2900.399999976158","2","confid","","","html-slider-response","1396","932529","0.0-4.0-10.156-0.156","","","","Rate your confidence","1",""
"330","i","choice","left","e","experimental","1403","934643","0.0-4.0-8.157","false","158","2.7499999999999996","","",""
"2583.399999976158","1","confid","","","html-slider-response","1405","937731","0.0-4.0-10.157-0.157","","","","Rate your confidence","1",""
"337.69999998807907","i","choice","right","i","experimental","1412","939861","0.0-4.0-8.158","true","159","2.8499999999999996","","",""
"2687","2","confid","","","html-slider-response","1414","943054","0.0-4.0-10.158-0.158","","","","Rate your confidence","1",""
"404","i","choice","left","e","experimental","1421","945229","0.0-4.0-8.159","false","160","2.8499999999999996","","",""
"1726.199999988079","1","confid","","","html-slider-response","1423","947460","0.0-4.0-10.159-0.159","","","","Rate your confidence","1",""
"261.2000000476837","i","choice","right","i","experimental","1430","949498","0.0-4.0-8.160","true","161","2.9499999999999997","","",""
"2021.5999999642372","3","confid","","","html-slider-response","1432","952024","0.0-4.0-10.160-0.160","","","","Rate your confidence","1",""
"273.19999998807907","i","choice","left","e","experimental","1439","954078","0.0-4.0-8.161","false","162","2.9499999999999997","","",""
"1710.8999999761581","2","confid","","","html-slider-response","1441","956293","0.0-4.0-10.161-0.161","","","","Rate your confidence","1",""
"278.30000001192093","i","choice","right","i","experimental","1448","958356","0.0-4.0-8.162","true","163","3.05","","",""
"1368.3999999761581","2","confid","","","html-slider-response","1450","960229","0.0-4.0-10.162-0.162","","","","Rate your confidence","1",""
"293.89999997615814","i","choice","left","e","experimental","1457","962302","0.0-4.0-8.163","false","164","3.05","","",""
"1825.0999999642372","1","confid","","","html-slider-response","1459","964631","0.0-4.0-10.163-0.163","","","","Rate your confidence","1",""
"315.39999997615814","i","choice","right","i","experimental","1466","966725","0.0-4.0-8.164","true","165","3.15","","",""
"1689.199999988079","1","confid","","","html-slider-response","1468","968919","0.0-4.0-10.164-0.164","","","","Rate your confidence","1",""
"470.89999997615814","i","choice","left","e","experimental","1475","971170","0.0-4.0-8.165","false","166","3.15","","",""
"1621.4000000357628","1","confid","","","html-slider-response","1477","973296","0.0-4.0-10.165-0.165","","","","Rate your confidence","1",""
"364.80000001192093","i","choice","right","i","experimental","1484","975446","0.0-4.0-8.166","true","167","3.25","","",""
"1913","2","confid","","","html-slider-response","1486","977864","0.0-4.0-10.166-0.166","","","","Rate your confidence","1",""
"401.19999998807907","e","choice","left","e","experimental","1493","980041","0.0-4.0-8.167","true","168","3.25","","",""
"1465.5","1","confid","","","html-slider-response","1495","982011","0.0-4.0-10.167-0.167","","","","Rate your confidence","1",""
"1655.0999999642372","i","choice","right","i","experimental","1502","985447","0.0-4.0-8.168","true","169","3.15","","",""
"1539.5","1","confid","","","html-slider-response","1504","987491","0.0-4.0-10.168-0.168","","","","Rate your confidence","1",""
"345.69999998807907","e","choice","left","e","experimental","1511","989617","0.0-4.0-8.169","true","170","3.15","","",""
"1766.5","1","confid","","","html-slider-response","1513","991888","0.0-4.0-10.169-0.169","","","","Rate your confidence","1",""
"852.7000000476837","e","choice","left","e","experimental","1520","994519","0.0-4.0-8.170","true","171","3.05","","",""
"1525.3999999761581","1","confid","","","html-slider-response","1522","996549","0.0-4.0-10.170-0.170","","","","Rate your confidence","1",""
"260.39999997615814","i","choice","right","i","experimental","1529","998597","0.0-4.0-8.171","true","172","3.05","","",""
"1757.699999988079","2","confid","","","html-slider-response","1531","1000858","0.0-4.0-10.171-0.171","","","","Rate your confidence","1",""
"421","e","choice","left","e","experimental","1538","1003059","0.0-4.0-8.172","true","173","2.9499999999999997","","",""
"2152.199999988079","2","confid","","","html-slider-response","1540","1005715","0.0-4.0-10.172-0.172","","","","Rate your confidence","1",""
"268.69999998807907","i","choice","right","i","experimental","1547","1007765","0.0-4.0-8.173","true","174","2.9499999999999997","","",""
"3128.300000011921","1","confid","","","html-slider-response","1549","1011398","0.0-4.0-10.173-0.173","","","","Rate your confidence","1",""
"616.6999999880791","i","choice","right","i","experimental","1556","1013793","0.0-4.0-8.174","true","175","2.8499999999999996","","",""
"2441","1","confid","","","html-slider-response","1558","1016738","0.0-4.0-10.174-0.174","","","","Rate your confidence","1",""
"489.69999998807907","e","choice","left","e","experimental","1565","1019015","0.0-4.0-8.175","true","176","2.8499999999999996","","",""
"2071.5","2","confid","","","html-slider-response","1567","1021592","0.0-4.0-10.175-0.175","","","","Rate your confidence","1",""
"471.5","e","choice","left","e","experimental","1574","1023850","0.0-4.0-8.176","true","177","2.7499999999999996","","",""
"1935.5","1","confid","","","html-slider-response","1576","1026290","0.0-4.0-10.176-0.176","","","","Rate your confidence","1",""
"272","i","choice","right","i","experimental","1583","1028341","0.0-4.0-8.177","true","178","2.7499999999999996","","",""
"2601.699999988079","1","confid","","","html-slider-response","1585","1031447","0.0-4.0-10.177-0.177","","","","Rate your confidence","1",""
"332.60000002384186","i","choice","left","e","experimental","1592","1033559","0.0-4.0-8.178","false","179","2.6499999999999995","","",""
"1914.7999999523163","1","confid","","","html-slider-response","1594","1035979","0.0-4.0-10.178-0.178","","","","Rate your confidence","1",""
"392.5","i","choice","right","i","experimental","1601","1038160","0.0-4.0-8.179","true","180","2.7499999999999996","","",""
"1556.3999999761581","1","confid","","","html-slider-response","1603","1040220","0.0-4.0-10.179-0.179","","","","Rate your confidence","1",""
"280.5999999642372","i","choice","left","e","experimental","1610","1042283","0.0-4.0-8.180","false","181","2.7499999999999996","","",""
"1996.5","1","confid","","","html-slider-response","1612","1044784","0.0-4.0-10.180-0.180","","","","Rate your confidence","1",""
"559.5999999642372","e","choice","right","i","experimental","1619","1047125","0.0-4.0-8.181","false","182","2.8499999999999996","","",""
"3386","2","confid","","","html-slider-response","1621","1051014","0.0-4.0-10.181-0.181","","","","Rate your confidence","1",""
"470.9000000357628","e","choice","left","e","experimental","1628","1053265","0.0-4.0-8.182","true","183","2.9499999999999997","","",""
"1527.5","1","confid","","","html-slider-response","1630","1055297","0.0-4.0-10.182-0.182","","","","Rate your confidence","1",""
"292","e","choice","right","i","experimental","1637","1057373","0.0-4.0-8.183","false","184","2.9499999999999997","","",""
"1543","1","confid","","","html-slider-response","1639","1059420","0.0-4.0-10.183-0.183","","","","Rate your confidence","1",""
"694.8000000119209","e","choice","left","e","experimental","1646","1061899","0.0-4.0-8.184","true","185","3.05","","",""
"2518.199999988079","2","confid","","","html-slider-response","1648","1064921","0.0-4.0-10.184-0.184","","","","Rate your confidence","1",""
"279","i","choice","right","i","experimental","1655","1066985","0.0-4.0-8.185","true","186","3.05","","",""
"1808.8999999761581","1","confid","","","html-slider-response","1657","1069299","0.0-4.0-10.185-0.185","","","","Rate your confidence","1",""
"647.5999999642372","e","choice","right","i","experimental","1664","1071728","0.0-4.0-8.186","false","187","2.9499999999999997","","",""
"1659.2999999523163","2","confid","","","html-slider-response","1666","1073898","0.0-4.0-10.186-0.186","","","","Rate your confidence","1",""
"253.69999998807907","i","choice","left","e","experimental","1673","1075932","0.0-4.0-8.187","false","188","3.05","","",""
"1791.7000000476837","2","confid","","","html-slider-response","1675","1078228","0.0-4.0-10.187-0.187","","","","Rate your confidence","1",""
"309.30000001192093","i","choice","left","e","experimental","1682","1080321","0.0-4.0-8.188","false","189","3.15","","",""
"1659","1","confid","","","html-slider-response","1684","1082484","0.0-4.0-10.188-0.188","","","","Rate your confidence","1",""
"771.6999999880791","i","choice","right","i","experimental","1691","1085041","0.0-4.0-8.189","true","190","3.25","","",""
"1894.6000000238419","1","confid","","","html-slider-response","1693","1087440","0.0-4.0-10.189-0.189","","","","Rate your confidence","1",""
"425.69999998807907","e","choice","left","e","experimental","1700","1089649","0.0-4.0-8.190","true","191","3.25","","",""
"1472.800000011921","1","confid","","","html-slider-response","1702","1091625","0.0-4.0-10.190-0.190","","","","Rate your confidence","1",""
"477.60000002384186","i","choice","right","i","experimental","1709","1093886","0.0-4.0-8.191","true","192","3.15","","",""
"1906","2","confid","","","html-slider-response","1711","1096303","0.0-4.0-10.191-0.191","","","","Rate your confidence","1",""
"408.2999999523163","e","choice","right","i","experimental","1718","1098490","0.0-4.0-8.192","false","193","3.15","","",""
"1664.2000000476837","2","confid","","","html-slider-response","1720","1100660","0.0-4.0-10.192-0.192","","","","Rate your confidence","1",""
"317.39999997615814","e","choice","left","e","experimental","1727","1102766","0.0-4.0-8.193","true","194","3.25","","",""
"1738.0999999642372","1","confid","","","html-slider-response","1729","1105008","0.0-4.0-10.193-0.193","","","","Rate your confidence","1","79625"
