"rt","response","task","target_side","correct_response","trial_type","trial_index","time_elapsed","internal_node_id","correct","trial_number","n_dots","stimulus","slider_start","participant"
"2959.399999856949","i","choice","right","i","practice","10","53824","0.0-4.0-8.0","true","1","4.25","","",""
"547.1999998092651","e","choice","left","e","practice","18","56662","0.0-4.0-8.1","true","2","4.25","","",""
"192.20000004768372","i","choice","right","i","practice","26","59135","0.0-4.0-8.2","true","3","3.85","","",""
"514.1999998092651","e","choice","left","e","practice","34","61939","0.0-4.0-8.3","true","4","3.85","","",""
"373.2999999523163","e","choice","left","e","practice","42","64596","0.0-4.0-8.4","true","5","3.45","","",""
"4969.5","e","choice","right","i","practice","50","71849","0.0-4.0-8.5","false","6","3.45","","",""
"605.9000000953674","i","choice","right","i","practice","58","74740","0.0-4.0-8.6","true","7","3.6500000000000004","","",""
"422.90000009536743","i","choice","left","e","practice","66","77446","0.0-4.0-8.7","false","8","3.6500000000000004","","",""
"1391","e","choice","right","i","practice","74","81116","0.0-4.0-8.8","false","9","3.8500000000000005","","",""
"37.40000009536743","e","choice","left","e","practice","82","83437","0.0-4.0-8.9","true","10","4.050000000000001","","",""
"578.7000000476837","i","choice","right","i","practice","90","86301","0.0-4.0-8.10","true","11","4.050000000000001","","",""
"716","e","choice","left","e","practice","98","89339","0.0-4.0-8.11","true","12","3.9500000000000006","","",""
"89.5","i","choice","right","i","practice","106","91712","0.0-4.0-8.12","true","13","3.9500000000000006","","",""
"637.0999999046326","i","choice","left","e","practice","114","94633","0.0-4.0-8.13","false","14","3.8500000000000005","","",""
"455.2999999523163","i","choice","left","e","practice","122","97385","0.0-4.0-8.14","false","15","3.9500000000000006","","",""
"164.40000009536743","i","choice","right","i","practice","130","99835","0.0-4.0-8.15","true","16","4.050000000000001","","",""
"134.70000004768372","i","choice","right","i","practice","138","102255","0.0-4.0-8.16","true","17","4.050000000000001","","",""
"54.700000047683716","i","choice","left","e","practice","146","104608","0.0-4.0-8.17","false","18","3.9500000000000006","","",""
"0.7999999523162842","i","choice","right","i","practice","154","106903","0.0-4.0-8.18","true","19","4.050000000000001","","",""
"213.79999995231628","e","choice","left","e","practice","162","109411","0.0-4.0-8.19","true","20","4.050000000000001","","",""
"726.2999999523163","e","choice","left","e","practice","170","112429","0.0-4.0-8.20","true","21","3.9500000000000006","","",""
"24","e","choice","right","i","practice","178","114738","0.0-4.0-8.21","false","22","3.9500000000000006","","",""
"44.200000047683716","i","choice","right","i","practice","186","117067","0.0-4.0-8.22","true","23","4.050000000000001","","",""
"0.7999999523162842","e","choice","left","e","practice","194","119362","0.0-4.0-8.23","true","24","4.050000000000001","","",""
"807.7000000476837","i","choice","right","i","practice","202","122463","0.0-4.0-8.24","true","25","3.9500000000000006","","",""
"626.1999998092651","i","choice","left","e","practice","210","125375","0.0-4.0-8.25","false","26","3.9500000000000006","","",""
"657.0999999046326","e","choice","left","e","experimental","221","143832","0.0-4.0-8.26","true","27","4.050000000000001","","",""
"4948.700000047684","3","confid","","","html-slider-response","223","149285","0.0-4.0-10.26-0.26","","","","Rate your confidence","1",""
"797.5999999046326","i","choice","right","i","experimental","230","151867","0.0-4.0-8.27","true","28","4.050000000000001","","",""
"3002.899999856949","4","confid","","","html-slider-response","232","155374","0.0-4.0-10.27-0.27","","","","Rate your confidence","1",""
"433.59999990463257","e","choice","left","e","experimental","239","157599","0.0-4.0-8.28","true","29","3.9500000000000006","","",""
"2257.9000000953674","5","confid","","","html-slider-response","241","160359","0.0-4.0-10.28-0.28","","","","Rate your confidence","1",""
"719.5999999046326","i","choice","right","i","experimental","248","162866","0.0-4.0-8.29","true","30","3.9500000000000006","","",""
"1881.7000000476837","4","confid","","","html-slider-response","250","165250","0.0-4.0-10.29-0.29","","","","Rate your confidence","1",""
"890.7000000476837","e","choice","left","e","experimental","257","167930","0.0-4.0-8.30","true","31","3.8500000000000005","","",""
"2148.7000000476837","3","confid","","","html-slider-response","259","170582","0.0-4.0-10.30-0.30","","","","Rate your confidence","1",""
"219.90000009536743","i","choice","right","i","experimental","266","172583","0.0-4.0-8.31","true","32","3.8500000000000005","","",""
"1459.6999998092651","4","confid","","","html-slider-response","268","174556","0.0-4.0-10.31-0.31","","","","Rate your confidence","1",""
"711.9000000953674","i","choice","right","i","experimental","275","177052","0.0-4.0-8.32","true","33","3.7500000000000004","","",""
"3418","3","confid","","","html-slider-response","277","180977","0.0-4.0-10.32-0.32","","","","Rate your confidence","1",""
"299.19999980926514","i","choice","left","e","experimental","284","183068","0.0-4.0-8.33","false","34","3.7500000000000004","","",""
"2591.2000000476837","3","confid","","","html-slider-response","286","186161","0.0-4.0-10.33-0.33","","","","Rate your confidence","1",""
"537.0999999046326","i","choice","left","e","experimental","293","188487","0.0-4.0-8.34","false","35","3.8500000000000005","","",""
"1878.2000000476837","3","confid","","","html-slider-response","295","190869","0.0-4.0-10.34-0.34","","","","Rate your confidence","1",""
"1122.5","e","choice","right","i","experimental","302","193772","0.0-4.0-8.35","false","36","3.9500000000000006","","",""
"14719.199999809265","3","confid","","","html-slider-response","304","208995","0.0-4.0-10.35-0.35","","","","Rate your confidence","1",""
"460.5","i","choice","left","e","experimental","311","211246","0.0-4.0-8.36","false","37","4.050000000000001","","",""
"2623.5999999046326","4","confid","","","html-slider-response","313","214375","0.0-4.0-10.36-0.36","","","","Rate your confidence","1",""
"385.10000014305115","i","choice","right","i","experimental","320","216549","0.0-4.0-8.37","true","38","4.15","","",""
"3246.7000000476837","3","confid","","","html-slider-response","322","220298","0.0-4.0-10.37-0.37","","","","Rate your confidence","1",""
"8.800000190734863","i","choice","right","i","experimental","329","222093","0.0-4.0-8.38","true","39","4.15","","",""
"2800.5","4","confid","","","html-slider-response","331","225397","0.0-4.0-10.38-0.38","","","","Rate your confidence","1",""
"586.2999999523163","e","choice","left","e","experimental","338","227779","0.0-4.0-8.39","true","40","4.050000000000001","","",""
"2286.0999999046326","3","confid","","","html-slider-response","340","230569","0.0-4.0-10.39-0.39","","","","Rate your confidence","1",""
"271.2999999523163","i","choice","left","e","experimental","347","232631","0.0-4.0-8.40","false","41","4.050000000000001","","",""
"2751.2000000476837","3","confid","","","html-slider-response","349","235887","0.0-4.0-10.40-0.40","","","","Rate your confidence","1",""
"23.799999952316284","i","choice","right","i","experimental","356","237707","0.0-4.0-8.41","true","42","4.15","","",""
"27853.39999985695","5","confid","","","html-slider-response","358","266065","0.0-4.0-10.41-0.41","","","","Rate your confidence","1",""
"976.5","i","choice","right","i","experimental","365","268823","0.0-4.0-8.42","true","43","4.15","","",""
"5565.099999904633","3","confid","","","html-slider-response","367","274892","0.0-4.0-10.42-0.42","","","","Rate your confidence","1",""
"447","i","choice","left","e","experimental","374","277119","0.0-4.0-8.43","false","44","4.050000000000001","","",""
"3689.600000143051","3","confid","","","html-slider-response","376","281312","0.0-4.0-10.43-0.43","","","","Rate your confidence","1",""
"527.5","e","choice","left","e","experimental","383","283618","0.0-4.0-8.44","true","45","4.15","","",""
"3733.0999999046326","3","confid","","","html-slider-response","385","287854","0.0-4.0-10.44-0.44","","","","Rate your confidence","1",""
"181.70000004768372","i","choice","right","i","experimental","392","289823","0.0-4.0-8.45","true","46","4.15","","",""
"2567.7000000476837","6","confid","","","html-slider-response","394","292893","0.0-4.0-10.45-0.45","","","","Rate your confidence","1",""
"457.2999999523163","i","choice","right","i","experimental","401","295153","0.0-4.0-8.46","true","47","4.050000000000001","","",""
"2063.0999999046326","6","confid","","","html-slider-response","403","297722","0.0-4.0-10.46-0.46","","","","Rate your confidence","1",""
"382.5","e","choice","left","e","experimental","410","299891","0.0-4.0-8.47","true","48","4.050000000000001","","",""
"1634.5999999046326","4","confid","","","html-slider-response","412","302031","0.0-4.0-10.47-0.47","","","","Rate your confidence","1",""
"376.7999999523163","i","choice","left","e","experimental","419","304203","0.0-4.0-8.48","false","49","3.9500000000000006","","",""
"3040.7000000476837","4","confid","","","html-slider-response","421","307750","0.0-4.0-10.48-0.48","","","","Rate your confidence","1",""
"449.2000000476837","i","choice","right","i","experimental","428","309981","0.0-4.0-8.49","true","50","4.050000000000001","","",""
"2884.800000190735","4","confid","","","html-slider-response","430","313370","0.0-4.0-10.49-0.49","","","","Rate your confidence","1",""
"198.70000004768372","e","choice","left","e","experimental","437","315352","0.0-4.0-8.50","true","51","4.050000000000001","","",""
"39923.10000014305","5","confid","","","html-slider-response","439","355779","0.0-4.0-10.50-0.50","","","","Rate your confidence","1",""
"681.0999999046326","e","choice","right","i","experimental","446","358252","0.0-4.0-8.51","false","52","3.9500000000000006","","",""
"2861.5","3","confid","","","html-slider-response","448","361617","0.0-4.0-10.51-0.51","","","","Rate your confidence","1",""
"76.90000009536743","e","choice","left","e","experimental","455","363485","0.0-4.0-8.52","true","53","4.050000000000001","","",""
"3272","4","confid","","","html-slider-response","457","367262","0.0-4.0-10.52-0.52","","","","Rate your confidence","1",""
"610.3000001907349","i","choice","right","i","experimental","464","369642","0.0-4.0-8.53","true","54","4.050000000000001","","",""
"2545","4","confid","","","html-slider-response","466","372690","0.0-4.0-10.53-0.53","","","","Rate your confidence","1",""
"146.39999985694885","e","choice","left","e","experimental","473","374624","0.0-4.0-8.54","true","55","3.9500000000000006","","",""
"1790.0999999046326","5","confid","","","html-slider-response","475","376917","0.0-4.0-10.54-0.54","","","","Rate your confidence","1",""
"528.7000000476837","i","choice","right","i","experimental","482","379230","0.0-4.0-8.55","true","56","3.9500000000000006","","",""
"1922.5999999046326","5","confid","","","html-slider-response","484","381656","0.0-4.0-10.55-0.55","","","","Rate your confidence","1",""
"559.6000001430511","i","choice","right","i","experimental","491","384000","0.0-4.0-8.56","true","57","3.8500000000000005","","",""
"12998.100000143051","5","confid","","","html-slider-response","493","397504","0.0-4.0-10.56-0.56","","","","Rate your confidence","1",""
"1678.2000000476837","e","choice","left","e","experimental","500","400983","0.0-4.0-8.57","true","58","3.8500000000000005","","",""
"3544.5999999046326","3","confid","","","html-slider-response","502","405032","0.0-4.0-10.57-0.57","","","","Rate your confidence","1",""
"83.89999985694885","e","choice","left","e","experimental","509","406908","0.0-4.0-8.58","true","59","3.7500000000000004","","",""
"1659.5","4","confid","","","html-slider-response","511","409074","0.0-4.0-10.58-0.58","","","","Rate your confidence","1",""
"489.40000009536743","i","choice","right","i","experimental","518","411340","0.0-4.0-8.59","true","60","3.7500000000000004","","",""
"2567.0999999046326","4","confid","","","html-slider-response","520","414411","0.0-4.0-10.59-0.59","","","","Rate your confidence","1",""
"832.2999999523163","i","choice","right","i","experimental","527","417020","0.0-4.0-8.60","true","61","3.6500000000000004","","",""
"1690.4000000953674","4","confid","","","html-slider-response","529","419215","0.0-4.0-10.60-0.60","","","","Rate your confidence","1",""
"320.89999985694885","e","choice","left","e","experimental","536","421318","0.0-4.0-8.61","true","62","3.6500000000000004","","",""
"2148.2000000476837","3","confid","","","html-slider-response","538","423971","0.0-4.0-10.61-0.61","","","","Rate your confidence","1",""
"28.700000047683716","e","choice","left","e","experimental","545","425782","0.0-4.0-8.62","true","63","3.5500000000000003","","",""
"10444.900000095367","5","confid","","","html-slider-response","547","436730","0.0-4.0-10.62-0.62","","","","Rate your confidence","1",""
"331.60000014305115","e","choice","right","i","experimental","554","438850","0.0-4.0-8.63","false","64","3.5500000000000003","","",""
"2460.9000000953674","4","confid","","","html-slider-response","556","441815","0.0-4.0-10.63-0.63","","","","Rate your confidence","1",""
"421.10000014305115","i","choice","right","i","experimental","563","444025","0.0-4.0-8.64","true","65","3.6500000000000004","","",""
"2237.7999999523163","4","confid","","","html-slider-response","565","446766","0.0-4.0-10.64-0.64","","","","Rate your confidence","1",""
"52","e","choice","left","e","experimental","572","448602","0.0-4.0-8.65","true","66","3.6500000000000004","","",""
"2221.7999999523163","5","confid","","","html-slider-response","574","451329","0.0-4.0-10.65-0.65","","","","Rate your confidence","1",""
"380.39999985694885","e","choice","right","i","experimental","581","453493","0.0-4.0-8.66","false","67","3.5500000000000003","","",""
"1758.5","3","confid","","","html-slider-response","583","455755","0.0-4.0-10.66-0.66","","","","Rate your confidence","1",""
"402.2999999523163","e","choice","left","e","experimental","590","457943","0.0-4.0-8.67","true","68","3.6500000000000004","","",""
"2599.7000000476837","3","confid","","","html-slider-response","592","461047","0.0-4.0-10.67-0.67","","","","Rate your confidence","1",""
"317","e","choice","left","e","experimental","600","631254","0.0-4.0-8.68","true","69","3.6500000000000004","","",""
"4895.600000143051","3","confid","","","html-slider-response","602","636656","0.0-4.0-10.68-0.68","","","","Rate your confidence","1",""
"1048.2000000476837","i","choice","right","i","experimental","609","639487","0.0-4.0-8.69","true","70","3.5500000000000003","","",""
"1360.5","4","confid","","","html-slider-response","611","641351","0.0-4.0-10.69-0.69","","","","Rate your confidence","1",""
"614.2999999523163","i","choice","right","i","experimental","618","643748","0.0-4.0-8.70","true","71","3.5500000000000003","","",""
"1659.7000000476837","4","confid","","","html-slider-response","620","645911","0.0-4.0-10.70-0.70","","","","Rate your confidence","1",""
"140","e","choice","left","e","experimental","627","647836","0.0-4.0-8.71","true","72","3.45","","",""
"2439.2000000476837","6","confid","","","html-slider-response","629","650779","0.0-4.0-10.71-0.71","","","","Rate your confidence","1",""
"15.299999952316284","i","choice","right","i","experimental","636","652587","0.0-4.0-8.72","true","73","3.45","","",""
"2490","5","confid","","","html-slider-response","638","655580","0.0-4.0-10.72-0.72","","","","Rate your confidence","1",""
"402.89999985694885","e","choice","left","e","experimental","645","657776","0.0-4.0-8.73","true","74","3.35","","",""
"2209.5","5","confid","","","html-slider-response","647","660489","0.0-4.0-10.73-0.73","","","","Rate your confidence","1",""
"344.90000009536743","i","choice","right","i","experimental","654","662623","0.0-4.0-8.74","true","75","3.35","","",""
"1708","4","confid","","","html-slider-response","656","664834","0.0-4.0-10.74-0.74","","","","Rate your confidence","1",""
"25.5","e","choice","left","e","experimental","663","666648","0.0-4.0-8.75","true","76","3.25","","",""
"1751.0999999046326","4","confid","","","html-slider-response","665","668906","0.0-4.0-10.75-0.75","","","","Rate your confidence","1",""
"218.5","e","choice","left","e","experimental","672","670900","0.0-4.0-8.76","true","77","3.25","","",""
"1804.4000000953674","4","confid","","","html-slider-response","674","673217","0.0-4.0-10.76-0.76","","","","Rate your confidence","1",""
"521.7999999523163","i","choice","right","i","experimental","681","675522","0.0-4.0-8.77","true","78","3.15","","",""
"2620.2999999523163","4","confid","","","html-slider-response","683","678645","0.0-4.0-10.77-0.77","","","","Rate your confidence","1",""
"129.80000019073486","i","choice","left","e","experimental","690","680567","0.0-4.0-8.78","false","79","3.15","","",""
"2770.4000000953674","4","confid","","","html-slider-response","692","683841","0.0-4.0-10.78-0.78","","","","Rate your confidence","1",""
"168.69999980926514","i","choice","right","i","experimental","699","685795","0.0-4.0-8.79","true","80","3.25","","",""
"2140","6","confid","","","html-slider-response","701","688440","0.0-4.0-10.79-0.79","","","","Rate your confidence","1",""
"82.29999995231628","e","choice","left","e","experimental","708","690318","0.0-4.0-8.80","true","81","3.25","","",""
"2172.7999999523163","5","confid","","","html-slider-response","710","692995","0.0-4.0-10.80-0.80","","","","Rate your confidence","1",""
"353.5","i","choice","right","i","experimental","717","695135","0.0-4.0-8.81","true","82","3.15","","",""
"1596.0999999046326","5","confid","","","html-slider-response","719","697233","0.0-4.0-10.81-0.81","","","","Rate your confidence","1",""
"3.6999998092651367","i","choice","right","i","experimental","726","699022","0.0-4.0-8.82","true","83","3.15","","",""
"2735.2000000476837","3","confid","","","html-slider-response","728","702261","0.0-4.0-10.82-0.82","","","","Rate your confidence","1",""
"118","e","choice","left","e","experimental","735","704165","0.0-4.0-8.83","true","84","3.05","","",""
"1955.1000001430511","4","confid","","","html-slider-response","737","706623","0.0-4.0-10.83-0.83","","","","Rate your confidence","1",""
"835","i","choice","left","e","experimental","744","709241","0.0-4.0-8.84","false","85","3.05","","",""
"1782.5999999046326","4","confid","","","html-slider-response","746","711528","0.0-4.0-10.84-0.84","","","","Rate your confidence","1",""
"353.39999985694885","e","choice","right","i","experimental","753","713671","0.0-4.0-8.85","false","86","3.15","","",""
"2216.2000000476837","3","confid","","","html-slider-response","755","716393","0.0-4.0-10.85-0.85","","","","Rate your confidence","1",""
"35.299999952316284","i","choice","left","e","experimental","762","718218","0.0-4.0-8.86","false","87","3.25","","",""
"2091.899999856949","4","confid","","","html-slider-response","764","720814","0.0-4.0-10.86-0.86","","","","Rate your confidence","1",""
"43.10000014305115","i","choice","right","i","experimental","771","722645","0.0-4.0-8.87","true","88","3.35","","",""
"2605.399999856949","3","confid","","","html-slider-response","773","725755","0.0-4.0-10.87-0.87","","","","Rate your confidence","1",""
"374.7999999523163","e","choice","left","e","experimental","780","727917","0.0-4.0-8.88","true","89","3.35","","",""
"1469.7000000476837","3","confid","","","html-slider-response","782","729889","0.0-4.0-10.88-0.88","","","","Rate your confidence","1",""
"200.30000019073486","i","choice","right","i","experimental","789","731880","0.0-4.0-8.89","true","90","3.25","","",""
"1892.4000000953674","3","confid","","","html-slider-response","791","734275","0.0-4.0-10.89-0.89","","","","Rate your confidence","1",""
"141.20000004768372","i","choice","right","i","experimental","798","736201","0.0-4.0-8.90","true","91","3.25","","",""
"1688.5","4","confid","","","html-slider-response","800","738395","0.0-4.0-10.90-0.90","","","","Rate your confidence","1",""
"311","e","choice","left","e","experimental","807","740495","0.0-4.0-8.91","true","92","3.15","","",""
"2456.5","4","confid","","","html-slider-response","809","743454","0.0-4.0-10.91-0.91","","","","Rate your confidence","1",""
"353.89999985694885","e","choice","left","e","experimental","816","745593","0.0-4.0-8.92","true","93","3.15","","",""
"1741.5999999046326","3","confid","","","html-slider-response","818","747837","0.0-4.0-10.92-0.92","","","","Rate your confidence","1",""
"221.79999995231628","i","choice","right","i","experimental","825","749850","0.0-4.0-8.93","true","94","3.05","","",""
"121358.5","4","confid","","","html-slider-response","827","871715","0.0-4.0-10.93-0.93","","","","Rate your confidence","1",""
"219.29999995231628","i","choice","right","i","experimental","834","873725","0.0-4.0-8.94","true","95","3.05","","",""
"1440.8999998569489","3","confid","","","html-slider-response","836","875669","0.0-4.0-10.94-0.94","","","","Rate your confidence","1",""
"312.2000000476837","e","choice","left","e","experimental","843","877762","0.0-4.0-8.95","true","96","2.9499999999999997","","",""
"1822.4000000953674","3","confid","","","html-slider-response","845","880088","0.0-4.0-10.95-0.95","","","","Rate your confidence","1",""
"229.20000004768372","i","choice","right","i","experimental","852","882105","0.0-4.0-8.96","true","97","2.9499999999999997","","",""
"1385.7000000476837","3","confid","","","html-slider-response","854","883994","0.0-4.0-10.96-0.96","","","","Rate your confidence","1",""
"281.60000014305115","e","choice","left","e","experimental","861","886072","0.0-4.0-8.97","true","98","2.8499999999999996","","",""
"1543.2999999523163","5","confid","","","html-slider-response","863","888122","0.0-4.0-10.97-0.97","","","","Rate your confidence","1",""
"207.5","i","choice","left","e","experimental","870","890110","0.0-4.0-8.98","false","99","2.8499999999999996","","",""
"4680.700000047684","2","confid","","","html-slider-response","872","895294","0.0-4.0-10.98-0.98","","","","Rate your confidence","1",""
"377","e","choice","right","i","experimental","879","897462","0.0-4.0-8.99","false","100","2.9499999999999997","","",""
"3340.100000143051","3","confid","","","html-slider-response","881","901308","0.0-4.0-10.99-0.99","","","","Rate your confidence","1",""
"906.5","e","choice","right","i","experimental","888","904000","0.0-4.0-8.100","false","101","3.05","","",""
"2684.5","3","confid","","","html-slider-response","890","907189","0.0-4.0-10.100-0.100","","","","Rate your confidence","1",""
"447.39999985694885","e","choice","left","e","experimental","897","909422","0.0-4.0-8.101","true","102","3.15","","",""
"3552","3","confid","","","html-slider-response","899","913479","0.0-4.0-10.101-0.101","","","","Rate your confidence","1",""
"203.5","i","choice","right","i","experimental","906","915477","0.0-4.0-8.102","true","103","3.15","","",""
"2197.9000000953674","3","confid","","","html-slider-response","908","918179","0.0-4.0-10.102-0.102","","","","Rate your confidence","1",""
"268.2000000476837","e","choice","left","e","experimental","915","920244","0.0-4.0-8.103","true","104","3.05","","",""
"2420.5","3","confid","","","html-slider-response","917","923167","0.0-4.0-10.103-0.103","","","","Rate your confidence","1",""
"159.89999985694885","e","choice","right","i","experimental","924","925122","0.0-4.0-8.104","false","105","3.05","","",""
"1852.8999998569489","3","confid","","","html-slider-response","926","927478","0.0-4.0-10.104-0.104","","","","Rate your confidence","1",""
"450.60000014305115","e","choice","left","e","experimental","933","929710","0.0-4.0-8.105","true","106","3.15","","",""
"2903.7999999523163","4","confid","","","html-slider-response","935","933120","0.0-4.0-10.105-0.105","","","","Rate your confidence","1",""
"13.399999856948853","e","choice","left","e","experimental","942","934919","0.0-4.0-8.106","true","107","3.15","","",""
"1963.1000001430511","3","confid","","","html-slider-response","944","937386","0.0-4.0-10.106-0.106","","","","Rate your confidence","1",""
"406","i","choice","right","i","experimental","951","939573","0.0-4.0-8.107","true","108","3.05","","",""
"1715.9000000953674","4","confid","","","html-slider-response","953","941795","0.0-4.0-10.107-0.107","","","","Rate your confidence","1",""
"170.5","e","choice","right","i","experimental","960","943753","0.0-4.0-8.108","false","109","3.05","","",""
"2576.100000143051","3","confid","","","html-slider-response","962","946833","0.0-4.0-10.108-0.108","","","","Rate your confidence","1",""
"64.79999995231628","e","choice","left","e","experimental","969","948695","0.0-4.0-8.109","true","110","3.15","","",""
"65604.29999995232","3","confid","","","html-slider-response","971","1014805","0.0-4.0-10.109-0.109","","","","Rate your confidence","1",""
"410.7999999523163","e","choice","right","i","experimental","979","1393476","0.0-4.0-8.110","false","111","3.15","","",""
"3637.0999999046326","3","confid","","","html-slider-response","981","1397616","0.0-4.0-10.110-0.110","","","","Rate your confidence","1",""
"349.10000014305115","i","choice","left","e","experimental","988","1399754","0.0-4.0-8.111","false","112","3.25","","",""
"1517.2999999523163","4","confid","","","html-slider-response","990","1401773","0.0-4.0-10.111-0.111","","","","Rate your confidence","1",""
"55.40000009536743","i","choice","right","i","experimental","997","1403616","0.0-4.0-8.112","true","113","3.35","","",""
"2690.7000000476837","4","confid","","","html-slider-response","999","1406810","0.0-4.0-10.112-0.112","","","","Rate your confidence","1",""
"23.200000047683716","i","choice","left","e","experimental","1006","1408621","0.0-4.0-8.113","false","114","3.35","","",""
"1758.7999999523163","4","confid","","","html-slider-response","1008","1410883","0.0-4.0-10.113-0.113","","","","Rate your confidence","1",""
"72.5","i","choice","right","i","experimental","1015","1412736","0.0-4.0-8.114","true","115","3.45","","",""
"1355.5999999046326","3","confid","","","html-slider-response","1017","1414595","0.0-4.0-10.114-0.114","","","","Rate your confidence","1",""
"171.29999995231628","e","choice","left","e","experimental","1024","1416552","0.0-4.0-8.115","true","116","3.45","","",""
"1600.1000001430511","3","confid","","","html-slider-response","1026","1418655","0.0-4.0-10.115-0.115","","","","Rate your confidence","1",""
"167.5","i","choice","right","i","experimental","1033","1420600","0.0-4.0-8.116","true","117","3.35","","",""
"2705","3","confid","","","html-slider-response","1035","1423811","0.0-4.0-10.116-0.116","","","","Rate your confidence","1",""
"203.20000004768372","i","choice","left","e","experimental","1042","1425796","0.0-4.0-8.117","false","118","3.35","","",""
"1476.5","3","confid","","","html-slider-response","1044","1427779","0.0-4.0-10.117-0.117","","","","Rate your confidence","1",""
"12.799999952316284","e","choice","right","i","experimental","1051","1429577","0.0-4.0-8.118","false","119","3.45","","",""
"7904.799999952316","3","confid","","","html-slider-response","1053","1437986","0.0-4.0-10.118-0.118","","","","Rate your confidence","1",""
"101","i","choice","left","e","experimental","1060","1439878","0.0-4.0-8.119","false","120","3.5500000000000003","","",""
"2898.7000000476837","3","confid","","","html-slider-response","1062","1443284","0.0-4.0-10.119-0.119","","","","Rate your confidence","1",""
"323.7999999523163","i","choice","left","e","experimental","1069","1445400","0.0-4.0-8.120","false","121","3.6500000000000004","","",""
"10608.399999856949","3","confid","","","html-slider-response","1071","1456514","0.0-4.0-10.120-0.120","","","","Rate your confidence","1",""
"318.2999999523163","i","choice","right","i","experimental","1078","1458623","0.0-4.0-8.121","true","122","3.7500000000000004","","",""
"1827.5999999046326","4","confid","","","html-slider-response","1080","1460953","0.0-4.0-10.121-0.121","","","","Rate your confidence","1",""
"300.2000000476837","i","choice","right","i","experimental","1087","1463039","0.0-4.0-8.122","true","123","3.7500000000000004","","",""
"2487.2999999523163","3","confid","","","html-slider-response","1089","1466036","0.0-4.0-10.122-0.122","","","","Rate your confidence","1",""
"220.70000004768372","e","choice","left","e","experimental","1096","1468041","0.0-4.0-8.123","true","124","3.6500000000000004","","",""
"1469.7999999523163","2","confid","","","html-slider-response","1098","1470014","0.0-4.0-10.123-0.123","","","","Rate your confidence","1",""
"527.5","i","choice","right","i","experimental","1105","1472331","0.0-4.0-8.124","true","125","3.6500000000000004","","",""
"4005.5","3","confid","","","html-slider-response","1107","1476841","0.0-4.0-10.124-0.124","","","","Rate your confidence","1",""
"373.19999980926514","i","choice","left","e","experimental","1114","1479008","0.0-4.0-8.125","false","126","3.5500000000000003","","",""
"1664","3","confid","","","html-slider-response","1116","1481175","0.0-4.0-10.125-0.125","","","","Rate your confidence","1",""
"408.09999990463257","i","choice","right","i","experimental","1123","1483366","0.0-4.0-8.126","true","127","3.6500000000000004","","",""
"1439.4000000953674","4","confid","","","html-slider-response","1125","1485311","0.0-4.0-10.126-0.126","","","","Rate your confidence","1",""
"467.5","e","choice","left","e","experimental","1132","1487567","0.0-4.0-8.127","true","128","3.6500000000000004","","",""
"1871.3999998569489","3","confid","","","html-slider-response","1134","1489941","0.0-4.0-10.127-0.127","","","","Rate your confidence","1",""
"229.79999995231628","i","choice","right","i","experimental","1141","1491953","0.0-4.0-8.128","true","129","3.5500000000000003","","",""
"1592.5","4","confid","","","html-slider-response","1143","1494050","0.0-4.0-10.128-0.128","","","","Rate your confidence","1",""
"101.90000009536743","e","choice","left","e","experimental","1150","1495938","0.0-4.0-8.129","true","130","3.5500000000000003","","",""
"1516.0999999046326","3","confid","","","html-slider-response","1152","1497957","0.0-4.0-10.129-0.129","","","","Rate your confidence","1",""
"66.59999990463257","i","choice","left","e","experimental","1159","1499815","0.0-4.0-8.130","false","131","3.45","","",""
"2548.100000143051","3","confid","","","html-slider-response","1161","1502866","0.0-4.0-10.130-0.130","","","","Rate your confidence","1",""
"423.7999999523163","e","choice","right","i","experimental","1168","1505078","0.0-4.0-8.131","false","132","3.5500000000000003","","",""
"1331.5","3","confid","","","html-slider-response","1170","1506914","0.0-4.0-10.131-0.131","","","","Rate your confidence","1",""
"416","e","choice","left","e","experimental","1177","1509123","0.0-4.0-8.132","true","133","3.6500000000000004","","",""
"1717.8999998569489","5","confid","","","html-slider-response","1179","1511347","0.0-4.0-10.132-0.132","","","","Rate your confidence","1",""
"310.2000000476837","i","choice","right","i","experimental","1186","1513439","0.0-4.0-8.133","true","134","3.6500000000000004","","",""
"1221.5999999046326","4","confid","","","html-slider-response","1188","1515164","0.0-4.0-10.133-0.133","","","","Rate your confidence","1",""
"181.5","e","choice","left","e","experimental","1195","1517139","0.0-4.0-8.134","true","135","3.5500000000000003","","",""
"1510.2999999523163","4","confid","","","html-slider-response","1197","1519154","0.0-4.0-10.134-0.134","","","","Rate your confidence","1",""
"40.19999980926514","i","choice","right","i","experimental","1204","1520978","0.0-4.0-8.135","true","136","3.5500000000000003","","",""
"1611.4000000953674","5","confid","","","html-slider-response","1206","1523094","0.0-4.0-10.135-0.135","","","","Rate your confidence","1",""
"193.29999995231628","e","choice","left","e","experimental","1213","1525072","0.0-4.0-8.136","true","137","3.45","","",""
"1341.0999999046326","5","confid","","","html-slider-response","1215","1526916","0.0-4.0-10.136-0.136","","","","Rate your confidence","1",""
"27.5","i","choice","right","i","experimental","1222","1528733","0.0-4.0-8.137","true","138","3.45","","",""
"1685.5","6","confid","","","html-slider-response","1224","1530924","0.0-4.0-10.137-0.137","","","","Rate your confidence","1",""
"26.90000009536743","i","choice","left","e","experimental","1231","1532740","0.0-4.0-8.138","false","139","3.35","","",""
"1980.2999999523163","2","confid","","","html-slider-response","1233","1535225","0.0-4.0-10.138-0.138","","","","Rate your confidence","1",""
"323.7000000476837","i","choice","right","i","experimental","1240","1537331","0.0-4.0-8.139","true","140","3.45","","",""
"1986.4000000953674","4","confid","","","html-slider-response","1242","1539820","0.0-4.0-10.139-0.139","","","","Rate your confidence","1",""
"707.7999999523163","i","choice","right","i","experimental","1249","1542318","0.0-4.0-8.140","true","141","3.45","","",""
"2338.2999999523163","3","confid","","","html-slider-response","1251","1545161","0.0-4.0-10.140-0.140","","","","Rate your confidence","1",""
"19.899999856948853","e","choice","left","e","experimental","1258","1546976","0.0-4.0-8.141","true","142","3.35","","",""
"1684.8000001907349","3","confid","","","html-slider-response","1260","1549164","0.0-4.0-10.141-0.141","","","","Rate your confidence","1",""
"195.69999980926514","i","choice","right","i","experimental","1267","1551152","0.0-4.0-8.142","true","143","3.35","","",""
"1285.5","5","confid","","","html-slider-response","1269","1552942","0.0-4.0-10.142-0.142","","","","Rate your confidence","1",""
"344.5","e","choice","left","e","experimental","1276","1555079","0.0-4.0-8.143","true","144","3.25","","",""
"1829.2000000476837","3","confid","","","html-slider-response","1278","1557412","0.0-4.0-10.143-0.143","","","","Rate your confidence","1",""
"453.7999999523163","i","choice","left","e","experimental","1285","1559653","0.0-4.0-8.144","false","145","3.25","","",""
"3201.2999999523163","1","confid","","","html-slider-response","1287","1563358","0.0-4.0-10.144-0.144","","","","Rate your confidence","1",""
"140.90000009536743","i","choice","right","i","experimental","1294","1565285","0.0-4.0-8.145","true","146","3.35","","",""
"2593.5","6","confid","","","html-slider-response","1296","1568383","0.0-4.0-10.145-0.145","","","","Rate your confidence","1",""
"442.7000000476837","e","choice","left","e","experimental","1303","1570608","0.0-4.0-8.146","true","147","3.35","","",""
"2736.7999999523163","2","confid","","","html-slider-response","1305","1573849","0.0-4.0-10.146-0.146","","","","Rate your confidence","1",""
"339.09999990463257","e","choice","right","i","experimental","1312","1575969","0.0-4.0-8.147","false","148","3.25","","",""
"1423.7999999523163","3","confid","","","html-slider-response","1314","1577896","0.0-4.0-10.147-0.147","","","","Rate your confidence","1",""
"87.40000009536743","e","choice","left","e","experimental","1321","1579765","0.0-4.0-8.148","true","149","3.35","","",""
"2541.5999999046326","2","confid","","","html-slider-response","1323","1582810","0.0-4.0-10.148-0.148","","","","Rate your confidence","1",""
"512.6999998092651","i","choice","right","i","experimental","1330","1585107","0.0-4.0-8.149","true","150","3.35","","",""
"1425.1999998092651","5","confid","","","html-slider-response","1332","1587035","0.0-4.0-10.149-0.149","","","","Rate your confidence","1",""
"518.1999998092651","e","choice","left","e","experimental","1339","1589333","0.0-4.0-8.150","true","151","3.25","","",""
"2363.4000000953674","2","confid","","","html-slider-response","1341","1592199","0.0-4.0-10.150-0.150","","","","Rate your confidence","1",""
"21.5","i","choice","right","i","experimental","1348","1594009","0.0-4.0-8.151","true","152","3.25","","",""
"2962.100000143051","3","confid","","","html-slider-response","1350","1597474","0.0-4.0-10.151-0.151","","","","Rate your confidence","1",""
"476.40000009536743","i","choice","right","i","experimental","1358","1853098","0.0-4.0-8.152","true","153","3.15","","",""
"2419.2999999523163","3","confid","","","html-slider-response","1360","1856023","0.0-4.0-10.152-0.152","","","","Rate your confidence","1",""
"84.89999985694885","e","choice","left","e","experimental","1367","1857905","0.0-4.0-8.153","true","154","3.15","","",""
"2596.7000000476837","4","confid","","","html-slider-response","1369","1861008","0.0-4.0-10.153-0.153","","","","Rate your confidence","1",""
"156.40000009536743","i","choice","right","i","experimental","1376","1862949","0.0-4.0-8.154","true","155","3.05","","",""
"4195.700000047684","5","confid","","","html-slider-response","1378","1867650","0.0-4.0-10.154-0.154","","","","Rate your confidence","1",""
"2154.699999809265","e","choice","left","e","experimental","1385","1871590","0.0-4.0-8.155","true","156","3.05","","",""
"3048.2000000476837","1","confid","","","html-slider-response","1387","1875142","0.0-4.0-10.155-0.155","","","","Rate your confidence","1",""
"41.89999985694885","i","choice","left","e","experimental","1394","1876971","0.0-4.0-8.156","false","157","2.9499999999999997","","",""
"2135.2999999523163","3","confid","","","html-slider-response","1396","1879610","0.0-4.0-10.156-0.156","","","","Rate your confidence","1",""
"539.5999999046326","i","choice","right","i","experimental","1403","1881933","0.0-4.0-8.157","true","158","3.05","","",""
"3218.2999999523163","4","confid","","","html-slider-response","1405","1885657","0.0-4.0-10.157-0.157","","","","Rate your confidence","1",""
"432.7000000476837","e","choice","left","e","experimental","1412","1887870","0.0-4.0-8.158","true","159","3.05","","",""
"1845.0999999046326","3","confid","","","html-slider-response","1414","1890218","0.0-4.0-10.158-0.158","","","","Rate your confidence","1",""
"84.29999995231628","e","choice","right","i","experimental","1421","1892084","0.0-4.0-8.159","false","160","2.9499999999999997","","",""
"2302.9000000953674","4","confid","","","html-slider-response","1423","1894892","0.0-4.0-10.159-0.159","","","","Rate your confidence","1",""
"46.90000009536743","i","choice","left","e","experimental","1430","1896725","0.0-4.0-8.160","false","161","3.05","","",""
"1876.6999998092651","3","confid","","","html-slider-response","1432","1899107","0.0-4.0-10.160-0.160","","","","Rate your confidence","1",""
"470.2000000476837","e","choice","right","i","experimental","1439","1901364","0.0-4.0-8.161","false","162","3.15","","",""
"2809.5","3","confid","","","html-slider-response","1441","1904677","0.0-4.0-10.161-0.161","","","","Rate your confidence","1",""
"780.5999999046326","i","choice","left","e","experimental","1448","1907250","0.0-4.0-8.162","false","163","3.25","","",""
"2340.800000190735","3","confid","","","html-slider-response","1450","1910096","0.0-4.0-10.162-0.162","","","","Rate your confidence","1",""
"837.2000000476837","e","choice","right","i","experimental","1457","1912725","0.0-4.0-8.163","false","164","3.35","","",""
"2821.5999999046326","4","confid","","","html-slider-response","1459","1916051","0.0-4.0-10.163-0.163","","","","Rate your confidence","1",""
"436.2999999523163","i","choice","left","e","experimental","1466","1918275","0.0-4.0-8.164","false","165","3.45","","",""
"3170.899999856949","2","confid","","","html-slider-response","1468","1921949","0.0-4.0-10.164-0.164","","","","Rate your confidence","1",""
"46.700000047683716","e","choice","right","i","experimental","1475","1923783","0.0-4.0-8.165","false","166","3.5500000000000003","","",""
"2269","2","confid","","","html-slider-response","1477","1926555","0.0-4.0-10.165-0.165","","","","Rate your confidence","1",""
"489.7999999523163","i","choice","right","i","experimental","1484","1928824","0.0-4.0-8.166","true","167","3.6500000000000004","","",""
"2087.5","3","confid","","","html-slider-response","1486","1931415","0.0-4.0-10.166-0.166","","","","Rate your confidence","1",""
"108.5","e","choice","left","e","experimental","1493","1933301","0.0-4.0-8.167","true","168","3.6500000000000004","","",""
"2409.5","3","confid","","","html-slider-response","1495","1936217","0.0-4.0-10.167-0.167","","","","Rate your confidence","1",""
"148","i","choice","right","i","experimental","1502","1938154","0.0-4.0-8.168","true","169","3.5500000000000003","","",""
"1705.7000000476837","3","confid","","","html-slider-response","1504","1940363","0.0-4.0-10.168-0.168","","","","Rate your confidence","1",""
"441.2999999523163","e","choice","left","e","experimental","1511","1942592","0.0-4.0-8.169","true","170","3.5500000000000003","","",""
"1261.2999999523163","3","confid","","","html-slider-response","1513","1944356","0.0-4.0-10.169-0.169","","","","Rate your confidence","1",""
"21.100000143051147","e","choice","left","e","experimental","1520","1946158","0.0-4.0-8.170","true","171","3.45","","",""
"1890.7000000476837","5","confid","","","html-slider-response","1522","1948552","0.0-4.0-10.170-0.170","","","","Rate your confidence","1",""
"242.40000009536743","i","choice","right","i","experimental","1529","1950572","0.0-4.0-8.171","true","172","3.45","","",""
"1467","5","confid","","","html-slider-response","1531","1952553","0.0-4.0-10.171-0.171","","","","Rate your confidence","1",""
"338.59999990463257","e","choice","left","e","experimental","1538","1954670","0.0-4.0-8.172","true","173","3.35","","",""
"2159","4","confid","","","html-slider-response","1540","1957332","0.0-4.0-10.172-0.172","","","","Rate your confidence","1",""
"90.59999990463257","i","choice","right","i","experimental","1547","1959213","0.0-4.0-8.173","true","174","3.35","","",""
"7316.700000047684","3","confid","","","html-slider-response","1549","1967034","0.0-4.0-10.173-0.173","","","","Rate your confidence","1",""
"7.099999904632568","i","choice","left","e","experimental","1556","1968831","0.0-4.0-8.174","false","175","3.25","","",""
"1749.1999998092651","3","confid","","","html-slider-response","1558","1971085","0.0-4.0-10.174-0.174","","","","Rate your confidence","1",""
"4.599999904632568","i","choice","right","i","experimental","1565","1972876","0.0-4.0-8.175","true","176","3.35","","",""
"2643","5","confid","","","html-slider-response","1567","1976023","0.0-4.0-10.175-0.175","","","","Rate your confidence","1",""
"539.2999999523163","e","choice","left","e","experimental","1574","1978352","0.0-4.0-8.176","true","177","3.35","","",""
"4042.5","5","confid","","","html-slider-response","1576","1982899","0.0-4.0-10.176-0.176","","","","Rate your confidence","1",""
"211.79999995231628","i","choice","right","i","experimental","1583","1984900","0.0-4.0-8.177","true","178","3.25","","",""
"1713.5","6","confid","","","html-slider-response","1585","1987118","0.0-4.0-10.177-0.177","","","","Rate your confidence","1",""
"469.10000014305115","i","choice","left","e","experimental","1592","1989377","0.0-4.0-8.178","false","179","3.25","","",""
"2502.399999856949","3","confid","","","html-slider-response","1594","1992383","0.0-4.0-10.178-0.178","","","","Rate your confidence","1",""
"42","e","choice","right","i","experimental","1601","1994209","0.0-4.0-8.179","false","180","3.35","","",""
"1630.1000001430511","4","confid","","","html-slider-response","1603","1996346","0.0-4.0-10.179-0.179","","","","Rate your confidence","1",""
"27.5","e","choice","left","e","experimental","1610","1998157","0.0-4.0-8.180","true","181","3.45","","",""
"1721.5","5","confid","","","html-slider-response","1612","2000381","0.0-4.0-10.180-0.180","","","","Rate your confidence","1",""
"501.30000019073486","i","choice","right","i","experimental","1619","2002670","0.0-4.0-8.181","true","182","3.45","","",""
"1695.2999999523163","6","confid","","","html-slider-response","1621","2004868","0.0-4.0-10.181-0.181","","","","Rate your confidence","1",""
"232.40000009536743","i","choice","right","i","experimental","1628","2006890","0.0-4.0-8.182","true","183","3.35","","",""
"1907.4000000953674","5","confid","","","html-slider-response","1630","2009303","0.0-4.0-10.182-0.182","","","","Rate your confidence","1",""
"501.90000009536743","e","choice","left","e","experimental","1637","2011595","0.0-4.0-8.183","true","184","3.35","","",""
"1829.7000000476837","3","confid","","","html-slider-response","1639","2013932","0.0-4.0-10.183-0.183","","","","Rate your confidence","1",""
"320.5","i","choice","left","e","experimental","1646","2016042","0.0-4.0-8.184","false","185","3.25","","",""
"1725.4000000953674","4","confid","","","html-slider-response","1648","2018274","0.0-4.0-10.184-0.184","","","","Rate your confidence","1",""
"202.29999995231628","i","choice","right","i","experimental","1655","2020264","0.0-4.0-8.185","true","186","3.35","","",""
"1700.9000000953674","4","confid","","","html-slider-response","1657","2022470","0.0-4.0-10.185-0.185","","","","Rate your confidence","1",""
"243.20000004768372","i","choice","right","i","experimental","1664","2024502","0.0-4.0-8.186","true","187","3.35","","",""
"2345.600000143051","3","confid","","","html-slider-response","1666","2027352","0.0-4.0-10.186-0.186","","","","Rate your confidence","1",""
"158.09999990463257","i","choice","left","e","experimental","1673","2029290","0.0-4.0-8.187","false","188","3.25","","",""
"2891.2999999523163","4","confid","","","html-slider-response","1675","2032688","0.0-4.0-10.187-0.187","","","","Rate your confidence","1",""
"349.5","e","choice","right","i","experimental","1682","2034824","0.0-4.0-8.188","false","189","3.35","","",""
"1492.1999998092651","2","confid","","","html-slider-response","1684","2036820","0.0-4.0-10.188-0.188","","","","Rate your confidence","1",""
"164.29999995231628","i","choice","left","e","experimental","1691","2038773","0.0-4.0-8.189","false","190","3.45","","",""
"2540.199999809265","3","confid","","","html-slider-response","1693","2041816","0.0-4.0-10.189-0.189","","","","Rate your confidence","1",""
"173","e","choice","left","e","experimental","1700","2043774","0.0-4.0-8.190","true","191","3.5500000000000003","","",""
"1526.2000000476837","2","confid","","","html-slider-response","1702","2045803","0.0-4.0-10.190-0.190","","","","Rate your confidence","1",""
"714.2999999523163","i","choice","right","i","experimental","1709","2048310","0.0-4.0-8.191","true","192","3.5500000000000003","","",""
"1287.1000001430511","5","confid","","","html-slider-response","1711","2050101","0.0-4.0-10.191-0.191","","","","Rate your confidence","1",""
"308.80000019073486","i","choice","right","i","experimental","1718","2052194","0.0-4.0-8.192","true","193","3.45","","",""
"1325.6000001430511","4","confid","","","html-slider-response","1720","2054032","0.0-4.0-10.192-0.192","","","","Rate your confidence","1",""
"432.10000014305115","i","choice","left","e","experimental","1727","2056254","0.0-4.0-8.193","false","194","3.45","","",""
"1841.5","4","confid","","","html-slider-response","1729","2058599","0.0-4.0-10.193-0.193","","","","Rate your confidence","1","81992"
