"rt","response","task","target_side","correct_response","trial_type","trial_index","time_elapsed","internal_node_id","correct","trial_number","n_dots","stimulus","slider_start","participant"
"870.6000003814697","e","choice","left","e","practice","10","58741","0.0-4.0-8.0","true","1","4.25","","",""
"424.3000011444092","i","choice","right","i","practice","18","61520","0.0-4.0-8.1","true","2","4.25","","",""
"565.8999996185303","i","choice","right","i","practice","26","64403","0.0-4.0-8.2","true","3","3.85","","",""
"229.5","e","choice","left","e","practice","34","66946","0.0-4.0-8.3","true","4","3.85","","",""
"198.19999885559082","i","choice","right","i","practice","42","69462","0.0-4.0-8.4","true","5","3.45","","",""
"439.70000076293945","e","choice","left","e","practice","50","72208","0.0-4.0-8.5","true","6","3.45","","",""
"541.3999996185303","e","choice","left","e","practice","58","75066","0.0-4.0-8.6","true","7","3.25","","",""
"354.8999996185303","e","choice","right","i","practice","66","77766","0.0-4.0-8.7","false","8","3.25","","",""
"663.8999996185303","e","choice","left","e","practice","74","80775","0.0-4.0-8.8","true","9","3.45","","",""
"99.89999961853027","i","choice","right","i","practice","82","83171","0.0-4.0-8.9","true","10","3.45","","",""
"252.89999961853027","i","choice","right","i","practice","90","85736","0.0-4.0-8.10","true","11","3.25","","",""
"231.30000114440918","e","choice","left","e","practice","98","88311","0.0-4.0-8.11","true","12","3.25","","",""
"53.70000076293945","i","choice","right","i","practice","106","90706","0.0-4.0-8.12","true","13","3.15","","",""
"186.80000114440918","e","choice","left","e","practice","114","93206","0.0-4.0-8.13","true","14","3.15","","",""
"45.30000114440918","i","choice","right","i","practice","122","95557","0.0-4.0-8.14","true","15","3.05","","",""
"377.20000076293945","e","choice","left","e","practice","130","98237","0.0-4.0-8.15","true","16","3.05","","",""
"318.29999923706055","e","choice","left","e","practice","138","100873","0.0-4.0-8.16","true","17","2.9499999999999997","","",""
"272.1000003814697","e","choice","right","i","practice","146","103453","0.0-4.0-8.17","false","18","2.9499999999999997","","",""
"93.30000114440918","e","choice","left","e","practice","154","105843","0.0-4.0-8.18","true","19","3.05","","",""
"1576.599998474121","i","choice","right","i","practice","162","109736","0.0-4.0-8.19","true","20","3.05","","",""
"64.89999961853027","i","choice","right","i","practice","170","112144","0.0-4.0-8.20","true","21","2.9499999999999997","","",""
"156.29999923706055","e","choice","left","e","practice","178","114643","0.0-4.0-8.21","true","22","2.9499999999999997","","",""
"115.30000114440918","e","choice","left","e","practice","186","117067","0.0-4.0-8.22","true","23","2.8499999999999996","","",""
"38.29999923706055","i","choice","right","i","practice","194","119422","0.0-4.0-8.23","true","24","2.8499999999999996","","",""
"164.10000038146973","e","choice","left","e","practice","202","121931","0.0-4.0-8.24","true","25","2.7499999999999996","","",""
"678.8000011444092","i","choice","right","i","practice","210","124932","0.0-4.0-8.25","true","26","2.7499999999999996","","",""
"115.70000076293945","e","choice","right","i","experimental","221","159063","0.0-4.0-8.26","false","27","2.6499999999999995","","",""
"3819.8999996185303","4","confid","","","html-slider-response","223","163388","0.0-4.0-10.26-0.26","","","","Rate your confidence","1",""
"347.4000015258789","i","choice","left","e","experimental","230","165558","0.0-4.0-8.27","false","28","2.7499999999999996","","",""
"4750.5","2","confid","","","html-slider-response","232","170815","0.0-4.0-10.27-0.27","","","","Rate your confidence","1",""
"280.3000011444092","e","choice","left","e","experimental","239","172920","0.0-4.0-8.28","true","29","2.8499999999999996","","",""
"2833","4","confid","","","html-slider-response","241","176263","0.0-4.0-10.28-0.28","","","","Rate your confidence","1",""
"519.1999988555908","i","choice","right","i","experimental","248","178610","0.0-4.0-8.29","true","30","2.8499999999999996","","",""
"3006.699998855591","5","confid","","","html-slider-response","250","182122","0.0-4.0-10.29-0.29","","","","Rate your confidence","1",""
"481.8999996185303","i","choice","right","i","experimental","257","184447","0.0-4.0-8.30","true","31","2.7499999999999996","","",""
"5329.799999237061","4","confid","","","html-slider-response","259","190285","0.0-4.0-10.30-0.30","","","","Rate your confidence","1",""
"207.30000114440918","e","choice","left","e","experimental","266","192400","0.0-4.0-8.31","true","32","2.7499999999999996","","",""
"3733.2000007629395","6","confid","","","html-slider-response","268","196639","0.0-4.0-10.31-0.31","","","","Rate your confidence","1",""
"710.7000007629395","e","choice","right","i","experimental","275","199162","0.0-4.0-8.32","false","33","2.6499999999999995","","",""
"4065","3","confid","","","html-slider-response","277","203735","0.0-4.0-10.32-0.32","","","","Rate your confidence","1",""
"306.29999923706055","e","choice","left","e","experimental","284","205852","0.0-4.0-8.33","true","34","2.7499999999999996","","",""
"2779","4","confid","","","html-slider-response","286","209141","0.0-4.0-10.33-0.33","","","","Rate your confidence","1",""
"438","i","choice","right","i","experimental","293","211395","0.0-4.0-8.34","true","35","2.7499999999999996","","",""
"2458.7000007629395","3","confid","","","html-slider-response","295","214362","0.0-4.0-10.34-0.34","","","","Rate your confidence","1",""
"350.5","e","choice","left","e","experimental","302","216529","0.0-4.0-8.35","true","36","2.6499999999999995","","",""
"2007.2000007629395","4","confid","","","html-slider-response","304","219055","0.0-4.0-10.35-0.35","","","","Rate your confidence","1",""
"249.89999961853027","i","choice","left","e","experimental","311","221115","0.0-4.0-8.36","false","37","2.6499999999999995","","",""
"2227.199998855591","5","confid","","","html-slider-response","313","223848","0.0-4.0-10.36-0.36","","","","Rate your confidence","1",""
"729.3999996185303","i","choice","right","i","experimental","320","226434","0.0-4.0-8.37","true","38","2.7499999999999996","","",""
"2220","2","confid","","","html-slider-response","322","229164","0.0-4.0-10.37-0.37","","","","Rate your confidence","1",""
"269.5","e","choice","left","e","experimental","329","231252","0.0-4.0-8.38","true","39","2.7499999999999996","","",""
"3114.7000007629395","2","confid","","","html-slider-response","331","234879","0.0-4.0-10.38-0.38","","","","Rate your confidence","1",""
"798","i","choice","right","i","experimental","338","237486","0.0-4.0-8.39","true","40","2.6499999999999995","","",""
"4201.200000762939","1","confid","","","html-slider-response","340","242196","0.0-4.0-10.39-0.39","","","","Rate your confidence","1",""
"405.3999996185303","e","choice","left","e","experimental","347","244420","0.0-4.0-8.40","true","41","2.6499999999999995","","",""
"2579.800001144409","1","confid","","","html-slider-response","349","247505","0.0-4.0-10.40-0.40","","","","Rate your confidence","1",""
"1022.2000007629395","e","choice","right","i","experimental","356","250333","0.0-4.0-8.41","false","42","2.5499999999999994","","",""
"2289.7000007629395","2","confid","","","html-slider-response","358","253131","0.0-4.0-10.41-0.41","","","","Rate your confidence","1",""
"90.69999885559082","i","choice","left","e","experimental","365","255057","0.0-4.0-8.42","false","43","2.6499999999999995","","",""
"2546.199998855591","1","confid","","","html-slider-response","367","258110","0.0-4.0-10.42-0.42","","","","Rate your confidence","1",""
"251.30000114440918","e","choice","right","i","experimental","374","260175","0.0-4.0-8.43","false","44","2.7499999999999996","","",""
"1717.8999996185303","4","confid","","","html-slider-response","376","262406","0.0-4.0-10.43-0.43","","","","Rate your confidence","1",""
"520.3999996185303","e","choice","right","i","experimental","383","264731","0.0-4.0-8.44","false","45","2.8499999999999996","","",""
"3578.7000007629395","4","confid","","","html-slider-response","385","268821","0.0-4.0-10.44-0.44","","","","Rate your confidence","1",""
"490.6000003814697","e","choice","left","e","experimental","392","271162","0.0-4.0-8.45","true","46","2.9499999999999997","","",""
"5928.60000038147","4","confid","","","html-slider-response","394","277601","0.0-4.0-10.45-0.45","","","","Rate your confidence","1",""
"558.2000007629395","i","choice","left","e","experimental","401","279995","0.0-4.0-8.46","false","47","2.9499999999999997","","",""
"3797.800001144409","2","confid","","","html-slider-response","403","284302","0.0-4.0-10.46-0.46","","","","Rate your confidence","1",""
"298","i","choice","right","i","experimental","410","286425","0.0-4.0-8.47","true","48","3.05","","",""
"3797.300001144409","3","confid","","","html-slider-response","412","290728","0.0-4.0-10.47-0.47","","","","Rate your confidence","1",""
"527.8000011444092","e","choice","left","e","experimental","419","293059","0.0-4.0-8.48","true","49","3.05","","",""
"1709.8999996185303","4","confid","","","html-slider-response","421","295280","0.0-4.0-10.48-0.48","","","","Rate your confidence","1",""
"220.5","i","choice","right","i","experimental","428","297306","0.0-4.0-8.49","true","50","2.9499999999999997","","",""
"2516.3999996185303","5","confid","","","html-slider-response","430","300338","0.0-4.0-10.49-0.49","","","","Rate your confidence","1",""
"418.3000011444092","e","choice","right","i","experimental","437","302601","0.0-4.0-8.50","false","51","2.9499999999999997","","",""
"7162.800001144409","5","confid","","","html-slider-response","439","310270","0.0-4.0-10.50-0.50","","","","Rate your confidence","1",""
"394","e","choice","left","e","experimental","446","312473","0.0-4.0-8.51","true","52","3.05","","",""
"1968.5","6","confid","","","html-slider-response","448","314952","0.0-4.0-10.51-0.51","","","","Rate your confidence","1",""
"456.1000003814697","e","choice","left","e","experimental","455","317227","0.0-4.0-8.52","true","53","3.05","","",""
"2071.199998855591","6","confid","","","html-slider-response","457","319807","0.0-4.0-10.52-0.52","","","","Rate your confidence","1",""
"451.8000011444092","e","choice","right","i","experimental","464","322064","0.0-4.0-8.53","false","54","2.9499999999999997","","",""
"2593.300001144409","5","confid","","","html-slider-response","466","325163","0.0-4.0-10.53-0.53","","","","Rate your confidence","1",""
"268","e","choice","left","e","experimental","473","327255","0.0-4.0-8.54","true","55","3.05","","",""
"2475.6000003814697","4","confid","","","html-slider-response","475","330236","0.0-4.0-10.54-0.54","","","","Rate your confidence","1",""
"382","e","choice","right","i","experimental","482","332435","0.0-4.0-8.55","false","56","3.05","","",""
"2044.2999992370605","4","confid","","","html-slider-response","484","334985","0.0-4.0-10.55-0.55","","","","Rate your confidence","1",""
"655.6999988555908","i","choice","right","i","experimental","491","337453","0.0-4.0-8.56","true","57","3.15","","",""
"1657.1000003814697","3","confid","","","html-slider-response","493","339631","0.0-4.0-10.56-0.56","","","","Rate your confidence","1",""
"413.70000076293945","e","choice","left","e","experimental","500","341851","0.0-4.0-8.57","true","58","3.15","","",""
"1781.3000011444092","4","confid","","","html-slider-response","502","344139","0.0-4.0-10.57-0.57","","","","Rate your confidence","1",""
"481","e","choice","left","e","experimental","509","346427","0.0-4.0-8.58","true","59","3.05","","",""
"2202.199998855591","5","confid","","","html-slider-response","511","349135","0.0-4.0-10.58-0.58","","","","Rate your confidence","1",""
"544.8999996185303","i","choice","right","i","experimental","518","351541","0.0-4.0-8.59","true","60","3.05","","",""
"4791.200000762939","4","confid","","","html-slider-response","520","356840","0.0-4.0-10.59-0.59","","","","Rate your confidence","1",""
"279.6000003814697","e","choice","left","e","experimental","527","358968","0.0-4.0-8.60","true","61","2.9499999999999997","","",""
"2038.3999996185303","6","confid","","","html-slider-response","529","361512","0.0-4.0-10.60-0.60","","","","Rate your confidence","1",""
"1171.8999996185303","e","choice","right","i","experimental","536","364493","0.0-4.0-8.61","false","62","2.9499999999999997","","",""
"2073.7999992370605","3","confid","","","html-slider-response","538","367074","0.0-4.0-10.61-0.61","","","","Rate your confidence","1",""
"301.3000011444092","e","choice","right","i","experimental","545","369180","0.0-4.0-8.62","false","63","3.05","","",""
"3714.1000003814697","5","confid","","","html-slider-response","547","373405","0.0-4.0-10.62-0.62","","","","Rate your confidence","1",""
"315","e","choice","left","e","experimental","554","375528","0.0-4.0-8.63","true","64","3.15","","",""
"4638.900001525879","5","confid","","","html-slider-response","556","380672","0.0-4.0-10.63-0.63","","","","Rate your confidence","1",""
"367.8999996185303","e","choice","left","e","experimental","563","382904","0.0-4.0-8.64","true","65","3.15","","",""
"3056.2000007629395","6","confid","","","html-slider-response","565","386472","0.0-4.0-10.64-0.64","","","","Rate your confidence","1",""
"410.29999923706055","i","choice","right","i","experimental","572","388731","0.0-4.0-8.65","true","66","3.05","","",""
"1754.3999996185303","2","confid","","","html-slider-response","574","391000","0.0-4.0-10.65-0.65","","","","Rate your confidence","1",""
"378.6999988555908","e","choice","left","e","experimental","581","393191","0.0-4.0-8.66","true","67","3.05","","",""
"2521","5","confid","","","html-slider-response","583","396223","0.0-4.0-10.66-0.66","","","","Rate your confidence","1",""
"468.8999996185303","e","choice","right","i","experimental","590","398504","0.0-4.0-8.67","false","68","2.9499999999999997","","",""
"4886.199998855591","3","confid","","","html-slider-response","592","403926","0.0-4.0-10.67-0.67","","","","Rate your confidence","1",""
"291.29999923706055","e","choice","right","i","experimental","600","431586","0.0-4.0-8.68","false","69","3.05","","",""
"3976.2000007629395","5","confid","","","html-slider-response","602","436067","0.0-4.0-10.68-0.68","","","","Rate your confidence","1",""
"1017.1999988555908","i","choice","left","e","experimental","609","438902","0.0-4.0-8.69","false","70","3.15","","",""
"2491","5","confid","","","html-slider-response","611","441905","0.0-4.0-10.69-0.69","","","","Rate your confidence","1",""
"258.5","i","choice","right","i","experimental","618","443997","0.0-4.0-8.70","true","71","3.25","","",""
"2898.8999996185303","3","confid","","","html-slider-response","620","447401","0.0-4.0-10.70-0.70","","","","Rate your confidence","1",""
"227.10000038146973","e","choice","left","e","experimental","627","449474","0.0-4.0-8.71","true","72","3.25","","",""
"2069.2000007629395","4","confid","","","html-slider-response","629","452052","0.0-4.0-10.71-0.71","","","","Rate your confidence","1",""
"310.3999996185303","e","choice","right","i","experimental","636","454184","0.0-4.0-8.72","false","73","3.15","","",""
"2894.599998474121","4","confid","","","html-slider-response","638","457588","0.0-4.0-10.72-0.72","","","","Rate your confidence","1",""
"19.899999618530273","e","choice","left","e","experimental","645","459423","0.0-4.0-8.73","true","74","3.25","","",""
"5971.10000038147","6","confid","","","html-slider-response","647","465903","0.0-4.0-10.73-0.73","","","","Rate your confidence","1",""
"324.20000076293945","e","choice","left","e","experimental","654","468071","0.0-4.0-8.74","true","75","3.25","","",""
"3887.7000007629395","6","confid","","","html-slider-response","656","472470","0.0-4.0-10.74-0.74","","","","Rate your confidence","1",""
"725.5999984741211","e","choice","right","i","experimental","663","475031","0.0-4.0-8.75","false","76","3.15","","",""
"3419.199998855591","5","confid","","","html-slider-response","665","478962","0.0-4.0-10.75-0.75","","","","Rate your confidence","1",""
"809.1000003814697","i","choice","left","e","experimental","672","481580","0.0-4.0-8.76","false","77","3.25","","",""
"3389.6000003814697","4","confid","","","html-slider-response","674","485476","0.0-4.0-10.76-0.76","","","","Rate your confidence","1",""
"356.8999996185303","e","choice","right","i","experimental","681","487653","0.0-4.0-8.77","false","78","3.35","","",""
"4892.900001525879","4","confid","","","html-slider-response","683","493053","0.0-4.0-10.77-0.77","","","","Rate your confidence","1",""
"512.3999996185303","e","choice","right","i","experimental","690","495393","0.0-4.0-8.78","false","79","3.45","","",""
"2545.199998855591","5","confid","","","html-slider-response","692","498446","0.0-4.0-10.78-0.78","","","","Rate your confidence","1",""
"280.3999996185303","e","choice","left","e","experimental","699","500566","0.0-4.0-8.79","true","80","3.5500000000000003","","",""
"2609.7000007629395","6","confid","","","html-slider-response","701","503687","0.0-4.0-10.79-0.79","","","","Rate your confidence","1",""
"378.29999923706055","e","choice","left","e","experimental","708","505928","0.0-4.0-8.80","true","81","3.5500000000000003","","",""
"2214.599998474121","6","confid","","","html-slider-response","710","508650","0.0-4.0-10.80-0.80","","","","Rate your confidence","1",""
"644.2000007629395","i","choice","right","i","experimental","717","511122","0.0-4.0-8.81","true","82","3.45","","",""
"2752.8999996185303","4","confid","","","html-slider-response","719","514382","0.0-4.0-10.81-0.81","","","","Rate your confidence","1",""
"331.3999996185303","e","choice","left","e","experimental","726","516554","0.0-4.0-8.82","true","83","3.45","","",""
"3332.300001144409","6","confid","","","html-slider-response","728","520396","0.0-4.0-10.82-0.82","","","","Rate your confidence","1",""
"923","i","choice","right","i","experimental","735","523164","0.0-4.0-8.83","true","84","3.35","","",""
"3679.8999996185303","5","confid","","","html-slider-response","737","527350","0.0-4.0-10.83-0.83","","","","Rate your confidence","1",""
"190.30000114440918","e","choice","left","e","experimental","744","529387","0.0-4.0-8.84","true","85","3.35","","",""
"3233.800001144409","6","confid","","","html-slider-response","746","533130","0.0-4.0-10.84-0.84","","","","Rate your confidence","1",""
"537.8999996185303","i","choice","right","i","experimental","753","535498","0.0-4.0-8.85","true","86","3.25","","",""
"2019.2000007629395","4","confid","","","html-slider-response","755","538033","0.0-4.0-10.85-0.85","","","","Rate your confidence","1",""
"161.39999961853027","e","choice","left","e","experimental","762","539999","0.0-4.0-8.86","true","87","3.25","","",""
"3686.300001144409","6","confid","","","html-slider-response","764","544193","0.0-4.0-10.86-0.86","","","","Rate your confidence","1",""
"583.9000015258789","i","choice","right","i","experimental","771","546598","0.0-4.0-8.87","true","88","3.15","","",""
"1957.8000011444092","2","confid","","","html-slider-response","773","549066","0.0-4.0-10.87-0.87","","","","Rate your confidence","1",""
"346.8999996185303","e","choice","left","e","experimental","780","551258","0.0-4.0-8.88","true","89","3.15","","",""
"1996.7000007629395","5","confid","","","html-slider-response","782","553768","0.0-4.0-10.88-0.88","","","","Rate your confidence","1",""
"654.6000003814697","i","choice","right","i","experimental","789","556240","0.0-4.0-8.89","true","90","3.05","","",""
"3213.5","6","confid","","","html-slider-response","791","559964","0.0-4.0-10.89-0.89","","","","Rate your confidence","1",""
"237.30000114440918","e","choice","left","e","experimental","798","562024","0.0-4.0-8.90","true","91","3.05","","",""
"2543.3999996185303","6","confid","","","html-slider-response","800","565075","0.0-4.0-10.90-0.90","","","","Rate your confidence","1",""
"1987.6000003814697","e","choice","right","i","experimental","807","568874","0.0-4.0-8.91","false","92","2.9499999999999997","","",""
"2395.8999996185303","1","confid","","","html-slider-response","809","571780","0.0-4.0-10.91-0.91","","","","Rate your confidence","1",""
"377.4000015258789","i","choice","right","i","experimental","816","573971","0.0-4.0-8.92","true","93","3.05","","",""
"1998.2999992370605","4","confid","","","html-slider-response","818","576479","0.0-4.0-10.92-0.92","","","","Rate your confidence","1",""
"210.39999961853027","e","choice","left","e","experimental","825","578536","0.0-4.0-8.93","true","94","3.05","","",""
"1995.5","6","confid","","","html-slider-response","827","581040","0.0-4.0-10.93-0.93","","","","Rate your confidence","1",""
"128.60000038146973","e","choice","left","e","experimental","834","582966","0.0-4.0-8.94","true","95","2.9499999999999997","","",""
"2879.5","6","confid","","","html-slider-response","836","586353","0.0-4.0-10.94-0.94","","","","Rate your confidence","1",""
"702","i","choice","right","i","experimental","843","588888","0.0-4.0-8.95","true","96","2.9499999999999997","","",""
"2304.6000003814697","2","confid","","","html-slider-response","845","591701","0.0-4.0-10.95-0.95","","","","Rate your confidence","1",""
"314.1999988555908","e","choice","left","e","experimental","852","593835","0.0-4.0-8.96","true","97","2.8499999999999996","","",""
"2689.7999992370605","4","confid","","","html-slider-response","854","597032","0.0-4.0-10.96-0.96","","","","Rate your confidence","1",""
"482.1000003814697","e","choice","right","i","experimental","861","599320","0.0-4.0-8.97","false","98","2.8499999999999996","","",""
"1967.7000007629395","1","confid","","","html-slider-response","863","601804","0.0-4.0-10.97-0.97","","","","Rate your confidence","1",""
"316.6000003814697","i","choice","right","i","experimental","870","603953","0.0-4.0-8.98","true","99","2.9499999999999997","","",""
"2828.8999996185303","1","confid","","","html-slider-response","872","607300","0.0-4.0-10.98-0.98","","","","Rate your confidence","1",""
"318.8999996185303","e","choice","left","e","experimental","879","609442","0.0-4.0-8.99","true","100","2.9499999999999997","","",""
"2177.8999996185303","4","confid","","","html-slider-response","881","612128","0.0-4.0-10.99-0.99","","","","Rate your confidence","1",""
"404.4000015258789","e","choice","left","e","experimental","888","614340","0.0-4.0-8.100","true","101","2.8499999999999996","","",""
"2497.6000003814697","4","confid","","","html-slider-response","890","617344","0.0-4.0-10.100-0.100","","","","Rate your confidence","1",""
"445.6999988555908","e","choice","right","i","experimental","897","619618","0.0-4.0-8.101","false","102","2.8499999999999996","","",""
"3510.5","3","confid","","","html-slider-response","899","623635","0.0-4.0-10.101-0.101","","","","Rate your confidence","1",""
"263.70000076293945","e","choice","left","e","experimental","906","625730","0.0-4.0-8.102","true","103","2.9499999999999997","","",""
"3063","5","confid","","","html-slider-response","908","629300","0.0-4.0-10.102-0.102","","","","Rate your confidence","1",""
"226.79999923706055","i","choice","right","i","experimental","915","631342","0.0-4.0-8.103","true","104","2.9499999999999997","","",""
"2732.900001525879","5","confid","","","html-slider-response","917","634590","0.0-4.0-10.103-0.103","","","","Rate your confidence","1",""
"251.20000076293945","i","choice","right","i","experimental","924","636664","0.0-4.0-8.104","true","105","2.8499999999999996","","",""
"3386.699998855591","4","confid","","","html-slider-response","926","640558","0.0-4.0-10.104-0.104","","","","Rate your confidence","1",""
"313.5","e","choice","left","e","experimental","933","642674","0.0-4.0-8.105","true","106","2.8499999999999996","","",""
"4185.799999237061","5","confid","","","html-slider-response","935","647394","0.0-4.0-10.105-0.105","","","","Rate your confidence","1",""
"256","e","choice","left","e","experimental","942","649469","0.0-4.0-8.106","true","107","2.7499999999999996","","",""
"2705.900001525879","6","confid","","","html-slider-response","944","652681","0.0-4.0-10.106-0.106","","","","Rate your confidence","1",""
"463.0999984741211","e","choice","right","i","experimental","951","654947","0.0-4.0-8.107","false","108","2.7499999999999996","","",""
"3475.699998855591","6","confid","","","html-slider-response","953","658941","0.0-4.0-10.107-0.107","","","","Rate your confidence","1",""
"275.79999923706055","e","choice","left","e","experimental","960","661028","0.0-4.0-8.108","true","109","2.8499999999999996","","",""
"3013.800001144409","6","confid","","","html-slider-response","962","664551","0.0-4.0-10.108-0.108","","","","Rate your confidence","1",""
"636.0999984741211","i","choice","right","i","experimental","969","666992","0.0-4.0-8.109","true","110","2.8499999999999996","","",""
"2658.5","5","confid","","","html-slider-response","971","670161","0.0-4.0-10.109-0.109","","","","Rate your confidence","1",""
"251.10000038146973","e","choice","left","e","experimental","979","815851","0.0-4.0-8.110","true","111","2.7499999999999996","","",""
"2882.8999996185303","6","confid","","","html-slider-response","981","819240","0.0-4.0-10.110-0.110","","","","Rate your confidence","1",""
"328.6999988555908","e","choice","right","i","experimental","988","821421","0.0-4.0-8.111","false","112","2.7499999999999996","","",""
"2581.2999992370605","4","confid","","","html-slider-response","990","824512","0.0-4.0-10.111-0.111","","","","Rate your confidence","1",""
"47.70000076293945","e","choice","left","e","experimental","997","826379","0.0-4.0-8.112","true","113","2.8499999999999996","","",""
"2334.1000003814697","4","confid","","","html-slider-response","999","829223","0.0-4.0-10.112-0.112","","","","Rate your confidence","1",""
"474.20000076293945","e","choice","right","i","experimental","1006","831543","0.0-4.0-8.113","false","114","2.8499999999999996","","",""
"2558.800001144409","4","confid","","","html-slider-response","1008","834609","0.0-4.0-10.113-0.113","","","","Rate your confidence","1",""
"312.1000003814697","i","choice","left","e","experimental","1015","836761","0.0-4.0-8.114","false","115","2.9499999999999997","","",""
"2286.800001144409","5","confid","","","html-slider-response","1017","839586","0.0-4.0-10.114-0.114","","","","Rate your confidence","1",""
"391.8999996185303","i","choice","right","i","experimental","1024","841782","0.0-4.0-8.115","true","116","3.05","","",""
"1835.6000003814697","5","confid","","","html-slider-response","1026","844126","0.0-4.0-10.115-0.115","","","","Rate your confidence","1",""
"241.60000038146973","e","choice","left","e","experimental","1033","846188","0.0-4.0-8.116","true","117","3.05","","",""
"1546.5","1","confid","","","html-slider-response","1035","848244","0.0-4.0-10.116-0.116","","","","Rate your confidence","1",""
"458.70000076293945","i","choice","right","i","experimental","1042","850539","0.0-4.0-8.117","true","118","2.9499999999999997","","",""
"2697.300001144409","4","confid","","","html-slider-response","1044","853744","0.0-4.0-10.117-0.117","","","","Rate your confidence","1",""
"136","e","choice","left","e","experimental","1051","855712","0.0-4.0-8.118","true","119","2.9499999999999997","","",""
"2753.3999996185303","6","confid","","","html-slider-response","1053","858976","0.0-4.0-10.118-0.118","","","","Rate your confidence","1",""
"276.3999996185303","i","choice","right","i","experimental","1060","861082","0.0-4.0-8.119","true","120","2.8499999999999996","","",""
"5608.800001144409","5","confid","","","html-slider-response","1062","867199","0.0-4.0-10.119-0.119","","","","Rate your confidence","1",""
"786","i","choice","left","e","experimental","1069","869789","0.0-4.0-8.120","false","121","2.8499999999999996","","",""
"3616.1000003814697","3","confid","","","html-slider-response","1071","873953","0.0-4.0-10.120-0.120","","","","Rate your confidence","1",""
"757.5","i","choice","right","i","experimental","1078","876516","0.0-4.0-8.121","true","122","2.9499999999999997","","",""
"2412.8999996185303","3","confid","","","html-slider-response","1080","879440","0.0-4.0-10.121-0.121","","","","Rate your confidence","1",""
"643.5","e","choice","right","i","experimental","1087","881942","0.0-4.0-8.122","false","123","2.9499999999999997","","",""
"3874.300001144409","4","confid","","","html-slider-response","1089","886323","0.0-4.0-10.122-0.122","","","","Rate your confidence","1",""
"693.0999984741211","e","choice","left","e","experimental","1096","888860","0.0-4.0-8.123","true","124","3.05","","",""
"3373.2000007629395","4","confid","","","html-slider-response","1098","892740","0.0-4.0-10.123-0.123","","","","Rate your confidence","1",""
"272.29999923706055","i","choice","left","e","experimental","1105","894839","0.0-4.0-8.124","false","125","3.05","","",""
"6187","5","confid","","","html-slider-response","1107","901533","0.0-4.0-10.124-0.124","","","","Rate your confidence","1",""
"285.20000076293945","i","choice","right","i","experimental","1114","903629","0.0-4.0-8.125","true","126","3.15","","",""
"3578.2999992370605","5","confid","","","html-slider-response","1116","907714","0.0-4.0-10.125-0.125","","","","Rate your confidence","1",""
"555.5999984741211","i","choice","right","i","experimental","1123","910092","0.0-4.0-8.126","true","127","3.15","","",""
"4900","6","confid","","","html-slider-response","1125","915501","0.0-4.0-10.126-0.126","","","","Rate your confidence","1",""
"895.6999988555908","i","choice","left","e","experimental","1132","918228","0.0-4.0-8.127","false","128","3.05","","",""
"2712.7000007629395","3","confid","","","html-slider-response","1134","921450","0.0-4.0-10.127-0.127","","","","Rate your confidence","1",""
"417.79999923706055","e","choice","right","i","experimental","1141","923679","0.0-4.0-8.128","false","129","3.15","","",""
"2391.3999996185303","1","confid","","","html-slider-response","1143","926581","0.0-4.0-10.128-0.128","","","","Rate your confidence","1",""
"307.70000076293945","e","choice","left","e","experimental","1150","928702","0.0-4.0-8.129","true","130","3.25","","",""
"2239.1000003814697","6","confid","","","html-slider-response","1152","931449","0.0-4.0-10.129-0.129","","","","Rate your confidence","1",""
"386.5","e","choice","right","i","experimental","1159","933646","0.0-4.0-8.130","false","131","3.25","","",""
"2282.6000003814697","2","confid","","","html-slider-response","1161","936436","0.0-4.0-10.130-0.130","","","","Rate your confidence","1",""
"498.79999923706055","e","choice","left","e","experimental","1168","938786","0.0-4.0-8.131","true","132","3.35","","",""
"1956.5","5","confid","","","html-slider-response","1170","941253","0.0-4.0-10.131-0.131","","","","Rate your confidence","1",""
"265","e","choice","left","e","experimental","1177","943387","0.0-4.0-8.132","true","133","3.35","","",""
"1503.3999996185303","4","confid","","","html-slider-response","1179","945400","0.0-4.0-10.132-0.132","","","","Rate your confidence","1",""
"4099.800001144409","i","choice","right","i","experimental","1186","951321","0.0-4.0-8.133","true","134","3.25","","",""
"3848.5","2","confid","","","html-slider-response","1188","955681","0.0-4.0-10.133-0.133","","","","Rate your confidence","1",""
"279.20000076293945","e","choice","left","e","experimental","1195","957777","0.0-4.0-8.134","true","135","3.25","","",""
"2059.300001144409","6","confid","","","html-slider-response","1197","960345","0.0-4.0-10.134-0.134","","","","Rate your confidence","1",""
"352.8999996185303","i","choice","right","i","experimental","1204","962527","0.0-4.0-8.135","true","136","3.15","","",""
"1480.5","6","confid","","","html-slider-response","1206","964518","0.0-4.0-10.135-0.135","","","","Rate your confidence","1",""
"241","i","choice","right","i","experimental","1213","966565","0.0-4.0-8.136","true","137","3.15","","",""
"1942.2999992370605","6","confid","","","html-slider-response","1215","969014","0.0-4.0-10.136-0.136","","","","Rate your confidence","1",""
"312.20000076293945","e","choice","left","e","experimental","1222","971178","0.0-4.0-8.137","true","138","3.05","","",""
"2604.699998855591","5","confid","","","html-slider-response","1224","974297","0.0-4.0-10.137-0.137","","","","Rate your confidence","1",""
"311.5","e","choice","right","i","experimental","1231","976421","0.0-4.0-8.138","false","139","3.05","","",""
"2277.199998855591","2","confid","","","html-slider-response","1233","979235","0.0-4.0-10.138-0.138","","","","Rate your confidence","1",""
"245.29999923706055","e","choice","left","e","experimental","1240","981297","0.0-4.0-8.139","true","140","3.15","","",""
"1779.7000007629395","6","confid","","","html-slider-response","1242","983596","0.0-4.0-10.139-0.139","","","","Rate your confidence","1",""
"186.29999923706055","e","choice","left","e","experimental","1249","985612","0.0-4.0-8.140","true","141","3.15","","",""
"2530.800001144409","6","confid","","","html-slider-response","1251","988652","0.0-4.0-10.140-0.140","","","","Rate your confidence","1",""
"253.60000038146973","i","choice","right","i","experimental","1258","990748","0.0-4.0-8.141","true","142","3.05","","",""
"1701.8999996185303","4","confid","","","html-slider-response","1260","992957","0.0-4.0-10.141-0.141","","","","Rate your confidence","1",""
"235.89999961853027","e","choice","left","e","experimental","1267","994996","0.0-4.0-8.142","true","143","3.05","","",""
"1966.6999988555908","6","confid","","","html-slider-response","1269","997500","0.0-4.0-10.142-0.142","","","","Rate your confidence","1",""
"355","e","choice","right","i","experimental","1276","999690","0.0-4.0-8.143","false","144","2.9499999999999997","","",""
"2097.2999992370605","5","confid","","","html-slider-response","1278","1002296","0.0-4.0-10.143-0.143","","","","Rate your confidence","1",""
"259.8000011444092","e","choice","left","e","experimental","1285","1004374","0.0-4.0-8.144","true","145","3.05","","",""
"3130.8999996185303","6","confid","","","html-slider-response","1287","1008013","0.0-4.0-10.144-0.144","","","","Rate your confidence","1",""
"151.80000114440918","i","choice","right","i","experimental","1294","1010004","0.0-4.0-8.145","true","146","3.05","","",""
"1819.2999992370605","6","confid","","","html-slider-response","1296","1012331","0.0-4.0-10.145-0.145","","","","Rate your confidence","1",""
"322.1000003814697","i","choice","right","i","experimental","1303","1014465","0.0-4.0-8.146","true","147","2.9499999999999997","","",""
"2129.1000003814697","3","confid","","","html-slider-response","1305","1017131","0.0-4.0-10.146-0.146","","","","Rate your confidence","1",""
"140.30000114440918","e","choice","left","e","experimental","1312","1019105","0.0-4.0-8.147","true","148","2.9499999999999997","","",""
"1992.6000003814697","6","confid","","","html-slider-response","1314","1021604","0.0-4.0-10.147-0.147","","","","Rate your confidence","1",""
"391.79999923706055","i","choice","right","i","experimental","1321","1023839","0.0-4.0-8.148","true","149","2.8499999999999996","","",""
"3059.6000003814697","4","confid","","","html-slider-response","1323","1027412","0.0-4.0-10.148-0.148","","","","Rate your confidence","1",""
"194.19999885559082","e","choice","left","e","experimental","1330","1029443","0.0-4.0-8.149","true","150","2.8499999999999996","","",""
"2275.8999996185303","4","confid","","","html-slider-response","1332","1032226","0.0-4.0-10.149-0.149","","","","Rate your confidence","1",""
"1201.7999992370605","e","choice","left","e","experimental","1339","1035237","0.0-4.0-8.150","true","151","2.7499999999999996","","",""
"2498.7000007629395","3","confid","","","html-slider-response","1341","1038245","0.0-4.0-10.150-0.150","","","","Rate your confidence","1",""
"341.70000076293945","e","choice","right","i","experimental","1348","1040398","0.0-4.0-8.151","false","152","2.7499999999999996","","",""
"2993.3999996185303","5","confid","","","html-slider-response","1350","1043908","0.0-4.0-10.151-0.151","","","","Rate your confidence","1",""
"316.29999923706055","e","choice","right","i","experimental","1358","1155868","0.0-4.0-8.152","false","153","2.8499999999999996","","",""
"1994.8999996185303","5","confid","","","html-slider-response","1360","1158371","0.0-4.0-10.152-0.152","","","","Rate your confidence","1",""
"479","i","choice","left","e","experimental","1367","1160653","0.0-4.0-8.153","false","154","2.9499999999999997","","",""
"2310.3999996185303","3","confid","","","html-slider-response","1369","1163476","0.0-4.0-10.153-0.153","","","","Rate your confidence","1",""
"384.6000003814697","i","choice","right","i","experimental","1376","1165685","0.0-4.0-8.154","true","155","3.05","","",""
"2324","5","confid","","","html-slider-response","1378","1168518","0.0-4.0-10.154-0.154","","","","Rate your confidence","1",""
"268.5","e","choice","left","e","experimental","1385","1170603","0.0-4.0-8.155","true","156","3.05","","",""
"4113.699998855591","6","confid","","","html-slider-response","1387","1175227","0.0-4.0-10.155-0.155","","","","Rate your confidence","1",""
"450.1000003814697","i","choice","right","i","experimental","1394","1177486","0.0-4.0-8.156","true","157","2.9499999999999997","","",""
"1997.6000003814697","6","confid","","","html-slider-response","1396","1179995","0.0-4.0-10.156-0.156","","","","Rate your confidence","1",""
"285.6000003814697","e","choice","left","e","experimental","1403","1182099","0.0-4.0-8.157","true","158","2.9499999999999997","","",""
"2035.5","4","confid","","","html-slider-response","1405","1184641","0.0-4.0-10.157-0.157","","","","Rate your confidence","1",""
"376.70000076293945","e","choice","left","e","experimental","1412","1186833","0.0-4.0-8.158","true","159","2.8499999999999996","","",""
"4728.799999237061","5","confid","","","html-slider-response","1414","1192068","0.0-4.0-10.158-0.158","","","","Rate your confidence","1",""
"246.89999961853027","e","choice","right","i","experimental","1421","1194152","0.0-4.0-8.159","false","160","2.8499999999999996","","",""
"2635.8999996185303","2","confid","","","html-slider-response","1423","1197298","0.0-4.0-10.159-0.159","","","","Rate your confidence","1",""
"325.79999923706055","e","choice","right","i","experimental","1430","1199440","0.0-4.0-8.160","false","161","2.9499999999999997","","",""
"3478.699998855591","2","confid","","","html-slider-response","1432","1203425","0.0-4.0-10.160-0.160","","","","Rate your confidence","1",""
"382","i","choice","left","e","experimental","1439","1205621","0.0-4.0-8.161","false","162","3.05","","",""
"2609","2","confid","","","html-slider-response","1441","1208741","0.0-4.0-10.161-0.161","","","","Rate your confidence","1",""
"238.29999923706055","e","choice","left","e","experimental","1448","1210792","0.0-4.0-8.162","true","163","3.15","","",""
"3659.7999992370605","6","confid","","","html-slider-response","1450","1214959","0.0-4.0-10.162-0.162","","","","Rate your confidence","1",""
"325","i","choice","right","i","experimental","1457","1217103","0.0-4.0-8.163","true","164","3.15","","",""
"3566.2999992370605","6","confid","","","html-slider-response","1459","1221176","0.0-4.0-10.163-0.163","","","","Rate your confidence","1",""
"172.30000114440918","e","choice","left","e","experimental","1466","1223192","0.0-4.0-8.164","true","165","3.05","","",""
"2893.8999996185303","6","confid","","","html-slider-response","1468","1226599","0.0-4.0-10.164-0.164","","","","Rate your confidence","1",""
"394.20000076293945","e","choice","right","i","experimental","1475","1228835","0.0-4.0-8.165","false","166","3.05","","",""
"1507.2999992370605","6","confid","","","html-slider-response","1477","1230859","0.0-4.0-10.165-0.165","","","","Rate your confidence","1",""
"283.29999923706055","e","choice","left","e","experimental","1484","1232956","0.0-4.0-8.166","true","167","3.15","","",""
"2254.5","6","confid","","","html-slider-response","1486","1235722","0.0-4.0-10.166-0.166","","","","Rate your confidence","1",""
"375.70000076293945","i","choice","right","i","experimental","1493","1237921","0.0-4.0-8.167","true","168","3.15","","",""
"6701.800001144409","5","confid","","","html-slider-response","1495","1245133","0.0-4.0-10.167-0.167","","","","Rate your confidence","1",""
"361.6000003814697","e","choice","right","i","experimental","1502","1247314","0.0-4.0-8.168","false","169","3.05","","",""
"1813.7999992370605","6","confid","","","html-slider-response","1504","1249637","0.0-4.0-10.168-0.168","","","","Rate your confidence","1",""
"488.3999996185303","e","choice","left","e","experimental","1511","1251936","0.0-4.0-8.169","true","170","3.15","","",""
"2440.1000003814697","6","confid","","","html-slider-response","1513","1254887","0.0-4.0-10.169-0.169","","","","Rate your confidence","1",""
"387.70000076293945","e","choice","left","e","experimental","1520","1257119","0.0-4.0-8.170","true","171","3.15","","",""
"3482","5","confid","","","html-slider-response","1522","1261111","0.0-4.0-10.170-0.170","","","","Rate your confidence","1",""
"427.29999923706055","i","choice","right","i","experimental","1529","1263350","0.0-4.0-8.171","true","172","3.05","","",""
"3297.300001144409","3","confid","","","html-slider-response","1531","1267163","0.0-4.0-10.171-0.171","","","","Rate your confidence","1",""
"506.6000003814697","e","choice","right","i","experimental","1538","1269502","0.0-4.0-8.172","false","173","3.05","","",""
"2903.7000007629395","3","confid","","","html-slider-response","1540","1272916","0.0-4.0-10.172-0.172","","","","Rate your confidence","1",""
"368.6000003814697","e","choice","left","e","experimental","1547","1275112","0.0-4.0-8.173","true","174","3.15","","",""
"2378.2999992370605","4","confid","","","html-slider-response","1549","1278004","0.0-4.0-10.173-0.173","","","","Rate your confidence","1",""
"399.8999996185303","e","choice","left","e","experimental","1556","1280228","0.0-4.0-8.174","true","175","3.15","","",""
"1830","5","confid","","","html-slider-response","1558","1282566","0.0-4.0-10.174-0.174","","","","Rate your confidence","1",""
"240.4000015258789","i","choice","right","i","experimental","1565","1284623","0.0-4.0-8.175","true","176","3.05","","",""
"2169.1000003814697","2","confid","","","html-slider-response","1567","1287301","0.0-4.0-10.175-0.175","","","","Rate your confidence","1",""
"1111.5","i","choice","right","i","experimental","1574","1290245","0.0-4.0-8.176","true","177","3.05","","",""
"2100.800001144409","4","confid","","","html-slider-response","1576","1292851","0.0-4.0-10.176-0.176","","","","Rate your confidence","1",""
"964.8999996185303","i","choice","left","e","experimental","1583","1295663","0.0-4.0-8.177","false","178","2.9499999999999997","","",""
"2103.1000003814697","3","confid","","","html-slider-response","1585","1298277","0.0-4.0-10.177-0.177","","","","Rate your confidence","1",""
"252","e","choice","right","i","experimental","1592","1300374","0.0-4.0-8.178","false","179","3.05","","",""
"2848.7000007629395","6","confid","","","html-slider-response","1594","1303732","0.0-4.0-10.178-0.178","","","","Rate your confidence","1",""
"267.5999984741211","e","choice","left","e","experimental","1601","1305838","0.0-4.0-8.179","true","180","3.15","","",""
"4232.599998474121","6","confid","","","html-slider-response","1603","1310584","0.0-4.0-10.179-0.179","","","","Rate your confidence","1",""
"239.79999923706055","i","choice","right","i","experimental","1610","1312652","0.0-4.0-8.180","true","181","3.15","","",""
"2700.8999996185303","6","confid","","","html-slider-response","1612","1315862","0.0-4.0-10.180-0.180","","","","Rate your confidence","1",""
"189.70000076293945","e","choice","left","e","experimental","1619","1317914","0.0-4.0-8.181","true","182","3.05","","",""
"2443.800001144409","6","confid","","","html-slider-response","1621","1320866","0.0-4.0-10.181-0.181","","","","Rate your confidence","1",""
"732.8999996185303","i","choice","right","i","experimental","1628","1323426","0.0-4.0-8.182","true","183","3.05","","",""
"1474.5","3","confid","","","html-slider-response","1630","1325411","0.0-4.0-10.182-0.182","","","","Rate your confidence","1",""
"301.8000011444092","e","choice","left","e","experimental","1637","1327519","0.0-4.0-8.183","true","184","2.9499999999999997","","",""
"2335.199998855591","6","confid","","","html-slider-response","1639","1330363","0.0-4.0-10.183-0.183","","","","Rate your confidence","1",""
"277.20000076293945","e","choice","left","e","experimental","1646","1332474","0.0-4.0-8.184","true","185","2.9499999999999997","","",""
"1845.8999996185303","6","confid","","","html-slider-response","1648","1334827","0.0-4.0-10.184-0.184","","","","Rate your confidence","1",""
"566.6999988555908","i","choice","right","i","experimental","1655","1337239","0.0-4.0-8.185","true","186","2.8499999999999996","","",""
"1619.5","5","confid","","","html-slider-response","1657","1339365","0.0-4.0-10.185-0.185","","","","Rate your confidence","1",""
"205.69999885559082","i","choice","right","i","experimental","1664","1341387","0.0-4.0-8.186","true","187","2.8499999999999996","","",""
"1636.3999996185303","5","confid","","","html-slider-response","1666","1343529","0.0-4.0-10.186-0.186","","","","Rate your confidence","1",""
"242.5","e","choice","left","e","experimental","1673","1345613","0.0-4.0-8.187","true","188","2.7499999999999996","","",""
"1414.3999996185303","6","confid","","","html-slider-response","1675","1347538","0.0-4.0-10.187-0.187","","","","Rate your confidence","1",""
"606.7000007629395","i","choice","left","e","experimental","1682","1349969","0.0-4.0-8.188","false","189","2.7499999999999996","","",""
"2397.2999992370605","2","confid","","","html-slider-response","1684","1352872","0.0-4.0-10.188-0.188","","","","Rate your confidence","1",""
"278.5999984741211","e","choice","right","i","experimental","1691","1354976","0.0-4.0-8.189","false","190","2.8499999999999996","","",""
"4107.800001144409","4","confid","","","html-slider-response","1693","1359591","0.0-4.0-10.189-0.189","","","","Rate your confidence","1",""
"231","e","choice","left","e","experimental","1700","1361677","0.0-4.0-8.190","true","191","2.9499999999999997","","",""
"2518.6000003814697","5","confid","","","html-slider-response","1702","1364706","0.0-4.0-10.190-0.190","","","","Rate your confidence","1",""
"282.29999923706055","e","choice","right","i","experimental","1709","1366834","0.0-4.0-8.191","false","192","2.9499999999999997","","",""
"2329.3999996185303","5","confid","","","html-slider-response","1711","1369673","0.0-4.0-10.191-0.191","","","","Rate your confidence","1",""
"431.3000011444092","i","choice","right","i","experimental","1718","1371921","0.0-4.0-8.192","true","193","3.05","","",""
"2320","6","confid","","","html-slider-response","1720","1374748","0.0-4.0-10.192-0.192","","","","Rate your confidence","1",""
"342.8999996185303","e","choice","left","e","experimental","1727","1376911","0.0-4.0-8.193","true","194","3.05","","",""
"2663.2999992370605","6","confid","","","html-slider-response","1729","1380081","0.0-4.0-10.193-0.193","","","","Rate your confidence","1","94755"
