"rt","response","task","target_side","correct_response","trial_type","trial_index","time_elapsed","internal_node_id","correct","trial_number","n_dots","stimulus","slider_start","participant"
"931.8000000119209","i","choice","right","i","practice","10","115125","0.0-4.0-8.0","true","1","4.25","","",""
"1038.5999999642372","e","choice","left","e","practice","18","118476","0.0-4.0-8.1","true","2","4.25","","",""
"878.6999999880791","i","choice","left","e","practice","26","121657","0.0-4.0-8.2","false","3","3.85","","",""
"555.0999999642372","i","choice","right","i","practice","34","124529","0.0-4.0-8.3","true","4","4.25","","",""
"539.8000000119209","e","choice","left","e","practice","42","127366","0.0-4.0-8.4","true","5","4.25","","",""
"458.69999998807907","i","choice","right","i","practice","50","130123","0.0-4.0-8.5","true","6","3.85","","",""
"464.5","e","choice","left","e","practice","58","132897","0.0-4.0-8.6","true","7","3.85","","",""
"446.30000001192093","i","choice","right","i","practice","66","135656","0.0-4.0-8.7","true","8","3.65","","",""
"618","e","choice","left","e","practice","74","138577","0.0-4.0-8.8","true","9","3.65","","",""
"571.7000000476837","i","choice","right","i","practice","82","141458","0.0-4.0-8.9","true","10","3.4499999999999997","","",""
"387.10000002384186","e","choice","left","e","practice","90","144148","0.0-4.0-8.10","true","11","3.4499999999999997","","",""
"468.19999998807907","i","choice","right","i","practice","98","146915","0.0-4.0-8.11","true","12","3.3499999999999996","","",""
"361.7000000476837","e","choice","right","i","practice","106","149576","0.0-4.0-8.12","false","13","3.3499999999999996","","",""
"622.2000000476837","i","choice","left","e","practice","114","152499","0.0-4.0-8.13","false","14","3.4499999999999997","","",""
"378.5999999642372","e","choice","left","e","practice","122","155163","0.0-4.0-8.14","true","15","3.55","","",""
"1232.199999988079","i","choice","right","i","practice","130","158673","0.0-4.0-8.15","true","16","3.55","","",""
"624.6000000238419","i","choice","right","i","practice","138","161570","0.0-4.0-8.16","true","17","3.4499999999999997","","",""
"463","i","choice","left","e","practice","146","164298","0.0-4.0-8.17","false","18","3.4499999999999997","","",""
"520.5999999642372","i","choice","right","i","practice","154","167097","0.0-4.0-8.18","true","19","3.55","","",""
"441.60000002384186","e","choice","left","e","practice","162","169818","0.0-4.0-8.19","true","20","3.55","","",""
"535.3000000119209","i","choice","right","i","practice","170","172634","0.0-4.0-8.20","true","21","3.4499999999999997","","",""
"453.9000000357628","i","choice","left","e","practice","178","175387","0.0-4.0-8.21","false","22","3.4499999999999997","","",""
"495.80000001192093","e","choice","left","e","practice","186","178181","0.0-4.0-8.22","true","23","3.55","","",""
"1774.6000000238419","i","choice","right","i","practice","194","182259","0.0-4.0-8.23","true","24","3.55","","",""
"604.9000000357628","e","choice","right","i","practice","202","185178","0.0-4.0-8.24","false","25","3.4499999999999997","","",""
"4302.600000023842","i","choice","left","e","practice","210","191793","0.0-4.0-8.25","false","26","3.55","","",""
"885.7000000476837","i","choice","right","i","experimental","221","259446","0.0-4.0-8.26","true","27","3.65","","",""
"4088.099999964237","3","confid","","","html-slider-response","223","264039","0.0-4.0-10.26-0.26","","","","Rate your confidence","1",""
"1303.0999999642372","e","choice","left","e","experimental","230","267133","0.0-4.0-8.27","true","28","3.65","","",""
"1768.9000000357628","3","confid","","","html-slider-response","232","269421","0.0-4.0-10.27-0.27","","","","Rate your confidence","1",""
"952.0999999642372","i","choice","right","i","experimental","239","272167","0.0-4.0-8.28","true","29","3.55","","",""
"2761.699999988079","3","confid","","","html-slider-response","241","275433","0.0-4.0-10.28-0.28","","","","Rate your confidence","1",""
"931","e","choice","left","e","experimental","248","278167","0.0-4.0-8.29","true","30","3.55","","",""
"2038.199999988079","4","confid","","","html-slider-response","250","280710","0.0-4.0-10.29-0.29","","","","Rate your confidence","1",""
"721.8000000119209","i","choice","left","e","experimental","257","283237","0.0-4.0-8.30","false","31","3.4499999999999997","","",""
"2083.900000035763","3","confid","","","html-slider-response","259","285826","0.0-4.0-10.30-0.30","","","","Rate your confidence","1",""
"2712.5","i","choice","right","i","experimental","266","290353","0.0-4.0-8.31","true","32","3.55","","",""
"2705.099999964237","4","confid","","","html-slider-response","268","293563","0.0-4.0-10.31-0.31","","","","Rate your confidence","1",""
"1887.699999988079","e","choice","right","i","experimental","275","297245","0.0-4.0-8.32","false","33","3.55","","",""
"1644.8999999761581","2","confid","","","html-slider-response","277","299396","0.0-4.0-10.32-0.32","","","","Rate your confidence","1",""
"771.3000000119209","i","choice","left","e","experimental","284","301969","0.0-4.0-8.33","false","34","3.65","","",""
"2481","3","confid","","","html-slider-response","286","304955","0.0-4.0-10.33-0.33","","","","Rate your confidence","1",""
"395.89999997615814","e","choice","left","e","experimental","293","307146","0.0-4.0-8.34","true","35","3.75","","",""
"1742.0999999642372","3","confid","","","html-slider-response","295","309392","0.0-4.0-10.34-0.34","","","","Rate your confidence","1",""
"486.9000000357628","i","choice","right","i","experimental","302","311684","0.0-4.0-8.35","true","36","3.75","","",""
"1639.5","3","confid","","","html-slider-response","304","313829","0.0-4.0-10.35-0.35","","","","Rate your confidence","1",""
"676.5999999642372","e","choice","left","e","experimental","311","316303","0.0-4.0-8.36","true","37","3.65","","",""
"1646.800000011921","4","confid","","","html-slider-response","313","318454","0.0-4.0-10.36-0.36","","","","Rate your confidence","1",""
"815","i","choice","right","i","experimental","320","321078","0.0-4.0-8.37","true","38","3.65","","",""
"1573.699999988079","3","confid","","","html-slider-response","322","323157","0.0-4.0-10.37-0.37","","","","Rate your confidence","1",""
"598.8000000119209","e","choice","right","i","experimental","329","325557","0.0-4.0-8.38","false","39","3.55","","",""
"2348.300000011921","3","confid","","","html-slider-response","331","328409","0.0-4.0-10.38-0.38","","","","Rate your confidence","1",""
"54.80000001192093","i","choice","left","e","experimental","338","330259","0.0-4.0-8.39","false","40","3.65","","",""
"1791.699999988079","3","confid","","","html-slider-response","340","332555","0.0-4.0-10.39-0.39","","","","Rate your confidence","1",""
"1230.8999999761581","e","choice","left","e","experimental","347","335595","0.0-4.0-8.40","true","41","3.75","","",""
"1644.1000000238419","2","confid","","","html-slider-response","349","337743","0.0-4.0-10.40-0.40","","","","Rate your confidence","1",""
"1186.300000011921","i","choice","right","i","experimental","356","340740","0.0-4.0-8.41","true","42","3.75","","",""
"1523.6000000238419","3","confid","","","html-slider-response","358","342767","0.0-4.0-10.41-0.41","","","","Rate your confidence","1",""
"1180.3999999761581","e","choice","left","e","experimental","365","345742","0.0-4.0-8.42","true","43","3.65","","",""
"3413.300000011921","3","confid","","","html-slider-response","367","349659","0.0-4.0-10.42-0.42","","","","Rate your confidence","1",""
"1227.2999999523163","i","choice","right","i","experimental","374","352685","0.0-4.0-8.43","true","44","3.65","","",""
"2078.399999976158","2","confid","","","html-slider-response","376","355267","0.0-4.0-10.43-0.43","","","","Rate your confidence","1",""
"892","i","choice","right","i","experimental","383","357967","0.0-4.0-8.44","true","45","3.55","","",""
"2183.100000023842","3","confid","","","html-slider-response","385","360654","0.0-4.0-10.44-0.44","","","","Rate your confidence","1",""
"758.1999999880791","e","choice","left","e","experimental","392","363217","0.0-4.0-8.45","true","46","3.55","","",""
"1885.800000011921","2","confid","","","html-slider-response","394","365608","0.0-4.0-10.45-0.45","","","","Rate your confidence","1",""
"984.8999999761581","e","choice","left","e","experimental","401","368403","0.0-4.0-8.46","true","47","3.4499999999999997","","",""
"2843.699999988079","4","confid","","","html-slider-response","403","371750","0.0-4.0-10.46-0.46","","","","Rate your confidence","1",""
"1338","e","choice","right","i","experimental","410","374900","0.0-4.0-8.47","false","48","3.4499999999999997","","",""
"1729.5999999642372","2","confid","","","html-slider-response","412","377137","0.0-4.0-10.47-0.47","","","","Rate your confidence","1",""
"731.6000000238419","e","choice","left","e","experimental","419","379664","0.0-4.0-8.48","true","49","3.55","","",""
"2187.2000000476837","5","confid","","","html-slider-response","421","382357","0.0-4.0-10.48-0.48","","","","Rate your confidence","1",""
"807.5","i","choice","right","i","experimental","428","384961","0.0-4.0-8.49","true","50","3.55","","",""
"2478.400000035763","2","confid","","","html-slider-response","430","387947","0.0-4.0-10.49-0.49","","","","Rate your confidence","1",""
"612.3000000119209","e","choice","left","e","experimental","437","390356","0.0-4.0-8.50","true","51","3.4499999999999997","","",""
"1628.5","3","confid","","","html-slider-response","439","392490","0.0-4.0-10.50-0.50","","","","Rate your confidence","1",""
"783.8000000119209","i","choice","right","i","experimental","446","395071","0.0-4.0-8.51","true","52","3.4499999999999997","","",""
"1423.800000011921","3","confid","","","html-slider-response","448","396998","0.0-4.0-10.51-0.51","","","","Rate your confidence","1",""
"678.7000000476837","e","choice","left","e","experimental","455","399488","0.0-4.0-8.52","true","53","3.3499999999999996","","",""
"1523.199999988079","2","confid","","","html-slider-response","457","401515","0.0-4.0-10.52-0.52","","","","Rate your confidence","1",""
"1046.199999988079","i","choice","right","i","experimental","464","404364","0.0-4.0-8.53","true","54","3.3499999999999996","","",""
"2715.099999964237","2","confid","","","html-slider-response","466","407583","0.0-4.0-10.53-0.53","","","","Rate your confidence","1",""
"1043.8999999761581","e","choice","right","i","experimental","473","410423","0.0-4.0-8.54","false","55","3.2499999999999996","","",""
"2217.100000023842","2","confid","","","html-slider-response","475","413145","0.0-4.0-10.54-0.54","","","","Rate your confidence","1",""
"1122.7000000476837","i","choice","left","e","experimental","482","416063","0.0-4.0-8.55","false","56","3.3499999999999996","","",""
"1886.300000011921","2","confid","","","html-slider-response","484","418454","0.0-4.0-10.55-0.55","","","","Rate your confidence","1",""
"2712.699999988079","i","choice","right","i","experimental","491","422955","0.0-4.0-8.56","true","57","3.4499999999999997","","",""
"1548.4000000357628","2","confid","","","html-slider-response","493","425009","0.0-4.0-10.56-0.56","","","","Rate your confidence","1",""
"692.3000000119209","e","choice","left","e","experimental","500","427508","0.0-4.0-8.57","true","58","3.4499999999999997","","",""
"2494.099999964237","3","confid","","","html-slider-response","502","430507","0.0-4.0-10.57-0.57","","","","Rate your confidence","1",""
"911.9000000357628","i","choice","right","i","experimental","509","433230","0.0-4.0-8.58","true","59","3.3499999999999996","","",""
"1732.9000000357628","3","confid","","","html-slider-response","511","435466","0.0-4.0-10.58-0.58","","","","Rate your confidence","1",""
"3362","e","choice","left","e","experimental","518","440628","0.0-4.0-8.59","true","60","3.3499999999999996","","",""
"2622.199999988079","4","confid","","","html-slider-response","520","443754","0.0-4.0-10.59-0.59","","","","Rate your confidence","1",""
"618","e","choice","left","e","experimental","527","446161","0.0-4.0-8.60","true","61","3.2499999999999996","","",""
"1759.2999999523163","1","confid","","","html-slider-response","529","448424","0.0-4.0-10.60-0.60","","","","Rate your confidence","1",""
"686.6999999880791","e","choice","right","i","experimental","536","450909","0.0-4.0-8.61","false","62","3.2499999999999996","","",""
"1659.300000011921","2","confid","","","html-slider-response","538","453074","0.0-4.0-10.61-0.61","","","","Rate your confidence","1",""
"1295.5","e","choice","left","e","experimental","545","456166","0.0-4.0-8.62","true","63","3.3499999999999996","","",""
"1952.699999988079","2","confid","","","html-slider-response","547","458623","0.0-4.0-10.62-0.62","","","","Rate your confidence","1",""
"2683.7999999523163","i","choice","right","i","experimental","554","463111","0.0-4.0-8.63","true","64","3.3499999999999996","","",""
"1553.2000000476837","2","confid","","","html-slider-response","556","465169","0.0-4.0-10.63-0.63","","","","Rate your confidence","1",""
"2430.899999976158","i","choice","right","i","experimental","563","469397","0.0-4.0-8.64","true","65","3.2499999999999996","","",""
"2215.699999988079","2","confid","","","html-slider-response","565","472118","0.0-4.0-10.64-0.64","","","","Rate your confidence","1",""
"809.6999999880791","e","choice","left","e","experimental","572","474732","0.0-4.0-8.65","true","66","3.2499999999999996","","",""
"1714.800000011921","1","confid","","","html-slider-response","574","476952","0.0-4.0-10.65-0.65","","","","Rate your confidence","1",""
"694","i","choice","right","i","experimental","581","479436","0.0-4.0-8.66","true","67","3.1499999999999995","","",""
"1567.800000011921","2","confid","","","html-slider-response","583","481508","0.0-4.0-10.66-0.66","","","","Rate your confidence","1",""
"751.9000000357628","i","choice","left","e","experimental","590","484053","0.0-4.0-8.67","false","68","3.1499999999999995","","",""
"1831.5999999642372","1","confid","","","html-slider-response","592","486389","0.0-4.0-10.67-0.67","","","","Rate your confidence","1",""
"753.3000000119209","e","choice","left","e","experimental","600","534389","0.0-4.0-8.68","true","69","3.2499999999999996","","",""
"1529.7999999523163","2","confid","","","html-slider-response","602","536423","0.0-4.0-10.68-0.68","","","","Rate your confidence","1",""
"1061","i","choice","right","i","experimental","609","539300","0.0-4.0-8.69","true","70","3.2499999999999996","","",""
"1716.2999999523163","2","confid","","","html-slider-response","611","541520","0.0-4.0-10.69-0.69","","","","Rate your confidence","1",""
"909.5","i","choice","left","e","experimental","618","544235","0.0-4.0-8.70","false","71","3.1499999999999995","","",""
"2647.699999988079","2","confid","","","html-slider-response","620","547387","0.0-4.0-10.70-0.70","","","","Rate your confidence","1",""
"661.1000000238419","i","choice","right","i","experimental","627","549848","0.0-4.0-8.71","true","72","3.2499999999999996","","",""
"2149","2","confid","","","html-slider-response","629","552503","0.0-4.0-10.71-0.71","","","","Rate your confidence","1",""
"925.5","e","choice","left","e","experimental","636","555238","0.0-4.0-8.72","true","73","3.2499999999999996","","",""
"1632.199999988079","1","confid","","","html-slider-response","638","557374","0.0-4.0-10.72-0.72","","","","Rate your confidence","1",""
"835.5","i","choice","right","i","experimental","645","560022","0.0-4.0-8.73","true","74","3.1499999999999995","","",""
"2468","3","confid","","","html-slider-response","647","562996","0.0-4.0-10.73-0.73","","","","Rate your confidence","1",""
"1085.300000011921","e","choice","right","i","experimental","654","565882","0.0-4.0-8.74","false","75","3.1499999999999995","","",""
"1778.5","1","confid","","","html-slider-response","656","568166","0.0-4.0-10.74-0.74","","","","Rate your confidence","1",""
"916.5","e","choice","left","e","experimental","663","570884","0.0-4.0-8.75","true","76","3.2499999999999996","","",""
"2054","1","confid","","","html-slider-response","665","573442","0.0-4.0-10.75-0.75","","","","Rate your confidence","1",""
"580.1000000238419","i","choice","left","e","experimental","672","575837","0.0-4.0-8.76","false","77","3.2499999999999996","","",""
"2635.199999988079","2","confid","","","html-slider-response","674","578978","0.0-4.0-10.76-0.76","","","","Rate your confidence","1",""
"4582","e","choice","right","i","experimental","681","585372","0.0-4.0-8.77","false","78","3.3499999999999996","","",""
"2331","2","confid","","","html-slider-response","683","588209","0.0-4.0-10.77-0.77","","","","Rate your confidence","1",""
"4823.899999976158","e","choice","right","i","experimental","690","594838","0.0-4.0-8.78","false","79","3.4499999999999997","","",""
"1895.9000000357628","1","confid","","","html-slider-response","692","597239","0.0-4.0-10.78-0.78","","","","Rate your confidence","1",""
"850.1999999880791","e","choice","left","e","experimental","699","599885","0.0-4.0-8.79","true","80","3.55","","",""
"1584.3999999761581","1","confid","","","html-slider-response","701","601974","0.0-4.0-10.79-0.79","","","","Rate your confidence","1",""
"558.6999999880791","i","choice","right","i","experimental","708","604333","0.0-4.0-8.80","true","81","3.55","","",""
"2784.300000011921","2","confid","","","html-slider-response","710","607621","0.0-4.0-10.80-0.80","","","","Rate your confidence","1",""
"715.3999999761581","e","choice","left","e","experimental","717","610150","0.0-4.0-8.81","true","82","3.4499999999999997","","",""
"1580.8999999761581","1","confid","","","html-slider-response","719","612234","0.0-4.0-10.81-0.81","","","","Rate your confidence","1",""
"980.1999999880791","i","choice","left","e","experimental","726","615023","0.0-4.0-8.82","false","83","3.4499999999999997","","",""
"1987.199999988079","1","confid","","","html-slider-response","728","617516","0.0-4.0-10.82-0.82","","","","Rate your confidence","1",""
"1496","i","choice","right","i","experimental","735","620810","0.0-4.0-8.83","true","84","3.55","","",""
"1921","1","confid","","","html-slider-response","737","623236","0.0-4.0-10.83-0.83","","","","Rate your confidence","1",""
"745.3000000119209","i","choice","left","e","experimental","744","625779","0.0-4.0-8.84","false","85","3.55","","",""
"1577.6000000238419","2","confid","","","html-slider-response","746","627877","0.0-4.0-10.84-0.84","","","","Rate your confidence","1",""
"680.7000000476837","i","choice","right","i","experimental","753","630355","0.0-4.0-8.85","true","86","3.65","","",""
"1621.800000011921","2","confid","","","html-slider-response","755","632481","0.0-4.0-10.85-0.85","","","","Rate your confidence","1",""
"1045.199999988079","i","choice","right","i","experimental","762","635343","0.0-4.0-8.86","true","87","3.65","","",""
"2006.4000000357628","2","confid","","","html-slider-response","764","637855","0.0-4.0-10.86-0.86","","","","Rate your confidence","1",""
"2259.5","e","choice","left","e","experimental","771","641928","0.0-4.0-8.87","true","88","3.55","","",""
"2915.7000000476837","2","confid","","","html-slider-response","773","645351","0.0-4.0-10.87-0.87","","","","Rate your confidence","1",""
"1135.4000000357628","e","choice","left","e","experimental","780","648286","0.0-4.0-8.88","true","89","3.55","","",""
"1705.699999988079","2","confid","","","html-slider-response","782","650498","0.0-4.0-10.88-0.88","","","","Rate your confidence","1",""
"2929.400000035763","i","choice","right","i","experimental","789","655232","0.0-4.0-8.89","true","90","3.4499999999999997","","",""
"2931.7999999523163","2","confid","","","html-slider-response","791","658667","0.0-4.0-10.89-0.89","","","","Rate your confidence","1",""
"5887","e","choice","right","i","experimental","798","666359","0.0-4.0-8.90","false","91","3.4499999999999997","","",""
"2764.699999988079","3","confid","","","html-slider-response","800","669628","0.0-4.0-10.90-0.90","","","","Rate your confidence","1",""
"1104.199999988079","i","choice","left","e","experimental","807","672536","0.0-4.0-8.91","false","92","3.55","","",""
"2854.400000035763","2","confid","","","html-slider-response","809","675896","0.0-4.0-10.91-0.91","","","","Rate your confidence","1",""
"1267","e","choice","left","e","experimental","816","678949","0.0-4.0-8.92","true","93","3.65","","",""
"2341.900000035763","3","confid","","","html-slider-response","818","681796","0.0-4.0-10.92-0.92","","","","Rate your confidence","1",""
"758.2000000476837","i","choice","right","i","experimental","825","684360","0.0-4.0-8.93","true","94","3.65","","",""
"2744.800000011921","2","confid","","","html-slider-response","827","687610","0.0-4.0-10.93-0.93","","","","Rate your confidence","1",""
"740","i","choice","right","i","experimental","834","690166","0.0-4.0-8.94","true","95","3.55","","",""
"1537.1000000238419","3","confid","","","html-slider-response","836","692208","0.0-4.0-10.94-0.94","","","","Rate your confidence","1",""
"1145.6000000238419","e","choice","left","e","experimental","843","695146","0.0-4.0-8.95","true","96","3.55","","",""
"3682.199999988079","1","confid","","","html-slider-response","845","699346","0.0-4.0-10.95-0.95","","","","Rate your confidence","1",""
"626.1999999880791","i","choice","left","e","experimental","852","701775","0.0-4.0-8.96","false","97","3.4499999999999997","","",""
"2207.899999976158","2","confid","","","html-slider-response","854","704488","0.0-4.0-10.96-0.96","","","","Rate your confidence","1",""
"1639.8999999761581","i","choice","right","i","experimental","861","707927","0.0-4.0-8.97","true","98","3.55","","",""
"3558.399999976158","3","confid","","","html-slider-response","863","711990","0.0-4.0-10.97-0.97","","","","Rate your confidence","1",""
"894.6000000238419","i","choice","left","e","experimental","870","714698","0.0-4.0-8.98","false","99","3.55","","",""
"1781.5","2","confid","","","html-slider-response","872","716984","0.0-4.0-10.98-0.98","","","","Rate your confidence","1",""
"1557.199999988079","e","choice","right","i","experimental","879","720347","0.0-4.0-8.99","false","100","3.65","","",""
"5230.400000035763","2","confid","","","html-slider-response","881","726082","0.0-4.0-10.99-0.99","","","","Rate your confidence","1",""
"680.7000000476837","i","choice","right","i","experimental","888","728568","0.0-4.0-8.100","true","101","3.75","","",""
"1730.1000000238419","2","confid","","","html-slider-response","890","730804","0.0-4.0-10.100-0.100","","","","Rate your confidence","1",""
"344.5999999642372","e","choice","left","e","experimental","897","732948","0.0-4.0-8.101","true","102","3.75","","",""
"14249.800000011921","2","confid","","","html-slider-response","899","747703","0.0-4.0-10.101-0.101","","","","Rate your confidence","1",""
"651.3999999761581","i","choice","left","e","experimental","906","750164","0.0-4.0-8.102","false","103","3.65","","",""
"1824.699999988079","3","confid","","","html-slider-response","908","752494","0.0-4.0-10.102-0.102","","","","Rate your confidence","1",""
"542","e","choice","right","i","experimental","915","754834","0.0-4.0-8.103","false","104","3.75","","",""
"1946","1","confid","","","html-slider-response","917","757287","0.0-4.0-10.103-0.103","","","","Rate your confidence","1",""
"652.3000000119209","i","choice","left","e","experimental","924","759739","0.0-4.0-8.104","false","105","3.85","","",""
"2717.600000023842","1","confid","","","html-slider-response","926","762961","0.0-4.0-10.104-0.104","","","","Rate your confidence","1",""
"1640","i","choice","right","i","experimental","933","766398","0.0-4.0-8.105","true","106","3.95","","",""
"2770.800000011921","1","confid","","","html-slider-response","935","769673","0.0-4.0-10.105-0.105","","","","Rate your confidence","1",""
"875","e","choice","left","e","experimental","942","772361","0.0-4.0-8.106","true","107","3.95","","",""
"1705.9000000357628","1","confid","","","html-slider-response","944","774573","0.0-4.0-10.106-0.106","","","","Rate your confidence","1",""
"582.6000000238419","i","choice","right","i","experimental","951","776964","0.0-4.0-8.107","true","108","3.85","","",""
"1419.300000011921","3","confid","","","html-slider-response","953","778887","0.0-4.0-10.107-0.107","","","","Rate your confidence","1",""
"878.4000000357628","e","choice","left","e","experimental","960","781564","0.0-4.0-8.108","true","109","3.85","","",""
"2561","2","confid","","","html-slider-response","962","784631","0.0-4.0-10.108-0.108","","","","Rate your confidence","1",""
"609.3000000119209","i","choice","right","i","experimental","969","787044","0.0-4.0-8.109","true","110","3.75","","",""
"1401.2999999523163","2","confid","","","html-slider-response","971","788964","0.0-4.0-10.109-0.109","","","","Rate your confidence","1",""
"583.4000000357628","e","choice","left","e","experimental","979","1027493","0.0-4.0-8.110","true","111","3.75","","",""
"2455.800000011921","1","confid","","","html-slider-response","981","1030453","0.0-4.0-10.110-0.110","","","","Rate your confidence","1",""
"655.6000000238419","i","choice","right","i","experimental","988","1032913","0.0-4.0-8.111","true","112","3.65","","",""
"1596.300000011921","2","confid","","","html-slider-response","990","1035013","0.0-4.0-10.111-0.111","","","","Rate your confidence","1",""
"359.7999999523163","e","choice","right","i","experimental","997","1037181","0.0-4.0-8.112","false","113","3.65","","",""
"1705.9000000357628","1","confid","","","html-slider-response","999","1039393","0.0-4.0-10.112-0.112","","","","Rate your confidence","1",""
"524","i","choice","left","e","experimental","1006","1041707","0.0-4.0-8.113","false","114","3.75","","",""
"2420.2999999523163","1","confid","","","html-slider-response","1008","1044632","0.0-4.0-10.113-0.113","","","","Rate your confidence","1",""
"438.69999998807907","i","choice","right","i","experimental","1015","1046870","0.0-4.0-8.114","true","115","3.85","","",""
"1983.4000000357628","1","confid","","","html-slider-response","1017","1049358","0.0-4.0-10.114-0.114","","","","Rate your confidence","1",""
"746.7999999523163","e","choice","left","e","experimental","1024","1051907","0.0-4.0-8.115","true","116","3.85","","",""
"2338.7000000476837","2","confid","","","html-slider-response","1026","1054752","0.0-4.0-10.115-0.115","","","","Rate your confidence","1",""
"648.3000000119209","i","choice","right","i","experimental","1033","1057212","0.0-4.0-8.116","true","117","3.75","","",""
"1672.800000011921","3","confid","","","html-slider-response","1035","1059391","0.0-4.0-10.116-0.116","","","","Rate your confidence","1",""
"2232.2000000476837","e","choice","left","e","experimental","1042","1063431","0.0-4.0-8.117","true","118","3.75","","",""
"1655.300000011921","2","confid","","","html-slider-response","1044","1065590","0.0-4.0-10.117-0.117","","","","Rate your confidence","1",""
"909.9000000357628","e","choice","left","e","experimental","1051","1068295","0.0-4.0-8.118","true","119","3.65","","",""
"1482.199999988079","2","confid","","","html-slider-response","1053","1070293","0.0-4.0-10.118-0.118","","","","Rate your confidence","1",""
"785.1000000238419","i","choice","right","i","experimental","1060","1072879","0.0-4.0-8.119","true","120","3.65","","",""
"3222.800000011921","2","confid","","","html-slider-response","1062","1076607","0.0-4.0-10.119-0.119","","","","Rate your confidence","1",""
"1020.6999999880791","e","choice","right","i","experimental","1069","1079435","0.0-4.0-8.120","false","121","3.55","","",""
"2899.7000000476837","2","confid","","","html-slider-response","1071","1082839","0.0-4.0-10.120-0.120","","","","Rate your confidence","1",""
"618.1999999880791","e","choice","left","e","experimental","1078","1085267","0.0-4.0-8.121","true","122","3.65","","",""
"1915.8999999761581","1","confid","","","html-slider-response","1080","1087690","0.0-4.0-10.121-0.121","","","","Rate your confidence","1",""
"2043.699999988079","e","choice","left","e","experimental","1087","1091540","0.0-4.0-8.122","true","123","3.65","","",""
"2575.399999976158","1","confid","","","html-slider-response","1089","1094620","0.0-4.0-10.122-0.122","","","","Rate your confidence","1",""
"804.1999999880791","i","choice","right","i","experimental","1096","1097219","0.0-4.0-8.123","true","124","3.55","","",""
"1763","1","confid","","","html-slider-response","1098","1099488","0.0-4.0-10.123-0.123","","","","Rate your confidence","1",""
"625.6000000238419","i","choice","right","i","experimental","1105","1101908","0.0-4.0-8.124","true","125","3.55","","",""
"2860.2000000476837","2","confid","","","html-slider-response","1107","1105273","0.0-4.0-10.124-0.124","","","","Rate your confidence","1",""
"822.3000000119209","i","choice","left","e","experimental","1114","1107908","0.0-4.0-8.125","false","126","3.4499999999999997","","",""
"1700.3999999761581","1","confid","","","html-slider-response","1116","1110113","0.0-4.0-10.125-0.125","","","","Rate your confidence","1",""
"1074.699999988079","e","choice","right","i","experimental","1123","1113002","0.0-4.0-8.126","false","127","3.55","","",""
"4476.700000047684","1","confid","","","html-slider-response","1125","1117983","0.0-4.0-10.126-0.126","","","","Rate your confidence","1",""
"873.1999999880791","e","choice","left","e","experimental","1132","1120662","0.0-4.0-8.127","true","128","3.65","","",""
"1931.199999988079","2","confid","","","html-slider-response","1134","1123099","0.0-4.0-10.127-0.127","","","","Rate your confidence","1",""
"658.1000000238419","i","choice","right","i","experimental","1141","1125556","0.0-4.0-8.128","true","129","3.65","","",""
"1467.699999988079","2","confid","","","html-slider-response","1143","1127529","0.0-4.0-10.128-0.128","","","","Rate your confidence","1",""
"885.1000000238419","e","choice","left","e","experimental","1150","1130215","0.0-4.0-8.129","true","130","3.55","","",""
"2359.699999988079","1","confid","","","html-slider-response","1152","1133079","0.0-4.0-10.129-0.129","","","","Rate your confidence","1",""
"1286.1000000238419","e","choice","left","e","experimental","1159","1136183","0.0-4.0-8.130","true","131","3.55","","",""
"1624.5","1","confid","","","html-slider-response","1161","1138314","0.0-4.0-10.130-0.130","","","","Rate your confidence","1",""
"653.3000000119209","i","choice","right","i","experimental","1168","1140783","0.0-4.0-8.131","true","132","3.4499999999999997","","",""
"1843.199999988079","1","confid","","","html-slider-response","1170","1143130","0.0-4.0-10.131-0.131","","","","Rate your confidence","1",""
"879.6000000238419","i","choice","right","i","experimental","1177","1145809","0.0-4.0-8.132","true","133","3.4499999999999997","","",""
"1486.5999999642372","1","confid","","","html-slider-response","1179","1147800","0.0-4.0-10.132-0.132","","","","Rate your confidence","1",""
"666.5","e","choice","left","e","experimental","1186","1150269","0.0-4.0-8.133","true","134","3.3499999999999996","","",""
"2478.5","2","confid","","","html-slider-response","1188","1153254","0.0-4.0-10.133-0.133","","","","Rate your confidence","1",""
"1078.4000000357628","i","choice","right","i","experimental","1195","1156132","0.0-4.0-8.134","true","135","3.3499999999999996","","",""
"2035.800000011921","2","confid","","","html-slider-response","1197","1158675","0.0-4.0-10.134-0.134","","","","Rate your confidence","1",""
"860.5","e","choice","left","e","experimental","1204","1161341","0.0-4.0-8.135","true","136","3.2499999999999996","","",""
"3229.199999988079","1","confid","","","html-slider-response","1206","1165075","0.0-4.0-10.135-0.135","","","","Rate your confidence","1",""
"5055.800000011921","i","choice","right","i","experimental","1213","1171947","0.0-4.0-8.136","true","137","3.2499999999999996","","",""
"1924.300000011921","2","confid","","","html-slider-response","1215","1174376","0.0-4.0-10.136-0.136","","","","Rate your confidence","1",""
"591","i","choice","left","e","experimental","1222","1176783","0.0-4.0-8.137","false","138","3.1499999999999995","","",""
"1887.7000000476837","1","confid","","","html-slider-response","1224","1179177","0.0-4.0-10.137-0.137","","","","Rate your confidence","1",""
"669.5999999642372","i","choice","right","i","experimental","1231","1181645","0.0-4.0-8.138","true","139","3.2499999999999996","","",""
"1749.3999999761581","1","confid","","","html-slider-response","1233","1183900","0.0-4.0-10.138-0.138","","","","Rate your confidence","1",""
"759.9000000357628","i","choice","left","e","experimental","1240","1186455","0.0-4.0-8.139","false","140","3.2499999999999996","","",""
"1860.5","2","confid","","","html-slider-response","1242","1188820","0.0-4.0-10.139-0.139","","","","Rate your confidence","1",""
"738.5","e","choice","left","e","experimental","1249","1191356","0.0-4.0-8.140","true","141","3.3499999999999996","","",""
"1852.5999999642372","1","confid","","","html-slider-response","1251","1193728","0.0-4.0-10.140-0.140","","","","Rate your confidence","1",""
"611.7999999523163","i","choice","right","i","experimental","1258","1196142","0.0-4.0-8.141","true","142","3.3499999999999996","","",""
"2212.100000023842","1","confid","","","html-slider-response","1260","1198859","0.0-4.0-10.141-0.141","","","","Rate your confidence","1",""
"2545.300000011921","i","choice","right","i","experimental","1267","1203216","0.0-4.0-8.142","true","143","3.2499999999999996","","",""
"1804.800000011921","1","confid","","","html-slider-response","1269","1205526","0.0-4.0-10.142-0.142","","","","Rate your confidence","1",""
"1031.699999988079","e","choice","left","e","experimental","1276","1208359","0.0-4.0-8.143","true","144","3.2499999999999996","","",""
"1628.5","2","confid","","","html-slider-response","1278","1210492","0.0-4.0-10.143-0.143","","","","Rate your confidence","1",""
"608.5","i","choice","right","i","experimental","1285","1212902","0.0-4.0-8.144","true","145","3.1499999999999995","","",""
"1684.300000011921","1","confid","","","html-slider-response","1287","1215090","0.0-4.0-10.144-0.144","","","","Rate your confidence","1",""
"679","e","choice","left","e","experimental","1294","1217568","0.0-4.0-8.145","true","146","3.1499999999999995","","",""
"3902.7000000476837","1","confid","","","html-slider-response","1296","1221975","0.0-4.0-10.145-0.145","","","","Rate your confidence","1",""
"632.3000000119209","i","choice","right","i","experimental","1303","1224422","0.0-4.0-8.146","true","147","3.0499999999999994","","",""
"1887.7999999523163","2","confid","","","html-slider-response","1305","1226815","0.0-4.0-10.146-0.146","","","","Rate your confidence","1",""
"896","e","choice","left","e","experimental","1312","1229523","0.0-4.0-8.147","true","148","3.0499999999999994","","",""
"1819.800000011921","1","confid","","","html-slider-response","1314","1231849","0.0-4.0-10.147-0.147","","","","Rate your confidence","1",""
"699","i","choice","right","i","experimental","1321","1234359","0.0-4.0-8.148","true","149","2.9499999999999993","","",""
"1639.5","2","confid","","","html-slider-response","1323","1236505","0.0-4.0-10.148-0.148","","","","Rate your confidence","1",""
"670.1000000238419","i","choice","left","e","experimental","1330","1238988","0.0-4.0-8.149","false","150","2.9499999999999993","","",""
"1771.5","1","confid","","","html-slider-response","1332","1241264","0.0-4.0-10.149-0.149","","","","Rate your confidence","1",""
"796.3999999761581","e","choice","left","e","experimental","1339","1243856","0.0-4.0-8.150","true","151","3.0499999999999994","","",""
"1622.1000000238419","1","confid","","","html-slider-response","1341","1245983","0.0-4.0-10.150-0.150","","","","Rate your confidence","1",""
"617.1000000238419","i","choice","right","i","experimental","1348","1248396","0.0-4.0-8.151","true","152","3.0499999999999994","","",""
"2212.300000011921","2","confid","","","html-slider-response","1350","1251113","0.0-4.0-10.151-0.151","","","","Rate your confidence","1",""
"765.0999999642372","i","choice","right","i","experimental","1358","1256239","0.0-4.0-8.152","true","153","2.9499999999999993","","",""
"1547.4000000357628","2","confid","","","html-slider-response","1360","1258290","0.0-4.0-10.152-0.152","","","","Rate your confidence","1",""
"726.7000000476837","i","choice","left","e","experimental","1367","1260827","0.0-4.0-8.153","false","154","2.9499999999999993","","",""
"2005.4000000357628","2","confid","","","html-slider-response","1369","1263340","0.0-4.0-10.153-0.153","","","","Rate your confidence","1",""
"629.5","i","choice","right","i","experimental","1376","1265768","0.0-4.0-8.154","true","155","3.0499999999999994","","",""
"1489.8999999761581","2","confid","","","html-slider-response","1378","1267775","0.0-4.0-10.154-0.154","","","","Rate your confidence","1",""
"677.3999999761581","e","choice","left","e","experimental","1385","1270247","0.0-4.0-8.155","true","156","3.0499999999999994","","",""
"1630.199999988079","2","confid","","","html-slider-response","1387","1272381","0.0-4.0-10.155-0.155","","","","Rate your confidence","1",""
"818.1000000238419","i","choice","right","i","experimental","1394","1275006","0.0-4.0-8.156","true","157","2.9499999999999993","","",""
"2420.199999988079","2","confid","","","html-slider-response","1396","1277931","0.0-4.0-10.156-0.156","","","","Rate your confidence","1",""
"645","e","choice","left","e","experimental","1403","1280386","0.0-4.0-8.157","true","158","2.9499999999999993","","",""
"1776.3999999761581","1","confid","","","html-slider-response","1405","1282667","0.0-4.0-10.157-0.157","","","","Rate your confidence","1",""
"591.5","i","choice","right","i","experimental","1412","1285056","0.0-4.0-8.158","true","159","2.849999999999999","","",""
"2086.199999988079","3","confid","","","html-slider-response","1414","1287661","0.0-4.0-10.158-0.158","","","","Rate your confidence","1",""
"789.5","e","choice","left","e","experimental","1421","1290246","0.0-4.0-8.159","true","160","2.849999999999999","","",""
"1933.8999999761581","1","confid","","","html-slider-response","1423","1292686","0.0-4.0-10.159-0.159","","","","Rate your confidence","1",""
"723.3000000119209","i","choice","left","e","experimental","1430","1295222","0.0-4.0-8.160","false","161","2.749999999999999","","",""
"3517","2","confid","","","html-slider-response","1432","1299246","0.0-4.0-10.160-0.160","","","","Rate your confidence","1",""
"648","i","choice","right","i","experimental","1439","1301704","0.0-4.0-8.161","true","162","2.849999999999999","","",""
"2748.7999999523163","2","confid","","","html-slider-response","1441","1304958","0.0-4.0-10.161-0.161","","","","Rate your confidence","1",""
"1530.2999999523163","e","choice","left","e","experimental","1448","1308304","0.0-4.0-8.162","true","163","2.849999999999999","","",""
"1790.199999988079","1","confid","","","html-slider-response","1450","1310601","0.0-4.0-10.162-0.162","","","","Rate your confidence","1",""
"572.6999999880791","i","choice","right","i","experimental","1457","1312974","0.0-4.0-8.163","true","164","2.749999999999999","","",""
"1632.2000000476837","2","confid","","","html-slider-response","1459","1315110","0.0-4.0-10.163-0.163","","","","Rate your confidence","1",""
"746","i","choice","left","e","experimental","1466","1317653","0.0-4.0-8.164","false","165","2.749999999999999","","",""
"1497.7999999523163","1","confid","","","html-slider-response","1468","1319658","0.0-4.0-10.164-0.164","","","","Rate your confidence","1",""
"855.1000000238419","i","choice","right","i","experimental","1475","1322332","0.0-4.0-8.165","true","166","2.849999999999999","","",""
"2216.5","2","confid","","","html-slider-response","1477","1325053","0.0-4.0-10.165-0.165","","","","Rate your confidence","1",""
"1790.3999999761581","e","choice","left","e","experimental","1484","1328643","0.0-4.0-8.166","true","167","2.849999999999999","","",""
"1956.1000000238419","1","confid","","","html-slider-response","1486","1331104","0.0-4.0-10.166-0.166","","","","Rate your confidence","1",""
"650.4000000357628","i","choice","right","i","experimental","1493","1333550","0.0-4.0-8.167","true","168","2.749999999999999","","",""
"2060.899999976158","1","confid","","","html-slider-response","1495","1336117","0.0-4.0-10.167-0.167","","","","Rate your confidence","1",""
"687.9000000357628","e","choice","left","e","experimental","1502","1338602","0.0-4.0-8.168","true","169","2.749999999999999","","",""
"1663.5","1","confid","","","html-slider-response","1504","1340772","0.0-4.0-10.168-0.168","","","","Rate your confidence","1",""
"683.8000000119209","i","choice","right","i","experimental","1511","1343259","0.0-4.0-8.169","true","170","2.649999999999999","","",""
"2154.900000035763","1","confid","","","html-slider-response","1513","1345919","0.0-4.0-10.169-0.169","","","","Rate your confidence","1",""
"934.3000000119209","e","choice","left","e","experimental","1520","1348666","0.0-4.0-8.170","true","171","2.649999999999999","","",""
"1609.800000011921","1","confid","","","html-slider-response","1522","1350781","0.0-4.0-10.170-0.170","","","","Rate your confidence","1",""
"864.8000000119209","i","choice","right","i","experimental","1529","1353453","0.0-4.0-8.171","true","172","2.549999999999999","","",""
"1792.0999999642372","1","confid","","","html-slider-response","1531","1355749","0.0-4.0-10.171-0.171","","","","Rate your confidence","1",""
"662.8000000119209","i","choice","left","e","experimental","1538","1358213","0.0-4.0-8.172","false","173","2.549999999999999","","",""
"2241.900000035763","1","confid","","","html-slider-response","1540","1360960","0.0-4.0-10.172-0.172","","","","Rate your confidence","1",""
"716.3999999761581","i","choice","right","i","experimental","1547","1363467","0.0-4.0-8.173","true","174","2.649999999999999","","",""
"1551.300000011921","2","confid","","","html-slider-response","1549","1365524","0.0-4.0-10.173-0.173","","","","Rate your confidence","1",""
"1143.5999999642372","e","choice","right","i","experimental","1556","1368469","0.0-4.0-8.174","false","175","2.649999999999999","","",""
"2066.699999988079","1","confid","","","html-slider-response","1558","1371041","0.0-4.0-10.174-0.174","","","","Rate your confidence","1",""
"827.8999999761581","e","choice","left","e","experimental","1565","1373671","0.0-4.0-8.175","true","176","2.749999999999999","","",""
"1972.1000000238419","2","confid","","","html-slider-response","1567","1376147","0.0-4.0-10.175-0.175","","","","Rate your confidence","1",""
"780.0999999642372","i","choice","left","e","experimental","1574","1378729","0.0-4.0-8.176","false","177","2.749999999999999","","",""
"1752.300000011921","1","confid","","","html-slider-response","1576","1380986","0.0-4.0-10.176-0.176","","","","Rate your confidence","1",""
"685.7999999523163","e","choice","right","i","experimental","1583","1383480","0.0-4.0-8.177","false","178","2.849999999999999","","",""
"1796.9000000357628","2","confid","","","html-slider-response","1585","1385784","0.0-4.0-10.177-0.177","","","","Rate your confidence","1",""
"601.0999999642372","i","choice","right","i","experimental","1592","1388177","0.0-4.0-8.178","true","179","2.9499999999999993","","",""
"2321.899999976158","2","confid","","","html-slider-response","1594","1391007","0.0-4.0-10.178-0.178","","","","Rate your confidence","1",""
"654.0999999642372","e","choice","left","e","experimental","1601","1393456","0.0-4.0-8.179","true","180","2.9499999999999993","","",""
"1481.699999988079","2","confid","","","html-slider-response","1603","1395442","0.0-4.0-10.179-0.179","","","","Rate your confidence","1",""
"832.5","e","choice","left","e","experimental","1610","1398102","0.0-4.0-8.180","true","181","2.849999999999999","","",""
"1663.2999999523163","2","confid","","","html-slider-response","1612","1400272","0.0-4.0-10.180-0.180","","","","Rate your confidence","1",""
"647.9000000357628","i","choice","right","i","experimental","1619","1402724","0.0-4.0-8.181","true","182","2.849999999999999","","",""
"1422.0999999642372","2","confid","","","html-slider-response","1621","1404653","0.0-4.0-10.181-0.181","","","","Rate your confidence","1",""
"720.1999999880791","e","choice","left","e","experimental","1628","1407186","0.0-4.0-8.182","true","183","2.749999999999999","","",""
"1777.1000000238419","1","confid","","","html-slider-response","1630","1409468","0.0-4.0-10.182-0.182","","","","Rate your confidence","1",""
"671.1999999880791","i","choice","right","i","experimental","1637","1411943","0.0-4.0-8.183","true","184","2.749999999999999","","",""
"1813.199999988079","1","confid","","","html-slider-response","1639","1414260","0.0-4.0-10.183-0.183","","","","Rate your confidence","1",""
"542.9000000357628","i","choice","right","i","experimental","1646","1416603","0.0-4.0-8.184","true","185","2.649999999999999","","",""
"1818.199999988079","1","confid","","","html-slider-response","1648","1418929","0.0-4.0-10.184-0.184","","","","Rate your confidence","1",""
"926.3999999761581","i","choice","left","e","experimental","1655","1421659","0.0-4.0-8.185","false","186","2.649999999999999","","",""
"1985.0999999642372","2","confid","","","html-slider-response","1657","1424149","0.0-4.0-10.185-0.185","","","","Rate your confidence","1",""
"544.5999999642372","i","choice","right","i","experimental","1664","1426503","0.0-4.0-8.186","true","187","2.749999999999999","","",""
"1381.5","2","confid","","","html-slider-response","1666","1428390","0.0-4.0-10.186-0.186","","","","Rate your confidence","1",""
"553","e","choice","left","e","experimental","1673","1430751","0.0-4.0-8.187","true","188","2.749999999999999","","",""
"1690.9000000357628","1","confid","","","html-slider-response","1675","1432947","0.0-4.0-10.187-0.187","","","","Rate your confidence","1",""
"622.5","i","choice","left","e","experimental","1682","1435386","0.0-4.0-8.188","false","189","2.649999999999999","","",""
"1938.0999999642372","2","confid","","","html-slider-response","1684","1437829","0.0-4.0-10.188-0.188","","","","Rate your confidence","1",""
"874.5","i","choice","right","i","experimental","1691","1440502","0.0-4.0-8.189","true","190","2.749999999999999","","",""
"2177.599999964237","1","confid","","","html-slider-response","1693","1443185","0.0-4.0-10.189-0.189","","","","Rate your confidence","1",""
"611","i","choice","right","i","experimental","1700","1445594","0.0-4.0-8.190","true","191","2.749999999999999","","",""
"3525","2","confid","","","html-slider-response","1702","1449625","0.0-4.0-10.190-0.190","","","","Rate your confidence","1",""
"507.80000001192093","i","choice","left","e","experimental","1709","1451950","0.0-4.0-8.191","false","192","2.649999999999999","","",""
"1804.7999999523163","2","confid","","","html-slider-response","1711","1454263","0.0-4.0-10.191-0.191","","","","Rate your confidence","1",""
"490.9000000357628","i","choice","left","e","experimental","1718","1456550","0.0-4.0-8.192","false","193","2.749999999999999","","",""
"2467.699999988079","2","confid","","","html-slider-response","1720","1459523","0.0-4.0-10.192-0.192","","","","Rate your confidence","1",""
"585.5","i","choice","right","i","experimental","1727","1461920","0.0-4.0-8.193","true","194","2.849999999999999","","",""
"1661.5999999642372","1","confid","","","html-slider-response","1729","1464087","0.0-4.0-10.193-0.193","","","","Rate your confidence","1","86644"
