"rt","response","task","target_side","correct_response","trial_type","trial_index","time_elapsed","internal_node_id","correct","trial_number","n_dots","stimulus","slider_start","participant"
"2038.9000000059605","e","choice","left","e","practice","10","92193","0.0-4.0-8.0","true","1","4.25","","",""
"499.19999998807907","i","choice","right","i","practice","18","94994","0.0-4.0-8.1","true","2","4.25","","",""
"94","e","choice","left","e","practice","26","97384","0.0-4.0-8.2","true","3","3.85","","",""
"299.69999998807907","i","choice","right","i","practice","34","99968","0.0-4.0-8.3","true","4","3.85","","",""
"29.69999998807907","e","choice","left","e","practice","42","102296","0.0-4.0-8.4","true","5","3.45","","",""
"368.69999998807907","i","choice","right","i","practice","50","104943","0.0-4.0-8.5","true","6","3.45","","",""
"201.60000002384186","i","choice","left","e","practice","58","107438","0.0-4.0-8.6","false","7","3.25","","",""
"1003.0999999940395","e","choice","right","i","practice","66","110736","0.0-4.0-8.7","false","8","3.45","","",""
"403.09999999403954","e","choice","left","e","practice","74","113421","0.0-4.0-8.8","true","9","3.6500000000000004","","",""
"157.40000000596046","e","choice","right","i","practice","82","115863","0.0-4.0-8.9","false","10","3.6500000000000004","","",""
"185.40000000596046","e","choice","right","i","practice","90","118339","0.0-4.0-8.10","false","11","3.8500000000000005","","",""
"37.30000001192093","i","choice","left","e","practice","98","120672","0.0-4.0-8.11","false","12","3.9500000000000006","","",""
"38.70000001788139","e","choice","left","e","practice","106","123005","0.0-4.0-8.12","true","13","4.050000000000001","","",""
"17.099999994039536","e","choice","right","i","practice","114","125307","0.0-4.0-8.13","false","14","4.050000000000001","","",""
"99.09999999403954","e","choice","left","e","practice","122","127689","0.0-4.0-8.14","true","15","4.15","","",""
"218.59999999403954","e","choice","right","i","practice","130","130197","0.0-4.0-8.15","false","16","4.15","","",""
"128.39999997615814","e","choice","left","e","practice","138","132624","0.0-4.0-8.16","true","17","4.25","","",""
"185.7000000178814","i","choice","right","i","practice","146","135097","0.0-4.0-8.17","true","18","4.25","","",""
"541.2000000178814","i","choice","right","i","practice","154","137917","0.0-4.0-8.18","true","19","4.15","","",""
"530.7999999821186","i","choice","left","e","practice","162","140745","0.0-4.0-8.19","false","20","4.15","","",""
"459.2000000178814","i","choice","right","i","practice","170","143494","0.0-4.0-8.20","true","21","4.25","","",""
"214.59999999403954","e","choice","left","e","practice","178","145991","0.0-4.0-8.21","true","22","4.25","","",""
"191.59999999403954","i","choice","right","i","practice","186","148474","0.0-4.0-8.22","true","23","4.15","","",""
"517","e","choice","left","e","practice","194","151269","0.0-4.0-8.23","true","24","4.15","","",""
"321.30000001192093","e","choice","left","e","practice","202","153883","0.0-4.0-8.24","true","25","4.050000000000001","","",""
"261","i","choice","right","i","practice","210","156447","0.0-4.0-8.25","true","26","4.050000000000001","","",""
"519.1999999880791","e","choice","left","e","experimental","221","193992","0.0-4.0-8.26","true","27","3.9500000000000006","","",""
"4056.899999976158","3","confid","","","html-slider-response","223","198553","0.0-4.0-10.26-0.26","","","","Rate your confidence","1",""
"695.9000000059605","e","choice","right","i","experimental","230","201027","0.0-4.0-8.27","false","28","3.9500000000000006","","",""
"7608.4000000059605","1","confid","","","html-slider-response","232","209139","0.0-4.0-10.27-0.27","","","","Rate your confidence","1",""
"522.8000000119209","e","choice","right","i","experimental","239","211446","0.0-4.0-8.28","false","29","4.050000000000001","","",""
"2552.0999999940395","4","confid","","","html-slider-response","241","214501","0.0-4.0-10.28-0.28","","","","Rate your confidence","1",""
"425.40000000596046","e","choice","left","e","experimental","248","216709","0.0-4.0-8.29","true","30","4.15","","",""
"3243.5999999940395","4","confid","","","html-slider-response","250","220455","0.0-4.0-10.29-0.29","","","","Rate your confidence","1",""
"741.5","i","choice","left","e","experimental","257","222988","0.0-4.0-8.30","false","31","4.15","","",""
"2581.800000011921","1","confid","","","html-slider-response","259","226076","0.0-4.0-10.30-0.30","","","","Rate your confidence","1",""
"625.5","e","choice","right","i","experimental","266","228504","0.0-4.0-8.31","false","32","4.25","","",""
"2918.800000011921","2","confid","","","html-slider-response","268","231926","0.0-4.0-10.31-0.31","","","","Rate your confidence","1",""
"837","e","choice","right","i","experimental","275","234550","0.0-4.0-8.32","false","33","4.35","","",""
"3043.4000000059605","1","confid","","","html-slider-response","277","238100","0.0-4.0-10.32-0.32","","","","Rate your confidence","1",""
"409","e","choice","left","e","experimental","284","240288","0.0-4.0-8.33","true","34","4.449999999999999","","",""
"2208.199999988079","4","confid","","","html-slider-response","286","242999","0.0-4.0-10.33-0.33","","","","Rate your confidence","1",""
"371.2000000178814","e","choice","left","e","experimental","293","245172","0.0-4.0-8.34","true","35","4.449999999999999","","",""
"2060.0999999940395","5","confid","","","html-slider-response","295","247735","0.0-4.0-10.34-0.34","","","","Rate your confidence","1",""
"415.39999997615814","i","choice","right","i","experimental","302","249952","0.0-4.0-8.35","true","36","4.35","","",""
"1830.0999999940395","2","confid","","","html-slider-response","304","252284","0.0-4.0-10.35-0.35","","","","Rate your confidence","1",""
"343","e","choice","left","e","experimental","311","254424","0.0-4.0-8.36","true","37","4.35","","",""
"1850","4","confid","","","html-slider-response","313","256777","0.0-4.0-10.36-0.36","","","","Rate your confidence","1",""
"671.5999999940395","e","choice","right","i","experimental","320","259233","0.0-4.0-8.37","false","38","4.25","","",""
"3557.4000000059605","1","confid","","","html-slider-response","322","263293","0.0-4.0-10.37-0.37","","","","Rate your confidence","1",""
"570.4000000059605","e","choice","left","e","experimental","329","265644","0.0-4.0-8.38","true","39","4.35","","",""
"2114.399999976158","6","confid","","","html-slider-response","331","268265","0.0-4.0-10.38-0.38","","","","Rate your confidence","1",""
"370.10000002384186","i","choice","right","i","experimental","338","270432","0.0-4.0-8.39","true","40","4.35","","",""
"2147.5999999940395","4","confid","","","html-slider-response","340","273083","0.0-4.0-10.39-0.39","","","","Rate your confidence","1",""
"362","e","choice","left","e","experimental","347","275239","0.0-4.0-8.40","true","41","4.25","","",""
"1634.5","5","confid","","","html-slider-response","349","277380","0.0-4.0-10.40-0.40","","","","Rate your confidence","1",""
"1048.300000011921","i","choice","right","i","experimental","356","280214","0.0-4.0-8.41","true","42","4.25","","",""
"2119.5999999940395","2","confid","","","html-slider-response","358","282837","0.0-4.0-10.41-0.41","","","","Rate your confidence","1",""
"349.2999999821186","i","choice","right","i","experimental","365","284970","0.0-4.0-8.42","true","43","4.15","","",""
"2353.800000011921","4","confid","","","html-slider-response","367","287827","0.0-4.0-10.42-0.42","","","","Rate your confidence","1",""
"429.80000001192093","e","choice","left","e","experimental","374","290042","0.0-4.0-8.43","true","44","4.15","","",""
"3046","4","confid","","","html-slider-response","376","293595","0.0-4.0-10.43-0.43","","","","Rate your confidence","1",""
"348.69999998807907","e","choice","left","e","experimental","383","295731","0.0-4.0-8.44","true","45","4.050000000000001","","",""
"1453.199999988079","4","confid","","","html-slider-response","385","297689","0.0-4.0-10.44-0.44","","","","Rate your confidence","1",""
"333","i","choice","right","i","experimental","392","299818","0.0-4.0-8.45","true","46","4.050000000000001","","",""
"1275.800000011921","3","confid","","","html-slider-response","394","301598","0.0-4.0-10.45-0.45","","","","Rate your confidence","1",""
"610.5","e","choice","right","i","experimental","401","303988","0.0-4.0-8.46","false","47","3.9500000000000006","","",""
"1962.300000011921","1","confid","","","html-slider-response","403","306454","0.0-4.0-10.46-0.46","","","","Rate your confidence","1",""
"371.60000002384186","e","choice","left","e","experimental","410","308603","0.0-4.0-8.47","true","48","4.050000000000001","","",""
"1850.3999999761581","4","confid","","","html-slider-response","412","310956","0.0-4.0-10.47-0.47","","","","Rate your confidence","1",""
"317.09999999403954","i","choice","right","i","experimental","419","313066","0.0-4.0-8.48","true","49","4.050000000000001","","",""
"1514.4000000059605","3","confid","","","html-slider-response","421","315084","0.0-4.0-10.48-0.48","","","","Rate your confidence","1",""
"358.89999997615814","i","choice","left","e","experimental","428","317222","0.0-4.0-8.49","false","50","3.9500000000000006","","",""
"1754.2999999821186","3","confid","","","html-slider-response","430","319479","0.0-4.0-10.49-0.49","","","","Rate your confidence","1",""
"333.19999998807907","i","choice","right","i","experimental","437","321598","0.0-4.0-8.50","true","51","4.050000000000001","","",""
"2746.5999999940395","3","confid","","","html-slider-response","439","324850","0.0-4.0-10.50-0.50","","","","Rate your confidence","1",""
"328.7999999821186","e","choice","left","e","experimental","446","326960","0.0-4.0-8.51","true","52","4.050000000000001","","",""
"1376.5999999940395","4","confid","","","html-slider-response","448","328839","0.0-4.0-10.51-0.51","","","","Rate your confidence","1",""
"322.90000000596046","i","choice","right","i","experimental","455","330955","0.0-4.0-8.52","true","53","3.9500000000000006","","",""
"1555.5","4","confid","","","html-slider-response","457","333013","0.0-4.0-10.52-0.52","","","","Rate your confidence","1",""
"383.5","e","choice","left","e","experimental","464","335191","0.0-4.0-8.53","true","54","3.9500000000000006","","",""
"1909.7000000178814","5","confid","","","html-slider-response","466","337603","0.0-4.0-10.53-0.53","","","","Rate your confidence","1",""
"538.1000000238419","i","choice","right","i","experimental","473","339922","0.0-4.0-8.54","true","55","3.8500000000000005","","",""
"2457","4","confid","","","html-slider-response","475","342884","0.0-4.0-10.54-0.54","","","","Rate your confidence","1",""
"432.30000001192093","e","choice","left","e","experimental","482","345095","0.0-4.0-8.55","true","56","3.8500000000000005","","",""
"1527.0999999940395","5","confid","","","html-slider-response","484","347126","0.0-4.0-10.55-0.55","","","","Rate your confidence","1",""
"439.09999999403954","e","choice","left","e","experimental","491","349364","0.0-4.0-8.56","true","57","3.7500000000000004","","",""
"1654.4000000059605","5","confid","","","html-slider-response","493","351521","0.0-4.0-10.56-0.56","","","","Rate your confidence","1",""
"430.59999999403954","i","choice","right","i","experimental","500","353734","0.0-4.0-8.57","true","58","3.7500000000000004","","",""
"1680.1000000238419","2","confid","","","html-slider-response","502","355917","0.0-4.0-10.57-0.57","","","","Rate your confidence","1",""
"289.89999997615814","e","choice","right","i","experimental","509","357992","0.0-4.0-8.58","false","59","3.6500000000000004","","",""
"2733","2","confid","","","html-slider-response","511","361231","0.0-4.0-10.58-0.58","","","","Rate your confidence","1",""
"321.5","e","choice","left","e","experimental","518","363331","0.0-4.0-8.59","true","60","3.7500000000000004","","",""
"1526.5999999940395","3","confid","","","html-slider-response","520","365360","0.0-4.0-10.59-0.59","","","","Rate your confidence","1",""
"149.59999999403954","i","choice","right","i","experimental","527","367305","0.0-4.0-8.60","true","61","3.7500000000000004","","",""
"1872.7000000178814","2","confid","","","html-slider-response","529","369680","0.0-4.0-10.60-0.60","","","","Rate your confidence","1",""
"323.69999998807907","e","choice","left","e","experimental","536","371797","0.0-4.0-8.61","true","62","3.6500000000000004","","",""
"1758.699999988079","4","confid","","","html-slider-response","538","374059","0.0-4.0-10.61-0.61","","","","Rate your confidence","1",""
"295.2999999821186","e","choice","left","e","experimental","545","376149","0.0-4.0-8.62","true","63","3.6500000000000004","","",""
"3264.100000023842","4","confid","","","html-slider-response","547","379919","0.0-4.0-10.62-0.62","","","","Rate your confidence","1",""
"375.30000001192093","i","choice","right","i","experimental","554","382074","0.0-4.0-8.63","true","64","3.5500000000000003","","",""
"3871.7999999821186","4","confid","","","html-slider-response","556","386450","0.0-4.0-10.63-0.63","","","","Rate your confidence","1",""
"314.80000001192093","i","choice","right","i","experimental","563","388548","0.0-4.0-8.64","true","65","3.5500000000000003","","",""
"1500.300000011921","5","confid","","","html-slider-response","565","390553","0.0-4.0-10.64-0.64","","","","Rate your confidence","1",""
"895.1999999880791","i","choice","left","e","experimental","572","393247","0.0-4.0-8.65","false","66","3.45","","",""
"1864.9000000059605","2","confid","","","html-slider-response","574","395617","0.0-4.0-10.65-0.65","","","","Rate your confidence","1",""
"291.7000000178814","i","choice","right","i","experimental","581","397705","0.0-4.0-8.66","true","67","3.5500000000000003","","",""
"1487.7999999821186","4","confid","","","html-slider-response","583","399695","0.0-4.0-10.66-0.66","","","","Rate your confidence","1",""
"297.7999999821186","i","choice","left","e","experimental","590","401773","0.0-4.0-8.67","false","68","3.5500000000000003","","",""
"2269.5999999940395","2","confid","","","html-slider-response","592","404545","0.0-4.0-10.67-0.67","","","","Rate your confidence","1",""
"1328","i","choice","right","i","experimental","600","561533","0.0-4.0-8.68","true","69","3.6500000000000004","","",""
"3064.399999976158","2","confid","","","html-slider-response","602","565101","0.0-4.0-10.68-0.68","","","","Rate your confidence","1",""
"348.40000000596046","e","choice","left","e","experimental","609","567246","0.0-4.0-8.69","true","70","3.6500000000000004","","",""
"2089.199999988079","5","confid","","","html-slider-response","611","569838","0.0-4.0-10.69-0.69","","","","Rate your confidence","1",""
"429.30000001192093","e","choice","right","i","experimental","618","572061","0.0-4.0-8.70","false","71","3.5500000000000003","","",""
"1539.5999999940395","4","confid","","","html-slider-response","620","574103","0.0-4.0-10.70-0.70","","","","Rate your confidence","1",""
"152.2000000178814","e","choice","left","e","experimental","627","576043","0.0-4.0-8.71","true","72","3.6500000000000004","","",""
"3600.5","2","confid","","","html-slider-response","629","580149","0.0-4.0-10.71-0.71","","","","Rate your confidence","1",""
"338.40000000596046","e","choice","left","e","experimental","636","582271","0.0-4.0-8.72","true","73","3.6500000000000004","","",""
"1973.300000011921","4","confid","","","html-slider-response","638","584748","0.0-4.0-10.72-0.72","","","","Rate your confidence","1",""
"558.4000000059605","i","choice","right","i","experimental","645","587107","0.0-4.0-8.73","true","74","3.5500000000000003","","",""
"1849.4000000059605","1","confid","","","html-slider-response","647","589460","0.0-4.0-10.73-0.73","","","","Rate your confidence","1",""
"402.7999999821186","i","choice","right","i","experimental","654","591661","0.0-4.0-8.74","true","75","3.5500000000000003","","",""
"1586.0999999940395","4","confid","","","html-slider-response","656","593750","0.0-4.0-10.74-0.74","","","","Rate your confidence","1",""
"692.1999999880791","e","choice","left","e","experimental","663","596223","0.0-4.0-8.75","true","76","3.45","","",""
"1360.7999999821186","3","confid","","","html-slider-response","665","598087","0.0-4.0-10.75-0.75","","","","Rate your confidence","1",""
"584.6000000238419","e","choice","right","i","experimental","672","600457","0.0-4.0-8.76","false","77","3.45","","",""
"2715.199999988079","2","confid","","","html-slider-response","674","603675","0.0-4.0-10.76-0.76","","","","Rate your confidence","1",""
"289.19999998807907","e","choice","left","e","experimental","681","605762","0.0-4.0-8.77","true","78","3.5500000000000003","","",""
"2367.5","5","confid","","","html-slider-response","683","608632","0.0-4.0-10.77-0.77","","","","Rate your confidence","1",""
"357.30000001192093","i","choice","right","i","experimental","690","610773","0.0-4.0-8.78","true","79","3.5500000000000003","","",""
"1674.2999999821186","4","confid","","","html-slider-response","692","612951","0.0-4.0-10.78-0.78","","","","Rate your confidence","1",""
"330.89999997615814","e","choice","left","e","experimental","699","615067","0.0-4.0-8.79","true","80","3.45","","",""
"2412.5999999940395","5","confid","","","html-slider-response","701","617997","0.0-4.0-10.79-0.79","","","","Rate your confidence","1",""
"856.5999999940395","e","choice","left","e","experimental","708","620633","0.0-4.0-8.80","true","81","3.45","","",""
"1829.300000011921","1","confid","","","html-slider-response","710","622968","0.0-4.0-10.80-0.80","","","","Rate your confidence","1",""
"498","i","choice","right","i","experimental","717","625267","0.0-4.0-8.81","true","82","3.35","","",""
"1567.7000000178814","2","confid","","","html-slider-response","719","627338","0.0-4.0-10.81-0.81","","","","Rate your confidence","1",""
"417.19999998807907","e","choice","left","e","experimental","726","629554","0.0-4.0-8.82","true","83","3.35","","",""
"2461.2999999821186","4","confid","","","html-slider-response","728","632521","0.0-4.0-10.82-0.82","","","","Rate your confidence","1",""
"498.5","i","choice","right","i","experimental","735","634804","0.0-4.0-8.83","true","84","3.25","","",""
"2882.800000011921","1","confid","","","html-slider-response","737","638189","0.0-4.0-10.83-0.83","","","","Rate your confidence","1",""
"301.19999998807907","e","choice","left","e","experimental","744","640270","0.0-4.0-8.84","true","85","3.25","","",""
"1934.199999988079","2","confid","","","html-slider-response","746","642707","0.0-4.0-10.84-0.84","","","","Rate your confidence","1",""
"440.2999999821186","i","choice","right","i","experimental","753","644947","0.0-4.0-8.85","true","86","3.15","","",""
"1463.1000000238419","4","confid","","","html-slider-response","755","646914","0.0-4.0-10.85-0.85","","","","Rate your confidence","1",""
"358.40000000596046","i","choice","right","i","experimental","762","649063","0.0-4.0-8.86","true","87","3.15","","",""
"2107.699999988079","2","confid","","","html-slider-response","764","651673","0.0-4.0-10.86-0.86","","","","Rate your confidence","1",""
"1054.300000011921","e","choice","left","e","experimental","771","654516","0.0-4.0-8.87","true","88","3.05","","",""
"2696.0999999940395","1","confid","","","html-slider-response","773","657716","0.0-4.0-10.87-0.87","","","","Rate your confidence","1",""
"321.59999999403954","i","choice","right","i","experimental","780","659821","0.0-4.0-8.88","true","89","3.05","","",""
"1760.4000000059605","4","confid","","","html-slider-response","782","662086","0.0-4.0-10.88-0.88","","","","Rate your confidence","1",""
"443.5","i","choice","left","e","experimental","789","664316","0.0-4.0-8.89","false","90","2.9499999999999997","","",""
"1513.4000000059605","2","confid","","","html-slider-response","791","666333","0.0-4.0-10.89-0.89","","","","Rate your confidence","1",""
"286.5","i","choice","right","i","experimental","798","668405","0.0-4.0-8.90","true","91","3.05","","",""
"1966","4","confid","","","html-slider-response","800","670874","0.0-4.0-10.90-0.90","","","","Rate your confidence","1",""
"305.90000000596046","e","choice","left","e","experimental","807","672976","0.0-4.0-8.91","true","92","3.05","","",""
"2001","3","confid","","","html-slider-response","809","675480","0.0-4.0-10.91-0.91","","","","Rate your confidence","1",""
"365.69999998807907","e","choice","left","e","experimental","816","677641","0.0-4.0-8.92","true","93","2.9499999999999997","","",""
"1963.699999988079","4","confid","","","html-slider-response","818","680109","0.0-4.0-10.92-0.92","","","","Rate your confidence","1",""
"333.19999998807907","i","choice","right","i","experimental","825","682233","0.0-4.0-8.93","true","94","2.9499999999999997","","",""
"4220.5","2","confid","","","html-slider-response","827","686957","0.0-4.0-10.93-0.93","","","","Rate your confidence","1",""
"488.7999999821186","e","choice","left","e","experimental","834","689226","0.0-4.0-8.94","true","95","2.8499999999999996","","",""
"2646.800000011921","2","confid","","","html-slider-response","836","692392","0.0-4.0-10.94-0.94","","","","Rate your confidence","1",""
"341","i","choice","right","i","experimental","843","694512","0.0-4.0-8.95","true","96","2.8499999999999996","","",""
"1849.1000000238419","3","confid","","","html-slider-response","845","696865","0.0-4.0-10.95-0.95","","","","Rate your confidence","1",""
"345.69999998807907","e","choice","right","i","experimental","852","699003","0.0-4.0-8.96","false","97","2.7499999999999996","","",""
"2450.7000000178814","2","confid","","","html-slider-response","854","701958","0.0-4.0-10.96-0.96","","","","Rate your confidence","1",""
"434.2999999821186","i","choice","left","e","experimental","861","704190","0.0-4.0-8.97","false","98","2.8499999999999996","","",""
"1601.699999988079","2","confid","","","html-slider-response","863","706296","0.0-4.0-10.97-0.97","","","","Rate your confidence","1",""
"351.10000002384186","i","choice","right","i","experimental","870","708438","0.0-4.0-8.98","true","99","2.9499999999999997","","",""
"2374.7000000178814","4","confid","","","html-slider-response","872","711317","0.0-4.0-10.98-0.98","","","","Rate your confidence","1",""
"405.5","i","choice","left","e","experimental","879","713500","0.0-4.0-8.99","false","100","2.9499999999999997","","",""
"2050.5","3","confid","","","html-slider-response","881","716057","0.0-4.0-10.99-0.99","","","","Rate your confidence","1",""
"354.59999999403954","e","choice","left","e","experimental","888","718191","0.0-4.0-8.100","true","101","3.05","","",""
"1807.7999999821186","4","confid","","","html-slider-response","890","720501","0.0-4.0-10.100-0.100","","","","Rate your confidence","1",""
"536.1999999880791","e","choice","right","i","experimental","897","722818","0.0-4.0-8.101","false","102","3.05","","",""
"3102.800000011921","3","confid","","","html-slider-response","899","726423","0.0-4.0-10.101-0.101","","","","Rate your confidence","1",""
"656.2999999821186","e","choice","left","e","experimental","906","728877","0.0-4.0-8.102","true","103","3.15","","",""
"1611.5999999940395","4","confid","","","html-slider-response","908","730994","0.0-4.0-10.102-0.102","","","","Rate your confidence","1",""
"357.80000001192093","i","choice","right","i","experimental","915","733139","0.0-4.0-8.103","true","104","3.15","","",""
"3995.600000023842","2","confid","","","html-slider-response","917","737640","0.0-4.0-10.103-0.103","","","","Rate your confidence","1",""
"505.19999998807907","i","choice","left","e","experimental","924","739928","0.0-4.0-8.104","false","105","3.05","","",""
"2009.5999999940395","2","confid","","","html-slider-response","926","742440","0.0-4.0-10.104-0.104","","","","Rate your confidence","1",""
"364.30000001192093","e","choice","right","i","experimental","933","744590","0.0-4.0-8.105","false","106","3.15","","",""
"2185.7000000178814","5","confid","","","html-slider-response","935","747280","0.0-4.0-10.105-0.105","","","","Rate your confidence","1",""
"541.6999999880791","e","choice","left","e","experimental","942","749615","0.0-4.0-8.106","true","107","3.25","","",""
"3051","4","confid","","","html-slider-response","944","753170","0.0-4.0-10.106-0.106","","","","Rate your confidence","1",""
"471.7000000178814","e","choice","right","i","experimental","951","755439","0.0-4.0-8.107","false","108","3.25","","",""
"2322.2000000178814","3","confid","","","html-slider-response","953","758267","0.0-4.0-10.107-0.107","","","","Rate your confidence","1",""
"832.3000000119209","e","choice","left","e","experimental","960","760888","0.0-4.0-8.108","true","109","3.35","","",""
"1555.2999999821186","3","confid","","","html-slider-response","962","762962","0.0-4.0-10.108-0.108","","","","Rate your confidence","1",""
"329.90000000596046","i","choice","right","i","experimental","969","765073","0.0-4.0-8.109","true","110","3.35","","",""
"1487.300000011921","2","confid","","","html-slider-response","971","767064","0.0-4.0-10.109-0.109","","","","Rate your confidence","1",""
"853.4000000059605","e","choice","right","i","experimental","979","805703","0.0-4.0-8.110","false","111","3.25","","",""
"2466.7000000178814","1","confid","","","html-slider-response","981","808676","0.0-4.0-10.110-0.110","","","","Rate your confidence","1",""
"361.5","e","choice","left","e","experimental","988","810835","0.0-4.0-8.111","true","112","3.35","","",""
"3628.5","5","confid","","","html-slider-response","990","814970","0.0-4.0-10.111-0.111","","","","Rate your confidence","1",""
"486.69999998807907","i","choice","right","i","experimental","997","817243","0.0-4.0-8.112","true","113","3.35","","",""
"2071.5","2","confid","","","html-slider-response","999","819818","0.0-4.0-10.112-0.112","","","","Rate your confidence","1",""
"326.7000000178814","e","choice","left","e","experimental","1006","821918","0.0-4.0-8.113","true","114","3.25","","",""
"1434.3999999761581","4","confid","","","html-slider-response","1008","823855","0.0-4.0-10.113-0.113","","","","Rate your confidence","1",""
"268","e","choice","right","i","experimental","1015","825912","0.0-4.0-8.114","false","115","3.25","","",""
"1461.9000000059605","4","confid","","","html-slider-response","1017","827877","0.0-4.0-10.114-0.114","","","","Rate your confidence","1",""
"312.5","e","choice","left","e","experimental","1024","829986","0.0-4.0-8.115","true","116","3.35","","",""
"1848","5","confid","","","html-slider-response","1026","832336","0.0-4.0-10.115-0.115","","","","Rate your confidence","1",""
"336.69999998807907","e","choice","left","e","experimental","1033","834451","0.0-4.0-8.116","true","117","3.35","","",""
"2775.5","3","confid","","","html-slider-response","1035","837730","0.0-4.0-10.116-0.116","","","","Rate your confidence","1",""
"308","i","choice","right","i","experimental","1042","839824","0.0-4.0-8.117","true","118","3.25","","",""
"2057","4","confid","","","html-slider-response","1044","842385","0.0-4.0-10.117-0.117","","","","Rate your confidence","1",""
"290","e","choice","left","e","experimental","1051","844457","0.0-4.0-8.118","true","119","3.25","","",""
"1801.7000000178814","5","confid","","","html-slider-response","1053","846762","0.0-4.0-10.118-0.118","","","","Rate your confidence","1",""
"293.90000000596046","i","choice","right","i","experimental","1060","848836","0.0-4.0-8.119","true","120","3.15","","",""
"2963.9000000059605","3","confid","","","html-slider-response","1062","852303","0.0-4.0-10.119-0.119","","","","Rate your confidence","1",""
"573.5","i","choice","right","i","experimental","1069","854674","0.0-4.0-8.120","true","121","3.15","","",""
"1428.9000000059605","4","confid","","","html-slider-response","1071","856607","0.0-4.0-10.120-0.120","","","","Rate your confidence","1",""
"303.80000001192093","e","choice","left","e","experimental","1078","858691","0.0-4.0-8.121","true","122","3.05","","",""
"1966","2","confid","","","html-slider-response","1080","861173","0.0-4.0-10.121-0.121","","","","Rate your confidence","1",""
"539.5","e","choice","right","i","experimental","1087","863492","0.0-4.0-8.122","false","123","3.05","","",""
"1703","1","confid","","","html-slider-response","1089","865698","0.0-4.0-10.122-0.122","","","","Rate your confidence","1",""
"747.5","i","choice","left","e","experimental","1096","868228","0.0-4.0-8.123","false","124","3.15","","",""
"1767.4000000059605","1","confid","","","html-slider-response","1098","870498","0.0-4.0-10.123-0.123","","","","Rate your confidence","1",""
"336.2000000178814","e","choice","left","e","experimental","1105","872669","0.0-4.0-8.124","true","125","3.25","","",""
"1923.300000011921","4","confid","","","html-slider-response","1107","875096","0.0-4.0-10.124-0.124","","","","Rate your confidence","1",""
"420.5","e","choice","right","i","experimental","1114","877299","0.0-4.0-8.125","false","126","3.25","","",""
"2386.699999988079","3","confid","","","html-slider-response","1116","880190","0.0-4.0-10.125-0.125","","","","Rate your confidence","1",""
"335.09999999403954","e","choice","left","e","experimental","1123","882306","0.0-4.0-8.126","true","127","3.35","","",""
"1831.300000011921","4","confid","","","html-slider-response","1125","884641","0.0-4.0-10.126-0.126","","","","Rate your confidence","1",""
"312.19999998807907","e","choice","right","i","experimental","1132","886731","0.0-4.0-8.127","false","128","3.35","","",""
"1745.7000000178814","5","confid","","","html-slider-response","1134","888980","0.0-4.0-10.127-0.127","","","","Rate your confidence","1",""
"338.60000002384186","e","choice","right","i","experimental","1141","891115","0.0-4.0-8.128","false","129","3.45","","",""
"1489.5","2","confid","","","html-slider-response","1143","893107","0.0-4.0-10.128-0.128","","","","Rate your confidence","1",""
"786.6999999880791","e","choice","left","e","experimental","1150","895686","0.0-4.0-8.129","true","130","3.5500000000000003","","",""
"1237.699999988079","2","confid","","","html-slider-response","1152","897427","0.0-4.0-10.129-0.129","","","","Rate your confidence","1",""
"319.2999999821186","i","choice","right","i","experimental","1159","899530","0.0-4.0-8.130","true","131","3.5500000000000003","","",""
"1724.5999999940395","4","confid","","","html-slider-response","1161","901758","0.0-4.0-10.130-0.130","","","","Rate your confidence","1",""
"138.39999997615814","e","choice","left","e","experimental","1168","903672","0.0-4.0-8.131","true","132","3.45","","",""
"3553.5","5","confid","","","html-slider-response","1170","907729","0.0-4.0-10.131-0.131","","","","Rate your confidence","1",""
"318.09999999403954","e","choice","left","e","experimental","1177","909825","0.0-4.0-8.132","true","133","3.45","","",""
"1485.699999988079","4","confid","","","html-slider-response","1179","911814","0.0-4.0-10.132-0.132","","","","Rate your confidence","1",""
"348.60000002384186","e","choice","right","i","experimental","1186","913963","0.0-4.0-8.133","false","134","3.35","","",""
"1670.9000000059605","4","confid","","","html-slider-response","1188","916137","0.0-4.0-10.133-0.133","","","","Rate your confidence","1",""
"302.2999999821186","i","choice","right","i","experimental","1195","918236","0.0-4.0-8.134","true","135","3.45","","",""
"1586.699999988079","1","confid","","","html-slider-response","1197","920326","0.0-4.0-10.134-0.134","","","","Rate your confidence","1",""
"324.40000000596046","e","choice","left","e","experimental","1204","922435","0.0-4.0-8.135","true","136","3.45","","",""
"1272.0999999940395","4","confid","","","html-slider-response","1206","924210","0.0-4.0-10.135-0.135","","","","Rate your confidence","1",""
"311.89999997615814","e","choice","left","e","experimental","1213","926300","0.0-4.0-8.136","true","137","3.35","","",""
"2181.699999988079","4","confid","","","html-slider-response","1215","928987","0.0-4.0-10.136-0.136","","","","Rate your confidence","1",""
"306.40000000596046","i","choice","right","i","experimental","1222","931089","0.0-4.0-8.137","true","138","3.35","","",""
"2033.300000011921","5","confid","","","html-slider-response","1224","933626","0.0-4.0-10.137-0.137","","","","Rate your confidence","1",""
"315.2999999821186","e","choice","left","e","experimental","1231","935740","0.0-4.0-8.138","true","139","3.25","","",""
"1891.300000011921","5","confid","","","html-slider-response","1233","938134","0.0-4.0-10.138-0.138","","","","Rate your confidence","1",""
"328.5","i","choice","right","i","experimental","1240","940247","0.0-4.0-8.139","true","140","3.25","","",""
"1706.9000000059605","1","confid","","","html-slider-response","1242","942457","0.0-4.0-10.139-0.139","","","","Rate your confidence","1",""
"308","i","choice","right","i","experimental","1249","944547","0.0-4.0-8.140","true","141","3.15","","",""
"1589.8999999761581","1","confid","","","html-slider-response","1251","946640","0.0-4.0-10.140-0.140","","","","Rate your confidence","1",""
"310.40000000596046","e","choice","left","e","experimental","1258","948729","0.0-4.0-8.141","true","142","3.15","","",""
"2151.5999999940395","5","confid","","","html-slider-response","1260","951384","0.0-4.0-10.141-0.141","","","","Rate your confidence","1",""
"309.2999999821186","e","choice","left","e","experimental","1267","953483","0.0-4.0-8.142","true","143","3.05","","",""
"1582.199999988079","5","confid","","","html-slider-response","1269","955568","0.0-4.0-10.142-0.142","","","","Rate your confidence","1",""
"448.09999999403954","e","choice","right","i","experimental","1276","957797","0.0-4.0-8.143","false","144","3.05","","",""
"1671.7000000178814","1","confid","","","html-slider-response","1278","959971","0.0-4.0-10.143-0.143","","","","Rate your confidence","1",""
"339","i","choice","right","i","experimental","1285","962088","0.0-4.0-8.144","true","145","3.15","","",""
"1880.4000000059605","4","confid","","","html-slider-response","1287","964472","0.0-4.0-10.144-0.144","","","","Rate your confidence","1",""
"346.90000000596046","e","choice","left","e","experimental","1294","966601","0.0-4.0-8.145","true","146","3.15","","",""
"2551.2000000178814","4","confid","","","html-slider-response","1296","969655","0.0-4.0-10.145-0.145","","","","Rate your confidence","1",""
"296.5","i","choice","left","e","experimental","1303","971730","0.0-4.0-8.146","false","147","3.05","","",""
"2337","2","confid","","","html-slider-response","1305","974570","0.0-4.0-10.146-0.146","","","","Rate your confidence","1",""
"293.2000000178814","i","choice","right","i","experimental","1312","976653","0.0-4.0-8.147","true","148","3.15","","",""
"2703","5","confid","","","html-slider-response","1314","979859","0.0-4.0-10.147-0.147","","","","Rate your confidence","1",""
"315.90000000596046","e","choice","left","e","experimental","1321","981952","0.0-4.0-8.148","true","149","3.15","","",""
"1409.800000011921","4","confid","","","html-slider-response","1323","983866","0.0-4.0-10.148-0.148","","","","Rate your confidence","1",""
"301.7999999821186","i","choice","right","i","experimental","1330","985965","0.0-4.0-8.149","true","150","3.05","","",""
"1580.300000011921","1","confid","","","html-slider-response","1332","988049","0.0-4.0-10.149-0.149","","","","Rate your confidence","1",""
"55.39999997615814","i","choice","right","i","experimental","1339","989900","0.0-4.0-8.150","true","151","3.05","","",""
"2942","5","confid","","","html-slider-response","1341","993345","0.0-4.0-10.150-0.150","","","","Rate your confidence","1",""
"101.40000000596046","i","choice","left","e","experimental","1348","995248","0.0-4.0-8.151","false","152","2.9499999999999997","","",""
"2450.300000011921","2","confid","","","html-slider-response","1350","998204","0.0-4.0-10.151-0.151","","","","Rate your confidence","1",""
"375.19999998807907","i","choice","left","e","experimental","1358","1008092","0.0-4.0-8.152","false","153","3.05","","",""
"2066.899999976158","1","confid","","","html-slider-response","1360","1010662","0.0-4.0-10.152-0.152","","","","Rate your confidence","1",""
"317.90000000596046","i","choice","right","i","experimental","1367","1012760","0.0-4.0-8.153","true","154","3.15","","",""
"1833.5999999940395","2","confid","","","html-slider-response","1369","1015097","0.0-4.0-10.153-0.153","","","","Rate your confidence","1",""
"282.5","i","choice","right","i","experimental","1376","1017161","0.0-4.0-8.154","true","155","3.15","","",""
"1639.699999988079","2","confid","","","html-slider-response","1378","1019305","0.0-4.0-10.154-0.154","","","","Rate your confidence","1",""
"328.80000001192093","e","choice","left","e","experimental","1385","1021427","0.0-4.0-8.155","true","156","3.05","","",""
"2329.5","4","confid","","","html-slider-response","1387","1024261","0.0-4.0-10.155-0.155","","","","Rate your confidence","1",""
"705.9000000059605","e","choice","left","e","experimental","1394","1026755","0.0-4.0-8.156","true","157","3.05","","",""
"1744.7000000178814","3","confid","","","html-slider-response","1396","1029003","0.0-4.0-10.156-0.156","","","","Rate your confidence","1",""
"276.7000000178814","i","choice","right","i","experimental","1403","1031077","0.0-4.0-8.157","true","158","2.9499999999999997","","",""
"1787.5","4","confid","","","html-slider-response","1405","1033367","0.0-4.0-10.157-0.157","","","","Rate your confidence","1",""
"282.5","i","choice","right","i","experimental","1412","1035436","0.0-4.0-8.158","true","159","2.9499999999999997","","",""
"2705.600000023842","4","confid","","","html-slider-response","1414","1038646","0.0-4.0-10.158-0.158","","","","Rate your confidence","1",""
"320.59999999403954","e","choice","left","e","experimental","1421","1040752","0.0-4.0-8.159","true","160","2.8499999999999996","","",""
"1841.699999988079","5","confid","","","html-slider-response","1423","1043098","0.0-4.0-10.159-0.159","","","","Rate your confidence","1",""
"361.7000000178814","e","choice","left","e","experimental","1430","1045251","0.0-4.0-8.160","true","161","2.8499999999999996","","",""
"1615.7999999821186","1","confid","","","html-slider-response","1432","1047371","0.0-4.0-10.160-0.160","","","","Rate your confidence","1",""
"325.40000000596046","i","choice","right","i","experimental","1439","1049489","0.0-4.0-8.161","true","162","2.7499999999999996","","",""
"1498.2000000178814","2","confid","","","html-slider-response","1441","1051490","0.0-4.0-10.161-0.161","","","","Rate your confidence","1",""
"490.90000000596046","e","choice","left","e","experimental","1448","1053765","0.0-4.0-8.162","true","163","2.7499999999999996","","",""
"2371.7999999821186","1","confid","","","html-slider-response","1450","1056640","0.0-4.0-10.162-0.162","","","","Rate your confidence","1",""
"451.40000000596046","i","choice","right","i","experimental","1457","1058871","0.0-4.0-8.163","true","164","2.6499999999999995","","",""
"2157.5","2","confid","","","html-slider-response","1459","1061531","0.0-4.0-10.163-0.163","","","","Rate your confidence","1",""
"688.1000000238419","e","choice","left","e","experimental","1466","1064001","0.0-4.0-8.164","true","165","2.6499999999999995","","",""
"2978","1","confid","","","html-slider-response","1468","1067483","0.0-4.0-10.164-0.164","","","","Rate your confidence","1",""
"326.40000000596046","i","choice","right","i","experimental","1475","1069607","0.0-4.0-8.165","true","166","2.5499999999999994","","",""
"1387.7999999821186","4","confid","","","html-slider-response","1477","1071498","0.0-4.0-10.165-0.165","","","","Rate your confidence","1",""
"308.39999997615814","e","choice","right","i","experimental","1484","1073600","0.0-4.0-8.166","false","167","2.5499999999999994","","",""
"1758.199999988079","4","confid","","","html-slider-response","1486","1075861","0.0-4.0-10.166-0.166","","","","Rate your confidence","1",""
"373.09999999403954","i","choice","left","e","experimental","1493","1078010","0.0-4.0-8.167","false","168","2.6499999999999995","","",""
"1362.0999999940395","1","confid","","","html-slider-response","1495","1079891","0.0-4.0-10.167-0.167","","","","Rate your confidence","1",""
"346.30000001192093","i","choice","left","e","experimental","1502","1082022","0.0-4.0-8.168","false","169","2.7499999999999996","","",""
"1761.300000011921","1","confid","","","html-slider-response","1504","1084287","0.0-4.0-10.168-0.168","","","","Rate your confidence","1",""
"281.90000000596046","i","choice","right","i","experimental","1511","1086352","0.0-4.0-8.169","true","170","2.8499999999999996","","",""
"2063.600000023842","5","confid","","","html-slider-response","1513","1088919","0.0-4.0-10.169-0.169","","","","Rate your confidence","1",""
"325.10000002384186","i","choice","right","i","experimental","1520","1091040","0.0-4.0-8.170","true","171","2.8499999999999996","","",""
"1694.0999999940395","4","confid","","","html-slider-response","1522","1093238","0.0-4.0-10.170-0.170","","","","Rate your confidence","1",""
"330","e","choice","left","e","experimental","1529","1095354","0.0-4.0-8.171","true","172","2.7499999999999996","","",""
"1728.9000000059605","2","confid","","","html-slider-response","1531","1097586","0.0-4.0-10.171-0.171","","","","Rate your confidence","1",""
"394.69999998807907","e","choice","left","e","experimental","1538","1099766","0.0-4.0-8.172","true","173","2.7499999999999996","","",""
"1850.7000000178814","2","confid","","","html-slider-response","1540","1102120","0.0-4.0-10.172-0.172","","","","Rate your confidence","1",""
"327.69999998807907","e","choice","right","i","experimental","1547","1104238","0.0-4.0-8.173","false","174","2.6499999999999995","","",""
"1594.4000000059605","1","confid","","","html-slider-response","1549","1106336","0.0-4.0-10.173-0.173","","","","Rate your confidence","1",""
"245.59999999403954","i","choice","left","e","experimental","1556","1108380","0.0-4.0-8.174","false","175","2.7499999999999996","","",""
"1374.5999999940395","2","confid","","","html-slider-response","1558","1110260","0.0-4.0-10.174-0.174","","","","Rate your confidence","1",""
"287.09999999403954","e","choice","right","i","experimental","1565","1112325","0.0-4.0-8.175","false","176","2.8499999999999996","","",""
"1681.2000000178814","1","confid","","","html-slider-response","1567","1114511","0.0-4.0-10.175-0.175","","","","Rate your confidence","1",""
"348.5","e","choice","left","e","experimental","1574","1116659","0.0-4.0-8.176","true","177","2.9499999999999997","","",""
"1394.2000000178814","4","confid","","","html-slider-response","1576","1118556","0.0-4.0-10.176-0.176","","","","Rate your confidence","1",""
"337.7999999821186","e","choice","right","i","experimental","1583","1120675","0.0-4.0-8.177","false","178","2.9499999999999997","","",""
"1747.7999999821186","2","confid","","","html-slider-response","1585","1122927","0.0-4.0-10.177-0.177","","","","Rate your confidence","1",""
"325.59999999403954","e","choice","right","i","experimental","1592","1125036","0.0-4.0-8.178","false","179","3.05","","",""
"1830.0999999940395","2","confid","","","html-slider-response","1594","1127369","0.0-4.0-10.178-0.178","","","","Rate your confidence","1",""
"354.10000002384186","e","choice","left","e","experimental","1601","1129517","0.0-4.0-8.179","true","180","3.15","","",""
"2329.2999999821186","3","confid","","","html-slider-response","1603","1132351","0.0-4.0-10.179-0.179","","","","Rate your confidence","1",""
"390.69999998807907","e","choice","left","e","experimental","1610","1134525","0.0-4.0-8.180","true","181","3.15","","",""
"1911.699999988079","2","confid","","","html-slider-response","1612","1136941","0.0-4.0-10.180-0.180","","","","Rate your confidence","1",""
"364.69999998807907","e","choice","right","i","experimental","1619","1139085","0.0-4.0-8.181","false","182","3.05","","",""
"2421.199999988079","2","confid","","","html-slider-response","1621","1142010","0.0-4.0-10.181-0.181","","","","Rate your confidence","1",""
"300.5","i","choice","left","e","experimental","1628","1144093","0.0-4.0-8.182","false","183","3.15","","",""
"1743.8999999761581","4","confid","","","html-slider-response","1630","1146341","0.0-4.0-10.182-0.182","","","","Rate your confidence","1",""
"384.59999999403954","e","choice","right","i","experimental","1637","1148519","0.0-4.0-8.183","false","184","3.25","","",""
"1403.5999999940395","3","confid","","","html-slider-response","1639","1150426","0.0-4.0-10.183-0.183","","","","Rate your confidence","1",""
"323.7000000178814","e","choice","left","e","experimental","1646","1152543","0.0-4.0-8.184","true","185","3.35","","",""
"1790.800000011921","4","confid","","","html-slider-response","1648","1154837","0.0-4.0-10.184-0.184","","","","Rate your confidence","1",""
"353.69999998807907","i","choice","right","i","experimental","1655","1156989","0.0-4.0-8.185","true","186","3.35","","",""
"1665.7000000178814","1","confid","","","html-slider-response","1657","1159158","0.0-4.0-10.185-0.185","","","","Rate your confidence","1",""
"447.7999999821186","i","choice","right","i","experimental","1664","1161404","0.0-4.0-8.186","true","187","3.25","","",""
"2644.5","2","confid","","","html-slider-response","1666","1164552","0.0-4.0-10.186-0.186","","","","Rate your confidence","1",""
"370.19999998807907","e","choice","left","e","experimental","1673","1166708","0.0-4.0-8.187","true","188","3.25","","",""
"2489","2","confid","","","html-slider-response","1675","1169713","0.0-4.0-10.187-0.187","","","","Rate your confidence","1",""
"291.5","i","choice","right","i","experimental","1682","1171787","0.0-4.0-8.188","true","189","3.15","","",""
"2717.399999976158","1","confid","","","html-slider-response","1684","1175008","0.0-4.0-10.188-0.188","","","","Rate your confidence","1",""
"231.30000001192093","e","choice","left","e","experimental","1691","1177032","0.0-4.0-8.189","true","190","3.15","","",""
"1338.300000011921","2","confid","","","html-slider-response","1693","1178876","0.0-4.0-10.189-0.189","","","","Rate your confidence","1",""
"494.90000000596046","i","choice","left","e","experimental","1700","1181168","0.0-4.0-8.190","false","191","3.05","","",""
"4368.199999988079","1","confid","","","html-slider-response","1702","1186039","0.0-4.0-10.190-0.190","","","","Rate your confidence","1",""
"1275.4000000059605","i","choice","right","i","experimental","1709","1189103","0.0-4.0-8.191","true","192","3.15","","",""
"1656","2","confid","","","html-slider-response","1711","1191263","0.0-4.0-10.191-0.191","","","","Rate your confidence","1",""
"424.59999999403954","e","choice","right","i","experimental","1718","1193472","0.0-4.0-8.192","false","193","3.15","","",""
"1593.9000000059605","2","confid","","","html-slider-response","1720","1195569","0.0-4.0-10.192-0.192","","","","Rate your confidence","1",""
"546.8000000119209","i","choice","left","e","experimental","1727","1197898","0.0-4.0-8.193","false","194","3.25","","",""
"4021.5999999940395","4","confid","","","html-slider-response","1729","1202423","0.0-4.0-10.193-0.193","","","","Rate your confidence","1","57133"
