"rt","response","task","target_side","correct_response","trial_type","trial_index","time_elapsed","internal_node_id","correct","trial_number","n_dots","stimulus","slider_start","participant"
"451.60000002384186","e","choice","left","e","practice","10","108698","0.0-4.0-8.0","true","1","4.25","","",""
"265.7999999523163","i","choice","right","i","practice","18","111267","0.0-4.0-8.1","true","2","4.25","","",""
"274.5","i","choice","right","i","practice","26","113826","0.0-4.0-8.2","true","3","3.85","","",""
"61.89999997615814","e","choice","left","e","practice","34","116184","0.0-4.0-8.3","true","4","3.85","","",""
"119.69999998807907","e","choice","left","e","practice","42","118587","0.0-4.0-8.4","true","5","3.45","","",""
"610.6000000238419","i","choice","right","i","practice","50","121480","0.0-4.0-8.5","true","6","3.45","","",""
"295.2999999523163","e","choice","right","i","practice","58","124063","0.0-4.0-8.6","false","7","3.25","","",""
"235.30000001192093","e","choice","left","e","practice","66","126597","0.0-4.0-8.7","true","8","3.45","","",""
"388.19999998807907","i","choice","right","i","practice","74","129270","0.0-4.0-8.8","true","9","3.45","","",""
"160.19999998807907","e","choice","left","e","practice","82","131713","0.0-4.0-8.9","true","10","3.25","","",""
"632.1999999880791","i","choice","left","e","practice","90","134633","0.0-4.0-8.10","false","11","3.25","","",""
"362.30000001192093","i","choice","right","i","practice","98","137294","0.0-4.0-8.11","true","12","3.35","","",""
"380.89999997615814","e","choice","left","e","practice","106","139973","0.0-4.0-8.12","true","13","3.35","","",""
"397.5","i","choice","right","i","practice","114","142655","0.0-4.0-8.13","true","14","3.25","","",""
"923.6000000238419","e","choice","left","e","practice","122","145875","0.0-4.0-8.14","true","15","3.25","","",""
"512.9000000357628","i","choice","right","i","practice","130","148671","0.0-4.0-8.15","true","16","3.15","","",""
"396.30000001192093","i","choice","left","e","practice","138","151350","0.0-4.0-8.16","false","17","3.15","","",""
"436.5","i","choice","right","i","practice","146","154083","0.0-4.0-8.17","true","18","3.25","","",""
"719.0999999642372","e","choice","right","i","practice","154","157106","0.0-4.0-8.18","false","19","3.25","","",""
"658.6999999880791","i","choice","left","e","practice","162","160050","0.0-4.0-8.19","false","20","3.35","","",""
"481.80000001192093","i","choice","right","i","practice","170","162815","0.0-4.0-8.20","true","21","3.45","","",""
"504.80000001192093","e","choice","left","e","practice","178","165602","0.0-4.0-8.21","true","22","3.45","","",""
"575.2999999523163","e","choice","right","i","practice","186","168475","0.0-4.0-8.22","false","23","3.35","","",""
"501.0999999642372","e","choice","left","e","practice","194","171258","0.0-4.0-8.23","true","24","3.45","","",""
"398.39999997615814","i","choice","right","i","practice","202","173955","0.0-4.0-8.24","true","25","3.45","","",""
"363.5999999642372","e","choice","left","e","practice","210","176605","0.0-4.0-8.25","true","26","3.35","","",""
"377.5","i","choice","left","e","experimental","221","234786","0.0-4.0-8.26","false","27","3.35","","",""
"4668.099999964237","4","confid","","","html-slider-response","223","239959","0.0-4.0-10.26-0.26","","","","Rate your confidence","1",""
"683.8999999761581","i","choice","right","i","experimental","230","242431","0.0-4.0-8.27","true","28","3.45","","",""
"4440.800000011921","5","confid","","","html-slider-response","232","247376","0.0-4.0-10.27-0.27","","","","Rate your confidence","1",""
"328","i","choice","right","i","experimental","239","249489","0.0-4.0-8.28","true","29","3.45","","",""
"3047.7000000476837","5","confid","","","html-slider-response","241","253042","0.0-4.0-10.28-0.28","","","","Rate your confidence","1",""
"393.39999997615814","e","choice","left","e","experimental","248","255234","0.0-4.0-8.29","true","30","3.35","","",""
"3563.600000023842","5","confid","","","html-slider-response","250","259302","0.0-4.0-10.29-0.29","","","","Rate your confidence","1",""
"656.7999999523163","i","choice","right","i","experimental","257","261745","0.0-4.0-8.30","true","31","3.35","","",""
"3500.2000000476837","4","confid","","","html-slider-response","259","265750","0.0-4.0-10.30-0.30","","","","Rate your confidence","1",""
"1016.4000000357628","i","choice","left","e","experimental","266","268552","0.0-4.0-8.31","false","32","3.25","","",""
"4959.199999988079","5","confid","","","html-slider-response","268","274016","0.0-4.0-10.31-0.31","","","","Rate your confidence","1",""
"416.5999999642372","e","choice","left","e","experimental","275","276216","0.0-4.0-8.32","true","33","3.35","","",""
"6000.5","5","confid","","","html-slider-response","277","282721","0.0-4.0-10.32-0.32","","","","Rate your confidence","1",""
"617.6999999880791","i","choice","right","i","experimental","284","285121","0.0-4.0-8.33","true","34","3.35","","",""
"3220.699999988079","5","confid","","","html-slider-response","286","288846","0.0-4.0-10.33-0.33","","","","Rate your confidence","1",""
"595.0999999642372","i","choice","right","i","experimental","293","291241","0.0-4.0-8.34","true","35","3.25","","",""
"3321.5","6","confid","","","html-slider-response","295","295067","0.0-4.0-10.34-0.34","","","","Rate your confidence","1",""
"486.30000001192093","e","choice","left","e","experimental","302","297336","0.0-4.0-8.35","true","36","3.25","","",""
"3056.5","3","confid","","","html-slider-response","304","300898","0.0-4.0-10.35-0.35","","","","Rate your confidence","1",""
"668.3000000119209","i","choice","right","i","experimental","311","303368","0.0-4.0-8.36","true","37","3.15","","",""
"3678.800000011921","4","confid","","","html-slider-response","313","307552","0.0-4.0-10.36-0.36","","","","Rate your confidence","1",""
"995.5999999642372","i","choice","left","e","experimental","320","310334","0.0-4.0-8.37","false","38","3.15","","",""
"2899.399999976158","4","confid","","","html-slider-response","322","313738","0.0-4.0-10.37-0.37","","","","Rate your confidence","1",""
"323.60000002384186","e","choice","left","e","experimental","329","315845","0.0-4.0-8.38","true","39","3.25","","",""
"4026.899999976158","6","confid","","","html-slider-response","331","320376","0.0-4.0-10.38-0.38","","","","Rate your confidence","1",""
"2509.699999988079","e","choice","right","i","experimental","338","324669","0.0-4.0-8.39","false","40","3.25","","",""
"3144.5","3","confid","","","html-slider-response","340","328318","0.0-4.0-10.39-0.39","","","","Rate your confidence","1",""
"978.6000000238419","i","choice","right","i","experimental","347","331095","0.0-4.0-8.40","true","41","3.35","","",""
"3621","4","confid","","","html-slider-response","349","335221","0.0-4.0-10.40-0.40","","","","Rate your confidence","1",""
"638.7000000476837","e","choice","left","e","experimental","356","337645","0.0-4.0-8.41","true","42","3.35","","",""
"2464","3","confid","","","html-slider-response","358","340613","0.0-4.0-10.41-0.41","","","","Rate your confidence","1",""
"617.1000000238419","i","choice","right","i","experimental","365","343015","0.0-4.0-8.42","true","43","3.25","","",""
"2659.599999964237","4","confid","","","html-slider-response","367","346196","0.0-4.0-10.42-0.42","","","","Rate your confidence","1",""
"245.0999999642372","e","choice","left","e","experimental","374","348223","0.0-4.0-8.43","true","44","3.25","","",""
"2777.300000011921","6","confid","","","html-slider-response","376","351519","0.0-4.0-10.43-0.43","","","","Rate your confidence","1",""
"791.8000000119209","i","choice","left","e","experimental","383","354103","0.0-4.0-8.44","false","45","3.15","","",""
"2050.600000023842","5","confid","","","html-slider-response","385","356658","0.0-4.0-10.44-0.44","","","","Rate your confidence","1",""
"841.6999999880791","i","choice","right","i","experimental","392","359301","0.0-4.0-8.45","true","46","3.25","","",""
"2392.199999988079","4","confid","","","html-slider-response","394","362198","0.0-4.0-10.45-0.45","","","","Rate your confidence","1",""
"326","e","choice","left","e","experimental","401","364325","0.0-4.0-8.46","true","47","3.25","","",""
"5342.300000011921","4","confid","","","html-slider-response","403","370172","0.0-4.0-10.46-0.46","","","","Rate your confidence","1",""
"498.5","i","choice","right","i","experimental","410","372456","0.0-4.0-8.47","true","48","3.15","","",""
"4582","5","confid","","","html-slider-response","412","377542","0.0-4.0-10.47-0.47","","","","Rate your confidence","1",""
"595.8000000119209","i","choice","right","i","experimental","419","379925","0.0-4.0-8.48","true","49","3.15","","",""
"3369.699999988079","4","confid","","","html-slider-response","421","383800","0.0-4.0-10.48-0.48","","","","Rate your confidence","1",""
"637.5","i","choice","left","e","experimental","428","386242","0.0-4.0-8.49","false","50","3.05","","",""
"4760.699999988079","5","confid","","","html-slider-response","430","391507","0.0-4.0-10.49-0.49","","","","Rate your confidence","1",""
"680.5","e","choice","right","i","experimental","437","393983","0.0-4.0-8.50","false","51","3.15","","",""
"3590","6","confid","","","html-slider-response","439","398079","0.0-4.0-10.50-0.50","","","","Rate your confidence","1",""
"284.69999998807907","e","choice","left","e","experimental","446","400159","0.0-4.0-8.51","true","52","3.25","","",""
"2805.7999999523163","6","confid","","","html-slider-response","448","403469","0.0-4.0-10.51-0.51","","","","Rate your confidence","1",""
"883.1000000238419","i","choice","left","e","experimental","455","406155","0.0-4.0-8.52","false","53","3.25","","",""
"3715.5","3","confid","","","html-slider-response","457","410375","0.0-4.0-10.52-0.52","","","","Rate your confidence","1",""
"454.60000002384186","i","choice","right","i","experimental","464","412616","0.0-4.0-8.53","true","54","3.35","","",""
"3086","4","confid","","","html-slider-response","466","416207","0.0-4.0-10.53-0.53","","","","Rate your confidence","1",""
"674.2000000476837","i","choice","right","i","experimental","473","418667","0.0-4.0-8.54","true","55","3.35","","",""
"2291.600000023842","5","confid","","","html-slider-response","475","421462","0.0-4.0-10.54-0.54","","","","Rate your confidence","1",""
"755.5","e","choice","left","e","experimental","482","424004","0.0-4.0-8.55","true","56","3.25","","",""
"2957.5","3","confid","","","html-slider-response","484","427466","0.0-4.0-10.55-0.55","","","","Rate your confidence","1",""
"883.6999999880791","e","choice","left","e","experimental","491","430151","0.0-4.0-8.56","true","57","3.25","","",""
"3787.800000011921","3","confid","","","html-slider-response","493","434443","0.0-4.0-10.56-0.56","","","","Rate your confidence","1",""
"1369.3999999761581","i","choice","right","i","experimental","500","437595","0.0-4.0-8.57","true","58","3.15","","",""
"3467.5","3","confid","","","html-slider-response","502","441568","0.0-4.0-10.57-0.57","","","","Rate your confidence","1",""
"657.1000000238419","e","choice","left","e","experimental","509","444027","0.0-4.0-8.58","true","59","3.15","","",""
"2294.800000011921","3","confid","","","html-slider-response","511","446826","0.0-4.0-10.58-0.58","","","","Rate your confidence","1",""
"330.89999997615814","i","choice","right","i","experimental","518","448944","0.0-4.0-8.59","true","60","3.05","","",""
"2485.399999976158","3","confid","","","html-slider-response","520","451934","0.0-4.0-10.59-0.59","","","","Rate your confidence","1",""
"681.8000000119209","e","choice","right","i","experimental","527","454403","0.0-4.0-8.60","false","61","3.05","","",""
"2622.5","4","confid","","","html-slider-response","529","457529","0.0-4.0-10.60-0.60","","","","Rate your confidence","1",""
"986.5","i","choice","left","e","experimental","536","460317","0.0-4.0-8.61","false","62","3.15","","",""
"2566.5","4","confid","","","html-slider-response","538","463389","0.0-4.0-10.61-0.61","","","","Rate your confidence","1",""
"572.5","i","choice","right","i","experimental","545","465764","0.0-4.0-8.62","true","63","3.25","","",""
"2380","5","confid","","","html-slider-response","547","468649","0.0-4.0-10.62-0.62","","","","Rate your confidence","1",""
"306.89999997615814","e","choice","left","e","experimental","554","470742","0.0-4.0-8.63","true","64","3.25","","",""
"2389.600000023842","5","confid","","","html-slider-response","556","473637","0.0-4.0-10.63-0.63","","","","Rate your confidence","1",""
"416.60000002384186","e","choice","left","e","experimental","563","475838","0.0-4.0-8.64","true","65","3.15","","",""
"2292","4","confid","","","html-slider-response","565","478634","0.0-4.0-10.64-0.64","","","","Rate your confidence","1",""
"540.3999999761581","i","choice","right","i","experimental","572","480955","0.0-4.0-8.65","true","66","3.15","","",""
"2343.399999976158","5","confid","","","html-slider-response","574","483803","0.0-4.0-10.65-0.65","","","","Rate your confidence","1",""
"719.3000000119209","i","choice","right","i","experimental","581","486322","0.0-4.0-8.66","true","67","3.05","","",""
"2375.199999988079","5","confid","","","html-slider-response","583","489204","0.0-4.0-10.66-0.66","","","","Rate your confidence","1",""
"536.0999999642372","i","choice","left","e","experimental","590","491550","0.0-4.0-8.67","false","68","3.05","","",""
"2196.800000011921","4","confid","","","html-slider-response","592","494251","0.0-4.0-10.67-0.67","","","","Rate your confidence","1",""
"324.5","i","choice","right","i","experimental","600","1472856","0.0-4.0-8.68","true","69","3.15","","",""
"2215.7999999523163","4","confid","","","html-slider-response","602","1475576","0.0-4.0-10.68-0.68","","","","Rate your confidence","1",""
"268.9000000357628","e","choice","left","e","experimental","609","1477648","0.0-4.0-8.69","true","70","3.15","","",""
"2404.199999988079","5","confid","","","html-slider-response","611","1480556","0.0-4.0-10.69-0.69","","","","Rate your confidence","1",""
"345.80000001192093","e","choice","left","e","experimental","618","1482701","0.0-4.0-8.70","true","71","3.05","","",""
"3761.800000011921","4","confid","","","html-slider-response","620","1486968","0.0-4.0-10.70-0.70","","","","Rate your confidence","1",""
"679.0999999642372","e","choice","right","i","experimental","627","1489434","0.0-4.0-8.71","false","72","3.05","","",""
"2478.300000011921","3","confid","","","html-slider-response","629","1492418","0.0-4.0-10.71-0.71","","","","Rate your confidence","1",""
"301","e","choice","left","e","experimental","636","1494507","0.0-4.0-8.72","true","73","3.15","","",""
"4513.5","6","confid","","","html-slider-response","638","1499524","0.0-4.0-10.72-0.72","","","","Rate your confidence","1",""
"348.19999998807907","i","choice","right","i","experimental","645","1501656","0.0-4.0-8.73","true","74","3.15","","",""
"2652.099999964237","6","confid","","","html-slider-response","647","1504812","0.0-4.0-10.73-0.73","","","","Rate your confidence","1",""
"279.5999999642372","i","choice","right","i","experimental","654","1506893","0.0-4.0-8.74","true","75","3.05","","",""
"2711.600000023842","5","confid","","","html-slider-response","656","1510110","0.0-4.0-10.74-0.74","","","","Rate your confidence","1",""
"253.30000001192093","e","choice","left","e","experimental","663","1512151","0.0-4.0-8.75","true","76","3.05","","",""
"2701","4","confid","","","html-slider-response","665","1515356","0.0-4.0-10.75-0.75","","","","Rate your confidence","1",""
"265.2999999523163","i","choice","right","i","experimental","672","1517406","0.0-4.0-8.76","true","77","2.9499999999999997","","",""
"4066.100000023842","4","confid","","","html-slider-response","674","1521976","0.0-4.0-10.76-0.76","","","","Rate your confidence","1",""
"357.9000000357628","e","choice","left","e","experimental","681","1524136","0.0-4.0-8.77","true","78","2.9499999999999997","","",""
"3602.699999988079","4","confid","","","html-slider-response","683","1528244","0.0-4.0-10.77-0.77","","","","Rate your confidence","1",""
"444.0999999642372","i","choice","left","e","experimental","690","1530488","0.0-4.0-8.78","false","79","2.8499999999999996","","",""
"3588.199999988079","4","confid","","","html-slider-response","692","1534582","0.0-4.0-10.78-0.78","","","","Rate your confidence","1",""
"305.5","i","choice","right","i","experimental","699","1536688","0.0-4.0-8.79","true","80","2.9499999999999997","","",""
"3138.899999976158","5","confid","","","html-slider-response","701","1540332","0.0-4.0-10.79-0.79","","","","Rate your confidence","1",""
"444.80000001192093","e","choice","left","e","experimental","708","1542564","0.0-4.0-8.80","true","81","2.9499999999999997","","",""
"2055.099999964237","3","confid","","","html-slider-response","710","1545139","0.0-4.0-10.80-0.80","","","","Rate your confidence","1",""
"289.10000002384186","i","choice","right","i","experimental","717","1547211","0.0-4.0-8.81","true","82","2.8499999999999996","","",""
"2340.900000035763","4","confid","","","html-slider-response","719","1550057","0.0-4.0-10.81-0.81","","","","Rate your confidence","1",""
"1353.7999999523163","e","choice","left","e","experimental","726","1553192","0.0-4.0-8.82","true","83","2.8499999999999996","","",""
"3720.5","3","confid","","","html-slider-response","728","1557416","0.0-4.0-10.82-0.82","","","","Rate your confidence","1",""
"216.19999998807907","i","choice","right","i","experimental","735","1559433","0.0-4.0-8.83","true","84","2.7499999999999996","","",""
"3936.800000011921","5","confid","","","html-slider-response","737","1563876","0.0-4.0-10.83-0.83","","","","Rate your confidence","1",""
"230.5","e","choice","left","e","experimental","744","1565903","0.0-4.0-8.84","true","85","2.7499999999999996","","",""
"4186.399999976158","5","confid","","","html-slider-response","746","1570594","0.0-4.0-10.84-0.84","","","","Rate your confidence","1",""
"334.10000002384186","i","choice","right","i","experimental","753","1572713","0.0-4.0-8.85","true","86","2.6499999999999995","","",""
"3874.300000011921","6","confid","","","html-slider-response","755","1577100","0.0-4.0-10.85-0.85","","","","Rate your confidence","1",""
"337.30000001192093","i","choice","left","e","experimental","762","1579223","0.0-4.0-8.86","false","87","2.6499999999999995","","",""
"2166.800000011921","5","confid","","","html-slider-response","764","1581895","0.0-4.0-10.86-0.86","","","","Rate your confidence","1",""
"214.39999997615814","i","choice","right","i","experimental","771","1583890","0.0-4.0-8.87","true","88","2.7499999999999996","","",""
"2596.900000035763","5","confid","","","html-slider-response","773","1586992","0.0-4.0-10.87-0.87","","","","Rate your confidence","1",""
"66.89999997615814","e","choice","left","e","experimental","780","1588862","0.0-4.0-8.88","true","89","2.7499999999999996","","",""
"3070.5","5","confid","","","html-slider-response","782","1592438","0.0-4.0-10.88-0.88","","","","Rate your confidence","1",""
"432.60000002384186","i","choice","right","i","experimental","789","1594670","0.0-4.0-8.89","true","90","2.6499999999999995","","",""
"2229.599999964237","3","confid","","","html-slider-response","791","1597405","0.0-4.0-10.89-0.89","","","","Rate your confidence","1",""
"0.30000001192092896","e","choice","right","i","experimental","798","1599191","0.0-4.0-8.90","false","91","2.6499999999999995","","",""
"2596.399999976158","3","confid","","","html-slider-response","800","1602291","0.0-4.0-10.90-0.90","","","","Rate your confidence","1",""
"56.30000001192093","e","choice","left","e","experimental","807","1604132","0.0-4.0-8.91","true","92","2.7499999999999996","","",""
"3084.900000035763","4","confid","","","html-slider-response","809","1607722","0.0-4.0-10.91-0.91","","","","Rate your confidence","1",""
"801.3000000119209","i","choice","left","e","experimental","816","1610307","0.0-4.0-8.92","false","93","2.7499999999999996","","",""
"3170.699999988079","2","confid","","","html-slider-response","818","1613983","0.0-4.0-10.92-0.92","","","","Rate your confidence","1",""
"143","i","choice","right","i","experimental","825","1615929","0.0-4.0-8.93","true","94","2.8499999999999996","","",""
"2112","3","confid","","","html-slider-response","827","1618545","0.0-4.0-10.93-0.93","","","","Rate your confidence","1",""
"273.39999997615814","e","choice","left","e","experimental","834","1620601","0.0-4.0-8.94","true","95","2.8499999999999996","","",""
"2939.699999988079","6","confid","","","html-slider-response","836","1624046","0.0-4.0-10.94-0.94","","","","Rate your confidence","1",""
"524.9000000357628","e","choice","right","i","experimental","843","1626361","0.0-4.0-8.95","false","96","2.7499999999999996","","",""
"2323","4","confid","","","html-slider-response","845","1629189","0.0-4.0-10.95-0.95","","","","Rate your confidence","1",""
"503","i","choice","right","i","experimental","852","1631492","0.0-4.0-8.96","true","97","2.8499999999999996","","",""
"4214.600000023842","4","confid","","","html-slider-response","854","1636212","0.0-4.0-10.96-0.96","","","","Rate your confidence","1",""
"629.3000000119209","e","choice","left","e","experimental","861","1638628","0.0-4.0-8.97","true","98","2.8499999999999996","","",""
"2343.400000035763","4","confid","","","html-slider-response","863","1641476","0.0-4.0-10.97-0.97","","","","Rate your confidence","1",""
"486.4000000357628","i","choice","right","i","experimental","870","1643749","0.0-4.0-8.98","true","99","2.7499999999999996","","",""
"2077.400000035763","4","confid","","","html-slider-response","872","1646331","0.0-4.0-10.98-0.98","","","","Rate your confidence","1",""
"347.80000001192093","e","choice","left","e","experimental","879","1648466","0.0-4.0-8.99","true","100","2.7499999999999996","","",""
"4422.099999964237","5","confid","","","html-slider-response","881","1653392","0.0-4.0-10.99-0.99","","","","Rate your confidence","1",""
"597.5","i","choice","right","i","experimental","888","1655774","0.0-4.0-8.100","true","101","2.6499999999999995","","",""
"2717.300000011921","3","confid","","","html-slider-response","890","1658997","0.0-4.0-10.100-0.100","","","","Rate your confidence","1",""
"403.30000001192093","e","choice","left","e","experimental","897","1661201","0.0-4.0-8.101","true","102","2.6499999999999995","","",""
"3007.699999988079","3","confid","","","html-slider-response","899","1664713","0.0-4.0-10.101-0.101","","","","Rate your confidence","1",""
"605.6999999880791","e","choice","right","i","experimental","906","1667102","0.0-4.0-8.102","false","103","2.5499999999999994","","",""
"3638.399999976158","4","confid","","","html-slider-response","908","1671245","0.0-4.0-10.102-0.102","","","","Rate your confidence","1",""
"298.39999997615814","e","choice","left","e","experimental","915","1673346","0.0-4.0-8.103","true","104","2.6499999999999995","","",""
"2388.699999988079","5","confid","","","html-slider-response","917","1676240","0.0-4.0-10.103-0.103","","","","Rate your confidence","1",""
"292.2999999523163","e","choice","right","i","experimental","924","1678317","0.0-4.0-8.104","false","105","2.6499999999999995","","",""
"3347.099999964237","5","confid","","","html-slider-response","926","1682168","0.0-4.0-10.104-0.104","","","","Rate your confidence","1",""
"277.9000000357628","e","choice","left","e","experimental","933","1684232","0.0-4.0-8.105","true","106","2.7499999999999996","","",""
"2072.7000000476837","4","confid","","","html-slider-response","935","1686810","0.0-4.0-10.105-0.105","","","","Rate your confidence","1",""
"128.69999998807907","i","choice","right","i","experimental","942","1688725","0.0-4.0-8.106","true","107","2.7499999999999996","","",""
"1770.2999999523163","4","confid","","","html-slider-response","944","1690999","0.0-4.0-10.106-0.106","","","","Rate your confidence","1",""
"284.89999997615814","e","choice","left","e","experimental","951","1693086","0.0-4.0-8.107","true","108","2.6499999999999995","","",""
"4022.800000011921","3","confid","","","html-slider-response","953","1697614","0.0-4.0-10.107-0.107","","","","Rate your confidence","1",""
"337.89999997615814","i","choice","right","i","experimental","960","1699736","0.0-4.0-8.108","true","109","2.6499999999999995","","",""
"2675.199999988079","3","confid","","","html-slider-response","962","1702917","0.0-4.0-10.108-0.108","","","","Rate your confidence","1",""
"420.9000000357628","i","choice","left","e","experimental","969","1705123","0.0-4.0-8.109","false","110","2.5499999999999994","","",""
"2357.400000035763","3","confid","","","html-slider-response","971","1707989","0.0-4.0-10.109-0.109","","","","Rate your confidence","1",""
"615.3000000119209","i","choice","left","e","experimental","979","1838249","0.0-4.0-8.110","false","111","2.6499999999999995","","",""
"3178.100000023842","3","confid","","","html-slider-response","981","1841931","0.0-4.0-10.110-0.110","","","","Rate your confidence","1",""
"304.5999999642372","i","choice","right","i","experimental","988","1844020","0.0-4.0-8.111","true","112","2.7499999999999996","","",""
"2168","3","confid","","","html-slider-response","990","1846693","0.0-4.0-10.111-0.111","","","","Rate your confidence","1",""
"323.89999997615814","i","choice","right","i","experimental","997","1848820","0.0-4.0-8.112","true","113","2.7499999999999996","","",""
"2509.699999988079","4","confid","","","html-slider-response","999","1851835","0.0-4.0-10.112-0.112","","","","Rate your confidence","1",""
"457","e","choice","left","e","experimental","1006","1854091","0.0-4.0-8.113","true","114","2.6499999999999995","","",""
"2521.2000000476837","3","confid","","","html-slider-response","1008","1857117","0.0-4.0-10.113-0.113","","","","Rate your confidence","1",""
"67.60000002384186","i","choice","right","i","experimental","1015","1859004","0.0-4.0-8.114","true","115","2.6499999999999995","","",""
"3398.800000011921","4","confid","","","html-slider-response","1017","1862907","0.0-4.0-10.114-0.114","","","","Rate your confidence","1",""
"272.5","e","choice","left","e","experimental","1024","1864964","0.0-4.0-8.115","true","116","2.5499999999999994","","",""
"4086.900000035763","4","confid","","","html-slider-response","1026","1869556","0.0-4.0-10.115-0.115","","","","Rate your confidence","1",""
"263.39999997615814","i","choice","right","i","experimental","1033","1871605","0.0-4.0-8.116","true","117","2.5499999999999994","","",""
"4723.899999976158","4","confid","","","html-slider-response","1035","1876834","0.0-4.0-10.116-0.116","","","","Rate your confidence","1",""
"431.30000001192093","e","choice","left","e","experimental","1042","1879065","0.0-4.0-8.117","true","118","2.4499999999999993","","",""
"3008.300000011921","3","confid","","","html-slider-response","1044","1882578","0.0-4.0-10.117-0.117","","","","Rate your confidence","1",""
"792.1999999880791","i","choice","right","i","experimental","1051","1885170","0.0-4.0-8.118","true","119","2.4499999999999993","","",""
"1919.5","3","confid","","","html-slider-response","1053","1887594","0.0-4.0-10.118-0.118","","","","Rate your confidence","1",""
"258.30000001192093","e","choice","left","e","experimental","1060","1889638","0.0-4.0-8.119","true","120","2.349999999999999","","",""
"4625.199999988079","3","confid","","","html-slider-response","1062","1894768","0.0-4.0-10.119-0.119","","","","Rate your confidence","1",""
"321.80000001192093","i","choice","left","e","experimental","1069","1896873","0.0-4.0-8.120","false","121","2.349999999999999","","",""
"3658.699999988079","4","confid","","","html-slider-response","1071","1901036","0.0-4.0-10.120-0.120","","","","Rate your confidence","1",""
"530.5","i","choice","right","i","experimental","1078","1903353","0.0-4.0-8.121","true","122","2.4499999999999993","","",""
"2044","4","confid","","","html-slider-response","1080","1905909","0.0-4.0-10.121-0.121","","","","Rate your confidence","1",""
"403.30000001192093","i","choice","right","i","experimental","1087","1908095","0.0-4.0-8.122","true","123","2.4499999999999993","","",""
"3301.800000011921","4","confid","","","html-slider-response","1089","1911902","0.0-4.0-10.122-0.122","","","","Rate your confidence","1",""
"223.89999997615814","i","choice","left","e","experimental","1096","1913911","0.0-4.0-8.123","false","124","2.349999999999999","","",""
"2350.899999976158","4","confid","","","html-slider-response","1098","1916767","0.0-4.0-10.123-0.123","","","","Rate your confidence","1",""
"278.2000000476837","i","choice","left","e","experimental","1105","1918828","0.0-4.0-8.124","false","125","2.4499999999999993","","",""
"5675.699999988079","4","confid","","","html-slider-response","1107","1925009","0.0-4.0-10.124-0.124","","","","Rate your confidence","1",""
"432.0999999642372","i","choice","right","i","experimental","1114","1927232","0.0-4.0-8.125","true","126","2.5499999999999994","","",""
"3873.900000035763","4","confid","","","html-slider-response","1116","1931623","0.0-4.0-10.125-0.125","","","","Rate your confidence","1",""
"158.5","e","choice","right","i","experimental","1123","1933583","0.0-4.0-8.126","false","127","2.5499999999999994","","",""
"2338.300000011921","4","confid","","","html-slider-response","1125","1936426","0.0-4.0-10.126-0.126","","","","Rate your confidence","1",""
"295.39999997615814","e","choice","left","e","experimental","1132","1938523","0.0-4.0-8.127","true","128","2.6499999999999995","","",""
"4540.800000011921","2","confid","","","html-slider-response","1134","1943569","0.0-4.0-10.127-0.127","","","","Rate your confidence","1",""
"572.8999999761581","i","choice","right","i","experimental","1141","1945944","0.0-4.0-8.128","true","129","2.6499999999999995","","",""
"2284.600000023842","5","confid","","","html-slider-response","1143","1948734","0.0-4.0-10.128-0.128","","","","Rate your confidence","1",""
"292.4000000357628","e","choice","left","e","experimental","1150","1950808","0.0-4.0-8.129","true","130","2.5499999999999994","","",""
"3412.899999976158","4","confid","","","html-slider-response","1152","1954726","0.0-4.0-10.129-0.129","","","","Rate your confidence","1",""
"587.8000000119209","e","choice","right","i","experimental","1159","1957100","0.0-4.0-8.130","false","131","2.5499999999999994","","",""
"5392.100000023842","4","confid","","","html-slider-response","1161","1962996","0.0-4.0-10.130-0.130","","","","Rate your confidence","1",""
"288.19999998807907","e","choice","left","e","experimental","1168","1965065","0.0-4.0-8.131","true","132","2.6499999999999995","","",""
"2672.5","6","confid","","","html-slider-response","1170","1968243","0.0-4.0-10.131-0.131","","","","Rate your confidence","1",""
"518","e","choice","left","e","experimental","1177","1970560","0.0-4.0-8.132","true","133","2.6499999999999995","","",""
"2077","5","confid","","","html-slider-response","1179","1973143","0.0-4.0-10.132-0.132","","","","Rate your confidence","1",""
"785.5","e","choice","right","i","experimental","1186","1975731","0.0-4.0-8.133","false","134","2.5499999999999994","","",""
"3560.2999999523163","5","confid","","","html-slider-response","1188","1979796","0.0-4.0-10.133-0.133","","","","Rate your confidence","1",""
"754.1999999880791","e","choice","left","e","experimental","1195","1982337","0.0-4.0-8.134","true","135","2.6499999999999995","","",""
"2959.800000011921","4","confid","","","html-slider-response","1197","1985819","0.0-4.0-10.134-0.134","","","","Rate your confidence","1",""
"345.5999999642372","i","choice","right","i","experimental","1204","1987953","0.0-4.0-8.135","true","136","2.6499999999999995","","",""
"4598","6","confid","","","html-slider-response","1206","1993056","0.0-4.0-10.135-0.135","","","","Rate your confidence","1",""
"828.3000000119209","e","choice","left","e","experimental","1213","1995682","0.0-4.0-8.136","true","137","2.5499999999999994","","",""
"3050.2999999523163","5","confid","","","html-slider-response","1215","1999237","0.0-4.0-10.136-0.136","","","","Rate your confidence","1",""
"338.80000001192093","i","choice","right","i","experimental","1222","2001377","0.0-4.0-8.137","true","138","2.5499999999999994","","",""
"2301.699999988079","5","confid","","","html-slider-response","1224","2004184","0.0-4.0-10.137-0.137","","","","Rate your confidence","1",""
"268.89999997615814","e","choice","left","e","experimental","1231","2006253","0.0-4.0-8.138","true","139","2.4499999999999993","","",""
"3228.599999964237","6","confid","","","html-slider-response","1233","2009987","0.0-4.0-10.138-0.138","","","","Rate your confidence","1",""
"303.69999998807907","i","choice","right","i","experimental","1240","2012078","0.0-4.0-8.139","true","140","2.4499999999999993","","",""
"4563.400000035763","5","confid","","","html-slider-response","1242","2017145","0.0-4.0-10.139-0.139","","","","Rate your confidence","1",""
"761.3999999761581","i","choice","right","i","experimental","1249","2019692","0.0-4.0-8.140","true","141","2.349999999999999","","",""
"3310.600000023842","5","confid","","","html-slider-response","1251","2023507","0.0-4.0-10.140-0.140","","","","Rate your confidence","1",""
"947.5","i","choice","left","e","experimental","1258","2026238","0.0-4.0-8.141","false","142","2.349999999999999","","",""
"3057.199999988079","2","confid","","","html-slider-response","1260","2029800","0.0-4.0-10.141-0.141","","","","Rate your confidence","1",""
"931.5","e","choice","left","e","experimental","1267","2032529","0.0-4.0-8.142","true","143","2.4499999999999993","","",""
"3472.699999988079","3","confid","","","html-slider-response","1269","2036508","0.0-4.0-10.142-0.142","","","","Rate your confidence","1",""
"300.7999999523163","i","choice","right","i","experimental","1276","2038599","0.0-4.0-8.143","true","144","2.4499999999999993","","",""
"2676.600000023842","6","confid","","","html-slider-response","1278","2041782","0.0-4.0-10.143-0.143","","","","Rate your confidence","1",""
"828.5999999642372","i","choice","left","e","experimental","1285","2044395","0.0-4.0-8.144","false","145","2.349999999999999","","",""
"2677.100000023842","5","confid","","","html-slider-response","1287","2047577","0.0-4.0-10.144-0.144","","","","Rate your confidence","1",""
"406.80000001192093","i","choice","right","i","experimental","1294","2049766","0.0-4.0-8.145","true","146","2.4499999999999993","","",""
"3018.800000011921","5","confid","","","html-slider-response","1296","2053289","0.0-4.0-10.145-0.145","","","","Rate your confidence","1",""
"1089.8999999761581","i","choice","left","e","experimental","1303","2056163","0.0-4.0-8.146","false","147","2.4499999999999993","","",""
"2529.7000000476837","3","confid","","","html-slider-response","1305","2059198","0.0-4.0-10.146-0.146","","","","Rate your confidence","1",""
"545.6000000238419","i","choice","right","i","experimental","1312","2061547","0.0-4.0-8.147","true","148","2.5499999999999994","","",""
"2993.5","5","confid","","","html-slider-response","1314","2065045","0.0-4.0-10.147-0.147","","","","Rate your confidence","1",""
"1465.3999999761581","e","choice","left","e","experimental","1321","2068318","0.0-4.0-8.148","true","149","2.5499999999999994","","",""
"2865","3","confid","","","html-slider-response","1323","2071688","0.0-4.0-10.148-0.148","","","","Rate your confidence","1",""
"526.1999999880791","i","choice","right","i","experimental","1330","2073998","0.0-4.0-8.149","true","150","2.4499999999999993","","",""
"4039.900000035763","5","confid","","","html-slider-response","1332","2078543","0.0-4.0-10.149-0.149","","","","Rate your confidence","1",""
"492.69999998807907","i","choice","right","i","experimental","1339","2080823","0.0-4.0-8.150","true","151","2.4499999999999993","","",""
"2760.199999988079","6","confid","","","html-slider-response","1341","2084088","0.0-4.0-10.150-0.150","","","","Rate your confidence","1",""
"589.5","i","choice","left","e","experimental","1348","2086459","0.0-4.0-8.151","false","152","2.349999999999999","","",""
"2842.599999964237","5","confid","","","html-slider-response","1350","2089807","0.0-4.0-10.151-0.151","","","","Rate your confidence","1",""
"257.10000002384186","i","choice","left","e","experimental","1358","3128775","0.0-4.0-8.152","false","153","2.4499999999999993","","",""
"2950.399999976158","4","confid","","","html-slider-response","1360","3132230","0.0-4.0-10.152-0.152","","","","Rate your confidence","1",""
"1280.5","i","choice","right","i","experimental","1367","3135314","0.0-4.0-8.153","true","154","2.5499999999999994","","",""
"2681.199999988079","4","confid","","","html-slider-response","1369","3138509","0.0-4.0-10.153-0.153","","","","Rate your confidence","1",""
"1531.9000000357628","i","choice","right","i","experimental","1376","3141825","0.0-4.0-8.154","true","155","2.5499999999999994","","",""
"2478.5","3","confid","","","html-slider-response","1378","3144808","0.0-4.0-10.154-0.154","","","","Rate your confidence","1",""
"287.10000002384186","i","choice","left","e","experimental","1385","3146882","0.0-4.0-8.155","false","156","2.4499999999999993","","",""
"2517.400000035763","4","confid","","","html-slider-response","1387","3149904","0.0-4.0-10.155-0.155","","","","Rate your confidence","1",""
"355.5","i","choice","right","i","experimental","1394","3152061","0.0-4.0-8.156","true","157","2.5499999999999994","","",""
"2394.800000011921","4","confid","","","html-slider-response","1396","3154962","0.0-4.0-10.156-0.156","","","","Rate your confidence","1",""
"318.10000002384186","e","choice","left","e","experimental","1403","3157083","0.0-4.0-8.157","true","158","2.5499999999999994","","",""
"3258.099999964237","4","confid","","","html-slider-response","1405","3160846","0.0-4.0-10.157-0.157","","","","Rate your confidence","1",""
"291.19999998807907","i","choice","left","e","experimental","1412","3162938","0.0-4.0-8.158","false","159","2.4499999999999993","","",""
"3494.900000035763","4","confid","","","html-slider-response","1414","3166938","0.0-4.0-10.158-0.158","","","","Rate your confidence","1",""
"852","i","choice","right","i","experimental","1421","3169578","0.0-4.0-8.159","true","160","2.5499999999999994","","",""
"2955.199999988079","4","confid","","","html-slider-response","1423","3173051","0.0-4.0-10.159-0.159","","","","Rate your confidence","1",""
"371.19999998807907","e","choice","left","e","experimental","1430","3175215","0.0-4.0-8.160","true","161","2.5499999999999994","","",""
"2353.599999964237","4","confid","","","html-slider-response","1432","3178073","0.0-4.0-10.160-0.160","","","","Rate your confidence","1",""
"1146.5","e","choice","right","i","experimental","1439","3181021","0.0-4.0-8.161","false","162","2.4499999999999993","","",""
"3604.5","2","confid","","","html-slider-response","1441","3185132","0.0-4.0-10.161-0.161","","","","Rate your confidence","1",""
"390.89999997615814","e","choice","left","e","experimental","1448","3187326","0.0-4.0-8.162","true","163","2.5499999999999994","","",""
"2265.699999988079","5","confid","","","html-slider-response","1450","3190097","0.0-4.0-10.162-0.162","","","","Rate your confidence","1",""
"293.19999998807907","i","choice","right","i","experimental","1457","3192176","0.0-4.0-8.163","true","164","2.5499999999999994","","",""
"2654.5","5","confid","","","html-slider-response","1459","3195336","0.0-4.0-10.163-0.163","","","","Rate your confidence","1",""
"549.8999999761581","e","choice","left","e","experimental","1466","3197673","0.0-4.0-8.164","true","165","2.4499999999999993","","",""
"2943.5","5","confid","","","html-slider-response","1468","3201121","0.0-4.0-10.164-0.164","","","","Rate your confidence","1",""
"322.4000000357628","i","choice","right","i","experimental","1475","3203249","0.0-4.0-8.165","true","166","2.4499999999999993","","",""
"2473.7999999523163","5","confid","","","html-slider-response","1477","3206228","0.0-4.0-10.165-0.165","","","","Rate your confidence","1",""
"294.30000001192093","e","choice","right","i","experimental","1484","3208310","0.0-4.0-8.166","false","167","2.349999999999999","","",""
"3037.5","5","confid","","","html-slider-response","1486","3211870","0.0-4.0-10.166-0.166","","","","Rate your confidence","1",""
"437.5","e","choice","left","e","experimental","1493","3214095","0.0-4.0-8.167","true","168","2.4499999999999993","","",""
"2896.300000011921","5","confid","","","html-slider-response","1495","3217497","0.0-4.0-10.167-0.167","","","","Rate your confidence","1",""
"354.0999999642372","e","choice","left","e","experimental","1502","3219636","0.0-4.0-8.168","true","169","2.4499999999999993","","",""
"2844","5","confid","","","html-slider-response","1504","3222985","0.0-4.0-10.168-0.168","","","","Rate your confidence","1",""
"316.7000000476837","e","choice","right","i","experimental","1511","3225087","0.0-4.0-8.169","false","170","2.349999999999999","","",""
"4392.5","6","confid","","","html-slider-response","1513","3229984","0.0-4.0-10.169-0.169","","","","Rate your confidence","1",""
"414.30000001192093","e","choice","right","i","experimental","1520","3232201","0.0-4.0-8.170","false","171","2.4499999999999993","","",""
"2530.199999988079","5","confid","","","html-slider-response","1522","3235237","0.0-4.0-10.170-0.170","","","","Rate your confidence","1",""
"433.30000001192093","i","choice","left","e","experimental","1529","3237460","0.0-4.0-8.171","false","172","2.5499999999999994","","",""
"2132","3","confid","","","html-slider-response","1531","3240097","0.0-4.0-10.171-0.171","","","","Rate your confidence","1",""
"581.6999999880791","e","choice","right","i","experimental","1538","3242465","0.0-4.0-8.172","false","173","2.6499999999999995","","",""
"3129.699999988079","3","confid","","","html-slider-response","1540","3246100","0.0-4.0-10.172-0.172","","","","Rate your confidence","1",""
"1081.1000000238419","i","choice","left","e","experimental","1547","3248966","0.0-4.0-8.173","false","174","2.7499999999999996","","",""
"2153.400000035763","2","confid","","","html-slider-response","1549","3251624","0.0-4.0-10.173-0.173","","","","Rate your confidence","1",""
"947.6000000238419","i","choice","left","e","experimental","1556","3254356","0.0-4.0-8.174","false","175","2.8499999999999996","","",""
"3047.099999964237","2","confid","","","html-slider-response","1558","3257908","0.0-4.0-10.174-0.174","","","","Rate your confidence","1",""
"148.10000002384186","i","choice","right","i","experimental","1565","3259858","0.0-4.0-8.175","true","176","2.9499999999999997","","",""
"2300.199999988079","4","confid","","","html-slider-response","1567","3262664","0.0-4.0-10.175-0.175","","","","Rate your confidence","1",""
"176.9000000357628","e","choice","left","e","experimental","1574","3264629","0.0-4.0-8.176","true","177","2.9499999999999997","","",""
"3399.899999976158","4","confid","","","html-slider-response","1576","3268535","0.0-4.0-10.176-0.176","","","","Rate your confidence","1",""
"182.5","i","choice","right","i","experimental","1583","3270501","0.0-4.0-8.177","true","178","2.8499999999999996","","",""
"2095.800000011921","5","confid","","","html-slider-response","1585","3273113","0.0-4.0-10.177-0.177","","","","Rate your confidence","1",""
"459.30000001192093","i","choice","right","i","experimental","1592","3275362","0.0-4.0-8.178","true","179","2.8499999999999996","","",""
"2842.399999976158","4","confid","","","html-slider-response","1594","3278711","0.0-4.0-10.178-0.178","","","","Rate your confidence","1",""
"366.80000001192093","e","choice","left","e","experimental","1601","3280883","0.0-4.0-8.179","true","180","2.7499999999999996","","",""
"3758.400000035763","5","confid","","","html-slider-response","1603","3285147","0.0-4.0-10.179-0.179","","","","Rate your confidence","1",""
"522.1000000238419","i","choice","right","i","experimental","1610","3287452","0.0-4.0-8.180","true","181","2.7499999999999996","","",""
"2758","3","confid","","","html-slider-response","1612","3290715","0.0-4.0-10.180-0.180","","","","Rate your confidence","1",""
"214.4000000357628","i","choice","left","e","experimental","1619","3292733","0.0-4.0-8.181","false","182","2.6499999999999995","","",""
"2307.199999988079","3","confid","","","html-slider-response","1621","3295546","0.0-4.0-10.181-0.181","","","","Rate your confidence","1",""
"39.39999997615814","e","choice","left","e","experimental","1628","3297376","0.0-4.0-8.182","true","183","2.7499999999999996","","",""
"3224.5","3","confid","","","html-slider-response","1630","3301105","0.0-4.0-10.182-0.182","","","","Rate your confidence","1",""
"471.19999998807907","i","choice","right","i","experimental","1637","3303363","0.0-4.0-8.183","true","184","2.7499999999999996","","",""
"2232.199999988079","5","confid","","","html-slider-response","1639","3306115","0.0-4.0-10.183-0.183","","","","Rate your confidence","1",""
"204.69999998807907","e","choice","left","e","experimental","1646","3308115","0.0-4.0-8.184","true","185","2.6499999999999995","","",""
"4507.100000023842","5","confid","","","html-slider-response","1648","3313128","0.0-4.0-10.184-0.184","","","","Rate your confidence","1",""
"300.5","e","choice","right","i","experimental","1655","3315230","0.0-4.0-8.185","false","186","2.6499999999999995","","",""
"3223.800000011921","5","confid","","","html-slider-response","1657","3318959","0.0-4.0-10.185-0.185","","","","Rate your confidence","1",""
"281.39999997615814","i","choice","right","i","experimental","1664","3321050","0.0-4.0-8.186","true","187","2.7499999999999996","","",""
"2138.100000023842","5","confid","","","html-slider-response","1666","3323694","0.0-4.0-10.186-0.186","","","","Rate your confidence","1",""
"390.19999998807907","i","choice","left","e","experimental","1673","3325872","0.0-4.0-8.187","false","188","2.7499999999999996","","",""
"4340.300000011921","5","confid","","","html-slider-response","1675","3330718","0.0-4.0-10.187-0.187","","","","Rate your confidence","1",""
"683.0999999642372","e","choice","left","e","experimental","1682","3333185","0.0-4.0-8.188","true","189","2.8499999999999996","","",""
"2825.5","5","confid","","","html-slider-response","1684","3336515","0.0-4.0-10.188-0.188","","","","Rate your confidence","1",""
"648.8000000119209","i","choice","right","i","experimental","1691","3338945","0.0-4.0-8.189","true","190","2.8499999999999996","","",""
"2219","4","confid","","","html-slider-response","1693","3341670","0.0-4.0-10.189-0.189","","","","Rate your confidence","1",""
"447.39999997615814","i","choice","right","i","experimental","1700","3343921","0.0-4.0-8.190","true","191","2.7499999999999996","","",""
"2476.199999988079","6","confid","","","html-slider-response","1702","3346903","0.0-4.0-10.190-0.190","","","","Rate your confidence","1",""
"450.69999998807907","i","choice","left","e","experimental","1709","3349158","0.0-4.0-8.191","false","192","2.7499999999999996","","",""
"2409","6","confid","","","html-slider-response","1711","3352072","0.0-4.0-10.191-0.191","","","","Rate your confidence","1",""
"631.7000000476837","i","choice","right","i","experimental","1718","3354489","0.0-4.0-8.192","true","193","2.8499999999999996","","",""
"2462","5","confid","","","html-slider-response","1720","3357457","0.0-4.0-10.192-0.192","","","","Rate your confidence","1",""
"409.9000000357628","i","choice","left","e","experimental","1727","3359655","0.0-4.0-8.193","false","194","2.8499999999999996","","",""
"2671.300000011921","6","confid","","","html-slider-response","1729","3362842","0.0-4.0-10.193-0.193","","","","Rate your confidence","1","87139"
