"rt","response","task","target_side","correct_response","trial_type","trial_index","time_elapsed","internal_node_id","correct","trial_number","n_dots","stimulus","slider_start","participant"
"1084.7999999821186","e","choice","right","i","practice","10","50738","0.0-4.0-8.0","false","1","4.25","","",""
"827.8000000119209","i","choice","left","e","practice","18","53850","0.0-4.0-8.1","false","2","4.65","","",""
"328.80000001192093","e","choice","left","e","practice","26","56461","0.0-4.0-8.2","true","3","5.050000000000001","","",""
"621.5999999940395","i","choice","right","i","practice","34","59356","0.0-4.0-8.3","true","4","5.050000000000001","","",""
"581.8000000119209","e","choice","left","e","practice","42","62215","0.0-4.0-8.4","true","5","4.65","","",""
"493.59999999403954","i","choice","right","i","practice","50","64990","0.0-4.0-8.5","true","6","4.65","","",""
"471.59999999403954","e","choice","left","e","practice","58","67744","0.0-4.0-8.6","true","7","4.45","","",""
"450.09999999403954","i","choice","right","i","practice","66","70475","0.0-4.0-8.7","true","8","4.45","","",""
"399.19999998807907","i","choice","right","i","practice","74","73152","0.0-4.0-8.8","true","9","4.25","","",""
"83.2999999821186","e","choice","left","e","practice","82","75513","0.0-4.0-8.9","true","10","4.25","","",""
"335","i","choice","right","i","practice","90","78127","0.0-4.0-8.10","true","11","4.05","","",""
"11.099999994039536","e","choice","left","e","practice","98","80417","0.0-4.0-8.11","true","12","4.05","","",""
"603.8000000119209","i","choice","right","i","practice","106","83298","0.0-4.0-8.12","true","13","3.9499999999999997","","",""
"355.69999998807907","e","choice","left","e","practice","114","85933","0.0-4.0-8.13","true","14","3.9499999999999997","","",""
"402.90000000596046","i","choice","right","i","practice","122","88620","0.0-4.0-8.14","true","15","3.8499999999999996","","",""
"414.90000000596046","e","choice","left","e","practice","130","91317","0.0-4.0-8.15","true","16","3.8499999999999996","","",""
"732.3999999761581","e","choice","right","i","practice","138","94332","0.0-4.0-8.16","false","17","3.7499999999999996","","",""
"461.40000000596046","e","choice","left","e","practice","146","97081","0.0-4.0-8.17","true","18","3.8499999999999996","","",""
"508.2000000178814","e","choice","left","e","practice","154","99874","0.0-4.0-8.18","true","19","3.8499999999999996","","",""
"371","i","choice","right","i","practice","162","102526","0.0-4.0-8.19","true","20","3.7499999999999996","","",""
"321","i","choice","right","i","practice","170","105127","0.0-4.0-8.20","true","21","3.7499999999999996","","",""
"409.09999999403954","e","choice","left","e","practice","178","107822","0.0-4.0-8.21","true","22","3.6499999999999995","","",""
"221.69999998807907","e","choice","left","e","practice","186","110323","0.0-4.0-8.22","true","23","3.6499999999999995","","",""
"213.80000001192093","i","choice","right","i","practice","194","112822","0.0-4.0-8.23","true","24","3.5499999999999994","","",""
"272.19999998807907","i","choice","right","i","practice","202","115382","0.0-4.0-8.24","true","25","3.5499999999999994","","",""
"97.90000000596046","e","choice","left","e","practice","210","117762","0.0-4.0-8.25","true","26","3.4499999999999993","","",""
"1348.9000000059605","e","choice","left","e","experimental","221","150068","0.0-4.0-8.26","true","27","3.4499999999999993","","",""
"2933.0999999940395","6","confid","","","html-slider-response","223","153502","0.0-4.0-10.26-0.26","","","","Rate your confidence","1",""
"1160.2000000178814","i","choice","right","i","experimental","230","156440","0.0-4.0-8.27","true","28","3.349999999999999","","",""
"4940.9000000059605","3","confid","","","html-slider-response","232","161886","0.0-4.0-10.27-0.27","","","","Rate your confidence","1",""
"989.5999999940395","e","choice","left","e","experimental","239","164656","0.0-4.0-8.28","true","29","3.349999999999999","","",""
"2639.7000000178814","4","confid","","","html-slider-response","241","167798","0.0-4.0-10.28-0.28","","","","Rate your confidence","1",""
"957.4000000059605","i","choice","right","i","experimental","248","170528","0.0-4.0-8.29","true","30","3.249999999999999","","",""
"1637.9000000059605","5","confid","","","html-slider-response","250","172669","0.0-4.0-10.29-0.29","","","","Rate your confidence","1",""
"952.9000000059605","e","choice","left","e","experimental","257","175397","0.0-4.0-8.30","true","31","3.249999999999999","","",""
"1493.699999988079","4","confid","","","html-slider-response","259","177393","0.0-4.0-10.30-0.30","","","","Rate your confidence","1",""
"1488.699999988079","e","choice","right","i","experimental","266","180660","0.0-4.0-8.31","false","32","3.149999999999999","","",""
"1564.2999999821186","2","confid","","","html-slider-response","268","182727","0.0-4.0-10.31-0.31","","","","Rate your confidence","1",""
"902.3000000119209","i","choice","left","e","experimental","275","185410","0.0-4.0-8.32","false","33","3.249999999999999","","",""
"1786.1000000238419","5","confid","","","html-slider-response","277","187698","0.0-4.0-10.32-0.32","","","","Rate your confidence","1",""
"795.7999999821186","i","choice","right","i","experimental","284","190269","0.0-4.0-8.33","true","34","3.349999999999999","","",""
"1508.5999999940395","6","confid","","","html-slider-response","286","192279","0.0-4.0-10.33-0.33","","","","Rate your confidence","1",""
"831.5999999940395","i","choice","right","i","experimental","293","194891","0.0-4.0-8.34","true","35","3.349999999999999","","",""
"3270.0999999940395","6","confid","","","html-slider-response","295","198663","0.0-4.0-10.34-0.34","","","","Rate your confidence","1",""
"710.5","e","choice","left","e","experimental","302","201154","0.0-4.0-8.35","true","36","3.249999999999999","","",""
"4462.5","6","confid","","","html-slider-response","304","206118","0.0-4.0-10.35-0.35","","","","Rate your confidence","1",""
"851.6999999880791","e","choice","left","e","experimental","311","208747","0.0-4.0-8.36","true","37","3.249999999999999","","",""
"2658.7000000178814","5","confid","","","html-slider-response","313","211907","0.0-4.0-10.36-0.36","","","","Rate your confidence","1",""
"1558.1000000238419","i","choice","right","i","experimental","320","215239","0.0-4.0-8.37","true","38","3.149999999999999","","",""
"13373.699999988079","4","confid","","","html-slider-response","322","229119","0.0-4.0-10.37-0.37","","","","Rate your confidence","1",""
"1638.199999988079","e","choice","left","e","experimental","329","232535","0.0-4.0-8.38","true","39","3.149999999999999","","",""
"2380.199999988079","2","confid","","","html-slider-response","331","235417","0.0-4.0-10.38-0.38","","","","Rate your confidence","1",""
"693.7999999821186","e","choice","right","i","experimental","338","237884","0.0-4.0-8.39","false","40","3.049999999999999","","",""
"2140","4","confid","","","html-slider-response","340","240526","0.0-4.0-10.39-0.39","","","","Rate your confidence","1",""
"904.7000000178814","i","choice","right","i","experimental","347","243204","0.0-4.0-8.40","true","41","3.149999999999999","","",""
"2615","5","confid","","","html-slider-response","349","246322","0.0-4.0-10.40-0.40","","","","Rate your confidence","1",""
"855","e","choice","left","e","experimental","356","248957","0.0-4.0-8.41","true","42","3.149999999999999","","",""
"1505.1000000238419","3","confid","","","html-slider-response","358","250966","0.0-4.0-10.41-0.41","","","","Rate your confidence","1",""
"772.4000000059605","i","choice","right","i","experimental","365","253516","0.0-4.0-8.42","true","43","3.049999999999999","","",""
"2663.4000000059605","5","confid","","","html-slider-response","367","256681","0.0-4.0-10.42-0.42","","","","Rate your confidence","1",""
"840.4000000059605","e","choice","left","e","experimental","374","259305","0.0-4.0-8.43","true","44","3.049999999999999","","",""
"2249","5","confid","","","html-slider-response","376","262058","0.0-4.0-10.43-0.43","","","","Rate your confidence","1",""
"811","e","choice","right","i","experimental","383","264642","0.0-4.0-8.44","false","45","2.949999999999999","","",""
"1571.8999999761581","4","confid","","","html-slider-response","385","266719","0.0-4.0-10.44-0.44","","","","Rate your confidence","1",""
"701.5","i","choice","left","e","experimental","392","269199","0.0-4.0-8.45","false","46","3.049999999999999","","",""
"5608.4000000059605","5","confid","","","html-slider-response","394","275309","0.0-4.0-10.45-0.45","","","","Rate your confidence","1",""
"768.5","e","choice","left","e","experimental","401","277858","0.0-4.0-8.46","true","47","3.149999999999999","","",""
"2339.600000023842","4","confid","","","html-slider-response","403","280699","0.0-4.0-10.46-0.46","","","","Rate your confidence","1",""
"528.2000000178814","i","choice","right","i","experimental","410","283005","0.0-4.0-8.47","true","48","3.149999999999999","","",""
"1709.7000000178814","5","confid","","","html-slider-response","412","285217","0.0-4.0-10.47-0.47","","","","Rate your confidence","1",""
"1744.1000000238419","e","choice","left","e","experimental","419","288737","0.0-4.0-8.48","true","49","3.049999999999999","","",""
"3270.0999999940395","1","confid","","","html-slider-response","421","292509","0.0-4.0-10.48-0.48","","","","Rate your confidence","1",""
"1221","e","choice","right","i","experimental","428","295510","0.0-4.0-8.49","false","50","3.049999999999999","","",""
"2671.800000011921","1","confid","","","html-slider-response","430","298684","0.0-4.0-10.49-0.49","","","","Rate your confidence","1",""
"943.5999999940395","e","choice","left","e","experimental","437","301402","0.0-4.0-8.50","true","51","3.149999999999999","","",""
"3416.5999999940395","3","confid","","","html-slider-response","439","305320","0.0-4.0-10.50-0.50","","","","Rate your confidence","1",""
"865.6999999880791","e","choice","right","i","experimental","446","307960","0.0-4.0-8.51","false","52","3.149999999999999","","",""
"2142.100000023842","2","confid","","","html-slider-response","448","310604","0.0-4.0-10.51-0.51","","","","Rate your confidence","1",""
"1714","e","choice","left","e","experimental","455","314094","0.0-4.0-8.52","true","53","3.249999999999999","","",""
"1927.300000011921","4","confid","","","html-slider-response","457","316523","0.0-4.0-10.52-0.52","","","","Rate your confidence","1",""
"911.0999999940395","i","choice","right","i","experimental","464","319216","0.0-4.0-8.53","true","54","3.249999999999999","","",""
"1829.5","4","confid","","","html-slider-response","466","321548","0.0-4.0-10.53-0.53","","","","Rate your confidence","1",""
"1668.1000000238419","i","choice","right","i","experimental","473","324992","0.0-4.0-8.54","true","55","3.149999999999999","","",""
"2684","2","confid","","","html-slider-response","475","328178","0.0-4.0-10.54-0.54","","","","Rate your confidence","1",""
"759","e","choice","left","e","experimental","482","330718","0.0-4.0-8.55","true","56","3.149999999999999","","",""
"1634.5","5","confid","","","html-slider-response","484","332854","0.0-4.0-10.55-0.55","","","","Rate your confidence","1",""
"675.7000000178814","i","choice","right","i","experimental","491","335301","0.0-4.0-8.56","true","57","3.049999999999999","","",""
"1410.5999999940395","5","confid","","","html-slider-response","493","337213","0.0-4.0-10.56-0.56","","","","Rate your confidence","1",""
"758.3000000119209","e","choice","left","e","experimental","500","339745","0.0-4.0-8.57","true","58","3.049999999999999","","",""
"2566","4","confid","","","html-slider-response","502","342813","0.0-4.0-10.57-0.57","","","","Rate your confidence","1",""
"664.2000000178814","i","choice","right","i","experimental","509","345252","0.0-4.0-8.58","true","59","2.949999999999999","","",""
"1365.9000000059605","3","confid","","","html-slider-response","511","347120","0.0-4.0-10.58-0.58","","","","Rate your confidence","1",""
"1029.300000011921","e","choice","left","e","experimental","518","349926","0.0-4.0-8.59","true","60","2.949999999999999","","",""
"1723.199999988079","3","confid","","","html-slider-response","520","352152","0.0-4.0-10.59-0.59","","","","Rate your confidence","1",""
"1042.7999999821186","i","choice","right","i","experimental","527","354971","0.0-4.0-8.60","true","61","2.8499999999999988","","",""
"2904.9000000059605","2","confid","","","html-slider-response","529","358382","0.0-4.0-10.60-0.60","","","","Rate your confidence","1",""
"884.5","e","choice","left","e","experimental","536","361046","0.0-4.0-8.61","true","62","2.8499999999999988","","",""
"7879.800000011921","3","confid","","","html-slider-response","538","369427","0.0-4.0-10.61-0.61","","","","Rate your confidence","1",""
"713.6999999880791","i","choice","right","i","experimental","545","371925","0.0-4.0-8.62","true","63","2.7499999999999987","","",""
"2780.5","4","confid","","","html-slider-response","547","375208","0.0-4.0-10.62-0.62","","","","Rate your confidence","1",""
"1176.5999999940395","e","choice","left","e","experimental","554","378164","0.0-4.0-8.63","true","64","2.7499999999999987","","",""
"3477.9000000059605","3","confid","","","html-slider-response","556","382146","0.0-4.0-10.63-0.63","","","","Rate your confidence","1",""
"5166.300000011921","i","choice","right","i","experimental","563","389087","0.0-4.0-8.64","true","65","2.6499999999999986","","",""
"2496.4000000059605","5","confid","","","html-slider-response","565","392086","0.0-4.0-10.64-0.64","","","","Rate your confidence","1",""
"857.3999999761581","e","choice","left","e","experimental","572","394720","0.0-4.0-8.65","true","66","2.6499999999999986","","",""
"3879","1","confid","","","html-slider-response","574","399101","0.0-4.0-10.65-0.65","","","","Rate your confidence","1",""
"688.0999999940395","i","choice","left","e","experimental","581","401570","0.0-4.0-8.66","false","67","2.5499999999999985","","",""
"2777.5","2","confid","","","html-slider-response","583","404850","0.0-4.0-10.66-0.66","","","","Rate your confidence","1",""
"714.0999999940395","i","choice","right","i","experimental","590","407341","0.0-4.0-8.67","true","68","2.6499999999999986","","",""
"1628.300000011921","5","confid","","","html-slider-response","592","409471","0.0-4.0-10.67-0.67","","","","Rate your confidence","1",""
"817.7000000178814","i","choice","right","i","experimental","600","419190","0.0-4.0-8.68","true","69","2.6499999999999986","","",""
"1540","4","confid","","","html-slider-response","602","421232","0.0-4.0-10.68-0.68","","","","Rate your confidence","1",""
"842.0999999940395","e","choice","left","e","experimental","609","423852","0.0-4.0-8.69","true","70","2.5499999999999985","","",""
"1896.199999988079","4","confid","","","html-slider-response","611","426251","0.0-4.0-10.69-0.69","","","","Rate your confidence","1",""
"998.3000000119209","i","choice","right","i","experimental","618","429025","0.0-4.0-8.70","true","71","2.5499999999999985","","",""
"1589.5","1","confid","","","html-slider-response","620","431116","0.0-4.0-10.70-0.70","","","","Rate your confidence","1",""
"797.4000000059605","e","choice","left","e","experimental","627","433694","0.0-4.0-8.71","true","72","2.4499999999999984","","",""
"1492.4000000059605","2","confid","","","html-slider-response","629","435689","0.0-4.0-10.71-0.71","","","","Rate your confidence","1",""
"1428.7999999821186","e","choice","left","e","experimental","636","438899","0.0-4.0-8.72","true","73","2.4499999999999984","","",""
"2204.399999976158","3","confid","","","html-slider-response","638","441607","0.0-4.0-10.72-0.72","","","","Rate your confidence","1",""
"752.2999999821186","i","choice","right","i","experimental","645","444135","0.0-4.0-8.73","true","74","2.3499999999999983","","",""
"1910.6000000238419","3","confid","","","html-slider-response","647","446548","0.0-4.0-10.73-0.73","","","","Rate your confidence","1",""
"800.8000000119209","e","choice","left","e","experimental","654","449123","0.0-4.0-8.74","true","75","2.3499999999999983","","",""
"1813.800000011921","1","confid","","","html-slider-response","656","451438","0.0-4.0-10.74-0.74","","","","Rate your confidence","1",""
"685.9000000059605","i","choice","right","i","experimental","663","453908","0.0-4.0-8.75","true","76","2.2499999999999982","","",""
"2474","4","confid","","","html-slider-response","665","456884","0.0-4.0-10.75-0.75","","","","Rate your confidence","1",""
"912.3000000119209","i","choice","right","i","experimental","672","459581","0.0-4.0-8.76","true","77","2.2499999999999982","","",""
"2464.5","2","confid","","","html-slider-response","674","462547","0.0-4.0-10.76-0.76","","","","Rate your confidence","1",""
"608.5999999940395","i","choice","left","e","experimental","681","464932","0.0-4.0-8.77","false","78","2.149999999999998","","",""
"1857.699999988079","3","confid","","","html-slider-response","683","467292","0.0-4.0-10.77-0.77","","","","Rate your confidence","1",""
"1250.5","e","choice","left","e","experimental","690","470320","0.0-4.0-8.78","true","79","2.2499999999999982","","",""
"3564.2000000178814","3","confid","","","html-slider-response","692","474386","0.0-4.0-10.78-0.78","","","","Rate your confidence","1",""
"673.2999999821186","i","choice","right","i","experimental","699","476844","0.0-4.0-8.79","true","80","2.2499999999999982","","",""
"2376.399999976158","4","confid","","","html-slider-response","701","479722","0.0-4.0-10.79-0.79","","","","Rate your confidence","1",""
"938.5","e","choice","left","e","experimental","708","482444","0.0-4.0-8.80","true","81","2.149999999999998","","",""
"2696.2999999821186","3","confid","","","html-slider-response","710","485645","0.0-4.0-10.80-0.80","","","","Rate your confidence","1",""
"511.80000001192093","i","choice","right","i","experimental","717","487942","0.0-4.0-8.81","true","82","2.149999999999998","","",""
"1610.7000000178814","3","confid","","","html-slider-response","719","490054","0.0-4.0-10.81-0.81","","","","Rate your confidence","1",""
"649.3999999761581","i","choice","right","i","experimental","726","492480","0.0-4.0-8.82","true","83","2.049999999999998","","",""
"2436.9000000059605","4","confid","","","html-slider-response","728","495419","0.0-4.0-10.82-0.82","","","","Rate your confidence","1",""
"1018.9000000059605","i","choice","left","e","experimental","735","498215","0.0-4.0-8.83","false","84","2.049999999999998","","",""
"1499","4","confid","","","html-slider-response","737","500216","0.0-4.0-10.83-0.83","","","","Rate your confidence","1",""
"811","e","choice","right","i","experimental","744","502802","0.0-4.0-8.84","false","85","2.149999999999998","","",""
"3621.2000000178814","3","confid","","","html-slider-response","746","506929","0.0-4.0-10.84-0.84","","","","Rate your confidence","1",""
"582.4000000059605","e","choice","left","e","experimental","753","509293","0.0-4.0-8.85","true","86","2.2499999999999982","","",""
"2685.4000000059605","2","confid","","","html-slider-response","755","512483","0.0-4.0-10.85-0.85","","","","Rate your confidence","1",""
"923","i","choice","left","e","experimental","762","515190","0.0-4.0-8.86","false","87","2.2499999999999982","","",""
"2017.2999999821186","1","confid","","","html-slider-response","764","517710","0.0-4.0-10.86-0.86","","","","Rate your confidence","1",""
"837.5999999940395","i","choice","right","i","experimental","771","520328","0.0-4.0-8.87","true","88","2.3499999999999983","","",""
"2071.9000000059605","2","confid","","","html-slider-response","773","522906","0.0-4.0-10.87-0.87","","","","Rate your confidence","1",""
"653.2000000178814","i","choice","left","e","experimental","780","525333","0.0-4.0-8.88","false","89","2.3499999999999983","","",""
"2660.5","3","confid","","","html-slider-response","782","528496","0.0-4.0-10.88-0.88","","","","Rate your confidence","1",""
"1007.0999999940395","i","choice","right","i","experimental","789","531283","0.0-4.0-8.89","true","90","2.4499999999999984","","",""
"2937.800000011921","4","confid","","","html-slider-response","791","534722","0.0-4.0-10.89-0.89","","","","Rate your confidence","1",""
"865.0999999940395","i","choice","right","i","experimental","798","537373","0.0-4.0-8.90","true","91","2.4499999999999984","","",""
"1636.0999999940395","4","confid","","","html-slider-response","800","539511","0.0-4.0-10.90-0.90","","","","Rate your confidence","1",""
"795.1000000238419","i","choice","left","e","experimental","807","542088","0.0-4.0-8.91","false","92","2.3499999999999983","","",""
"1662.699999988079","4","confid","","","html-slider-response","809","544252","0.0-4.0-10.91-0.91","","","","Rate your confidence","1",""
"804.6000000238419","e","choice","left","e","experimental","816","546833","0.0-4.0-8.92","true","93","2.4499999999999984","","",""
"2370.699999988079","5","confid","","","html-slider-response","818","549709","0.0-4.0-10.92-0.92","","","","Rate your confidence","1",""
"989.5999999940395","i","choice","right","i","experimental","825","552474","0.0-4.0-8.93","true","94","2.4499999999999984","","",""
"1897","1","confid","","","html-slider-response","827","554873","0.0-4.0-10.93-0.93","","","","Rate your confidence","1",""
"814","e","choice","right","i","experimental","834","557467","0.0-4.0-8.94","false","95","2.3499999999999983","","",""
"1629.199999988079","3","confid","","","html-slider-response","836","559598","0.0-4.0-10.94-0.94","","","","Rate your confidence","1",""
"1213.199999988079","e","choice","left","e","experimental","843","562594","0.0-4.0-8.95","true","96","2.4499999999999984","","",""
"2106.5","4","confid","","","html-slider-response","845","565202","0.0-4.0-10.95-0.95","","","","Rate your confidence","1",""
"763.9000000059605","i","choice","left","e","experimental","852","567744","0.0-4.0-8.96","false","97","2.4499999999999984","","",""
"2831","2","confid","","","html-slider-response","854","571077","0.0-4.0-10.96-0.96","","","","Rate your confidence","1",""
"737.5999999940395","i","choice","right","i","experimental","861","573598","0.0-4.0-8.97","true","98","2.5499999999999985","","",""
"1903.3999999761581","3","confid","","","html-slider-response","863","576003","0.0-4.0-10.97-0.97","","","","Rate your confidence","1",""
"1116.2000000178814","i","choice","right","i","experimental","870","578902","0.0-4.0-8.98","true","99","2.5499999999999985","","",""
"2064","1","confid","","","html-slider-response","872","581469","0.0-4.0-10.98-0.98","","","","Rate your confidence","1",""
"745.3000000119209","e","choice","left","e","experimental","879","583995","0.0-4.0-8.99","true","100","2.4499999999999984","","",""
"2019.5","5","confid","","","html-slider-response","881","586517","0.0-4.0-10.99-0.99","","","","Rate your confidence","1",""
"746","i","choice","left","e","experimental","888","589036","0.0-4.0-8.100","false","101","2.4499999999999984","","",""
"1459.8999999761581","3","confid","","","html-slider-response","890","590998","0.0-4.0-10.100-0.100","","","","Rate your confidence","1",""
"558.3000000119209","i","choice","right","i","experimental","897","593338","0.0-4.0-8.101","true","102","2.5499999999999985","","",""
"1975.0999999940395","4","confid","","","html-slider-response","899","595815","0.0-4.0-10.101-0.101","","","","Rate your confidence","1",""
"697.0999999940395","i","choice","right","i","experimental","906","598288","0.0-4.0-8.102","true","103","2.5499999999999985","","",""
"2388.399999976158","4","confid","","","html-slider-response","908","601179","0.0-4.0-10.102-0.102","","","","Rate your confidence","1",""
"693.8000000119209","i","choice","left","e","experimental","915","603650","0.0-4.0-8.103","false","104","2.4499999999999984","","",""
"1689","4","confid","","","html-slider-response","917","605841","0.0-4.0-10.103-0.103","","","","Rate your confidence","1",""
"800.5","e","choice","left","e","experimental","924","608422","0.0-4.0-8.104","true","105","2.5499999999999985","","",""
"2617.9000000059605","2","confid","","","html-slider-response","926","611542","0.0-4.0-10.104-0.104","","","","Rate your confidence","1",""
"688","i","choice","right","i","experimental","933","614010","0.0-4.0-8.105","true","106","2.5499999999999985","","",""
"1466.300000011921","2","confid","","","html-slider-response","935","615979","0.0-4.0-10.105-0.105","","","","Rate your confidence","1",""
"825.5999999940395","e","choice","right","i","experimental","942","618582","0.0-4.0-8.106","false","107","2.4499999999999984","","",""
"1959.5","4","confid","","","html-slider-response","944","621044","0.0-4.0-10.106-0.106","","","","Rate your confidence","1",""
"1522.9000000059605","e","choice","left","e","experimental","951","624344","0.0-4.0-8.107","true","108","2.5499999999999985","","",""
"3529.4000000059605","6","confid","","","html-slider-response","953","628376","0.0-4.0-10.107-0.107","","","","Rate your confidence","1",""
"1325.800000011921","i","choice","left","e","experimental","960","631488","0.0-4.0-8.108","false","109","2.5499999999999985","","",""
"2244.2000000178814","1","confid","","","html-slider-response","962","634234","0.0-4.0-10.108-0.108","","","","Rate your confidence","1",""
"1312.9000000059605","e","choice","right","i","experimental","969","637326","0.0-4.0-8.109","false","110","2.6499999999999986","","",""
"1461.5999999940395","5","confid","","","html-slider-response","971","639289","0.0-4.0-10.109-0.109","","","","Rate your confidence","1",""
"808.0999999940395","e","choice","left","e","experimental","979","799330","0.0-4.0-8.110","true","111","2.7499999999999987","","",""
"1661.699999988079","4","confid","","","html-slider-response","981","801493","0.0-4.0-10.110-0.110","","","","Rate your confidence","1",""
"653.5","i","choice","right","i","experimental","988","803928","0.0-4.0-8.111","true","112","2.7499999999999987","","",""
"5300.9000000059605","5","confid","","","html-slider-response","990","809730","0.0-4.0-10.111-0.111","","","","Rate your confidence","1",""
"649.8000000119209","i","choice","right","i","experimental","997","812160","0.0-4.0-8.112","true","113","2.6499999999999986","","",""
"1473.7000000178814","4","confid","","","html-slider-response","999","814136","0.0-4.0-10.112-0.112","","","","Rate your confidence","1",""
"777.4000000059605","e","choice","left","e","experimental","1006","816695","0.0-4.0-8.113","true","114","2.6499999999999986","","",""
"2002.699999988079","3","confid","","","html-slider-response","1008","819199","0.0-4.0-10.113-0.113","","","","Rate your confidence","1",""
"995.7999999821186","e","choice","right","i","experimental","1015","821974","0.0-4.0-8.114","false","115","2.5499999999999985","","",""
"3228.4000000059605","3","confid","","","html-slider-response","1017","825705","0.0-4.0-10.114-0.114","","","","Rate your confidence","1",""
"582.9000000059605","e","choice","left","e","experimental","1024","828068","0.0-4.0-8.115","true","116","2.6499999999999986","","",""
"7361.4000000059605","3","confid","","","html-slider-response","1026","835932","0.0-4.0-10.115-0.115","","","","Rate your confidence","1",""
"1467.199999988079","e","choice","left","e","experimental","1033","839181","0.0-4.0-8.116","true","117","2.6499999999999986","","",""
"1899.5999999940395","1","confid","","","html-slider-response","1035","841582","0.0-4.0-10.116-0.116","","","","Rate your confidence","1",""
"1233.7000000178814","i","choice","right","i","experimental","1042","844596","0.0-4.0-8.117","true","118","2.5499999999999985","","",""
"3751.4000000059605","2","confid","","","html-slider-response","1044","848850","0.0-4.0-10.117-0.117","","","","Rate your confidence","1",""
"1406.699999988079","i","choice","right","i","experimental","1051","852031","0.0-4.0-8.118","true","119","2.5499999999999985","","",""
"2510.4000000059605","4","confid","","","html-slider-response","1053","855043","0.0-4.0-10.118-0.118","","","","Rate your confidence","1",""
"684.5999999940395","e","choice","left","e","experimental","1060","857509","0.0-4.0-8.119","true","120","2.4499999999999984","","",""
"1555.9000000059605","3","confid","","","html-slider-response","1062","859566","0.0-4.0-10.119-0.119","","","","Rate your confidence","1",""
"892.0999999940395","e","choice","right","i","experimental","1069","862239","0.0-4.0-8.120","false","121","2.4499999999999984","","",""
"2504.5999999940395","3","confid","","","html-slider-response","1071","865245","0.0-4.0-10.120-0.120","","","","Rate your confidence","1",""
"874.6999999880791","e","choice","left","e","experimental","1078","867895","0.0-4.0-8.121","true","122","2.5499999999999985","","",""
"1502","4","confid","","","html-slider-response","1080","869899","0.0-4.0-10.121-0.121","","","","Rate your confidence","1",""
"860.5999999940395","i","choice","right","i","experimental","1087","872535","0.0-4.0-8.122","true","123","2.5499999999999985","","",""
"1935.2999999821186","5","confid","","","html-slider-response","1089","874972","0.0-4.0-10.122-0.122","","","","Rate your confidence","1",""
"1413.7000000178814","i","choice","left","e","experimental","1096","878163","0.0-4.0-8.123","false","124","2.4499999999999984","","",""
"1964.699999988079","1","confid","","","html-slider-response","1098","880629","0.0-4.0-10.123-0.123","","","","Rate your confidence","1",""
"1122.6000000238419","e","choice","right","i","experimental","1105","883534","0.0-4.0-8.124","false","125","2.5499999999999985","","",""
"1584","1","confid","","","html-slider-response","1107","885617","0.0-4.0-10.124-0.124","","","","Rate your confidence","1",""
"743.7999999821186","e","choice","left","e","experimental","1114","888135","0.0-4.0-8.125","true","126","2.6499999999999986","","",""
"1601.0999999940395","2","confid","","","html-slider-response","1116","890240","0.0-4.0-10.125-0.125","","","","Rate your confidence","1",""
"755.5","e","choice","left","e","experimental","1123","892767","0.0-4.0-8.126","true","127","2.6499999999999986","","",""
"1475.3999999761581","5","confid","","","html-slider-response","1125","894743","0.0-4.0-10.126-0.126","","","","Rate your confidence","1",""
"1628.4000000059605","e","choice","right","i","experimental","1132","898146","0.0-4.0-8.127","false","128","2.5499999999999985","","",""
"1713.8999999761581","2","confid","","","html-slider-response","1134","900360","0.0-4.0-10.127-0.127","","","","Rate your confidence","1",""
"852.4000000059605","e","choice","left","e","experimental","1141","902994","0.0-4.0-8.128","true","129","2.6499999999999986","","",""
"1435.800000011921","2","confid","","","html-slider-response","1143","904931","0.0-4.0-10.128-0.128","","","","Rate your confidence","1",""
"627.7999999821186","i","choice","right","i","experimental","1150","907338","0.0-4.0-8.129","true","130","2.6499999999999986","","",""
"3282.0999999940395","2","confid","","","html-slider-response","1152","911121","0.0-4.0-10.129-0.129","","","","Rate your confidence","1",""
"869.4000000059605","i","choice","left","e","experimental","1159","913767","0.0-4.0-8.130","false","131","2.5499999999999985","","",""
"1873.5999999940395","3","confid","","","html-slider-response","1161","916142","0.0-4.0-10.130-0.130","","","","Rate your confidence","1",""
"1973.4000000059605","e","choice","right","i","experimental","1168","919891","0.0-4.0-8.131","false","132","2.6499999999999986","","",""
"10095.200000017881","1","confid","","","html-slider-response","1170","930486","0.0-4.0-10.131-0.131","","","","Rate your confidence","1",""
"604.4000000059605","e","choice","left","e","experimental","1177","932876","0.0-4.0-8.132","true","133","2.7499999999999987","","",""
"2109.4000000059605","4","confid","","","html-slider-response","1179","935487","0.0-4.0-10.132-0.132","","","","Rate your confidence","1",""
"733.1999999880791","i","choice","right","i","experimental","1186","938003","0.0-4.0-8.133","true","134","2.7499999999999987","","",""
"1757.300000011921","6","confid","","","html-slider-response","1188","940263","0.0-4.0-10.133-0.133","","","","Rate your confidence","1",""
"726.4000000059605","e","choice","left","e","experimental","1195","942771","0.0-4.0-8.134","true","135","2.6499999999999986","","",""
"1685","6","confid","","","html-slider-response","1197","944958","0.0-4.0-10.134-0.134","","","","Rate your confidence","1",""
"605.6000000238419","i","choice","right","i","experimental","1204","947341","0.0-4.0-8.135","true","136","2.6499999999999986","","",""
"1874.300000011921","2","confid","","","html-slider-response","1206","949718","0.0-4.0-10.135-0.135","","","","Rate your confidence","1",""
"1196.2999999821186","i","choice","right","i","experimental","1213","952693","0.0-4.0-8.136","true","137","2.5499999999999985","","",""
"2154.2000000178814","4","confid","","","html-slider-response","1215","955349","0.0-4.0-10.136-0.136","","","","Rate your confidence","1",""
"744.1999999880791","i","choice","left","e","experimental","1222","957869","0.0-4.0-8.137","false","138","2.5499999999999985","","",""
"2013.0999999940395","3","confid","","","html-slider-response","1224","960384","0.0-4.0-10.137-0.137","","","","Rate your confidence","1",""
"903.1999999880791","i","choice","right","i","experimental","1231","963068","0.0-4.0-8.138","true","139","2.6499999999999986","","",""
"1590.800000011921","5","confid","","","html-slider-response","1233","965161","0.0-4.0-10.138-0.138","","","","Rate your confidence","1",""
"1063.800000011921","i","choice","left","e","experimental","1240","968001","0.0-4.0-8.139","false","140","2.6499999999999986","","",""
"1959.0999999940395","1","confid","","","html-slider-response","1242","970462","0.0-4.0-10.139-0.139","","","","Rate your confidence","1",""
"546.5","i","choice","left","e","experimental","1249","972790","0.0-4.0-8.140","false","141","2.7499999999999987","","",""
"1797.199999988079","3","confid","","","html-slider-response","1251","975089","0.0-4.0-10.140-0.140","","","","Rate your confidence","1",""
"471.40000000596046","i","choice","right","i","experimental","1258","977340","0.0-4.0-8.141","true","142","2.8499999999999988","","",""
"1610.800000011921","5","confid","","","html-slider-response","1260","979453","0.0-4.0-10.141-0.141","","","","Rate your confidence","1",""
"812.9000000059605","e","choice","left","e","experimental","1267","982041","0.0-4.0-8.142","true","143","2.8499999999999988","","",""
"2234.4000000059605","6","confid","","","html-slider-response","1269","984779","0.0-4.0-10.142-0.142","","","","Rate your confidence","1",""
"450.7999999821186","i","choice","right","i","experimental","1276","987009","0.0-4.0-8.143","true","144","2.7499999999999987","","",""
"2797","4","confid","","","html-slider-response","1278","990308","0.0-4.0-10.143-0.143","","","","Rate your confidence","1",""
"764.8000000119209","e","choice","left","e","experimental","1285","992856","0.0-4.0-8.144","true","145","2.7499999999999987","","",""
"1771.699999988079","3","confid","","","html-slider-response","1287","995130","0.0-4.0-10.144-0.144","","","","Rate your confidence","1",""
"519.9000000059605","i","choice","right","i","experimental","1294","997430","0.0-4.0-8.145","true","146","2.6499999999999986","","",""
"1623.699999988079","5","confid","","","html-slider-response","1296","999556","0.0-4.0-10.145-0.145","","","","Rate your confidence","1",""
"700.1999999880791","e","choice","left","e","experimental","1303","1002037","0.0-4.0-8.146","true","147","2.6499999999999986","","",""
"2119.5","4","confid","","","html-slider-response","1305","1004659","0.0-4.0-10.146-0.146","","","","Rate your confidence","1",""
"705.2999999821186","i","choice","right","i","experimental","1312","1007140","0.0-4.0-8.147","true","148","2.5499999999999985","","",""
"1664.8999999761581","4","confid","","","html-slider-response","1314","1009307","0.0-4.0-10.147-0.147","","","","Rate your confidence","1",""
"518.2999999821186","i","choice","right","i","experimental","1321","1011604","0.0-4.0-8.148","true","149","2.5499999999999985","","",""
"1564.0999999940395","5","confid","","","html-slider-response","1323","1013671","0.0-4.0-10.148-0.148","","","","Rate your confidence","1",""
"576.7000000178814","i","choice","left","e","experimental","1330","1016031","0.0-4.0-8.149","false","150","2.4499999999999984","","",""
"2482.9000000059605","5","confid","","","html-slider-response","1332","1019019","0.0-4.0-10.149-0.149","","","","Rate your confidence","1",""
"471.5","i","choice","left","e","experimental","1339","1021269","0.0-4.0-8.150","false","151","2.5499999999999985","","",""
"2607.5","5","confid","","","html-slider-response","1341","1024379","0.0-4.0-10.150-0.150","","","","Rate your confidence","1",""
"671.5","i","choice","right","i","experimental","1348","1026829","0.0-4.0-8.151","true","152","2.6499999999999986","","",""
"1911.9000000059605","5","confid","","","html-slider-response","1350","1029244","0.0-4.0-10.151-0.151","","","","Rate your confidence","1",""
"566.4000000059605","e","choice","left","e","experimental","1358","1037056","0.0-4.0-8.152","true","153","2.6499999999999986","","",""
"1465.199999988079","4","confid","","","html-slider-response","1360","1039024","0.0-4.0-10.152-0.152","","","","Rate your confidence","1",""
"395.7000000178814","i","choice","right","i","experimental","1367","1041203","0.0-4.0-8.153","true","154","2.5499999999999985","","",""
"1439.4000000059605","5","confid","","","html-slider-response","1369","1043145","0.0-4.0-10.153-0.153","","","","Rate your confidence","1",""
"560.2999999821186","e","choice","left","e","experimental","1376","1045486","0.0-4.0-8.154","true","155","2.5499999999999985","","",""
"2344.800000011921","2","confid","","","html-slider-response","1378","1048332","0.0-4.0-10.154-0.154","","","","Rate your confidence","1",""
"611.5999999940395","i","choice","right","i","experimental","1385","1050721","0.0-4.0-8.155","true","156","2.4499999999999984","","",""
"1209.5999999940395","5","confid","","","html-slider-response","1387","1052432","0.0-4.0-10.155-0.155","","","","Rate your confidence","1",""
"1033.800000011921","e","choice","left","e","experimental","1394","1055244","0.0-4.0-8.156","true","157","2.4499999999999984","","",""
"1339.7000000178814","4","confid","","","html-slider-response","1396","1057086","0.0-4.0-10.156-0.156","","","","Rate your confidence","1",""
"742","i","choice","right","i","experimental","1403","1059602","0.0-4.0-8.157","true","158","2.3499999999999983","","",""
"1494.199999988079","5","confid","","","html-slider-response","1405","1061599","0.0-4.0-10.157-0.157","","","","Rate your confidence","1",""
"1046.5999999940395","i","choice","right","i","experimental","1412","1064434","0.0-4.0-8.158","true","159","2.3499999999999983","","",""
"2125","5","confid","","","html-slider-response","1414","1067061","0.0-4.0-10.158-0.158","","","","Rate your confidence","1",""
"808.1999999880791","i","choice","left","e","experimental","1421","1069647","0.0-4.0-8.159","false","160","2.2499999999999982","","",""
"2569.899999976158","4","confid","","","html-slider-response","1423","1072719","0.0-4.0-10.159-0.159","","","","Rate your confidence","1",""
"933.0999999940395","e","choice","left","e","experimental","1430","1075426","0.0-4.0-8.160","true","161","2.3499999999999983","","",""
"1358.4000000059605","4","confid","","","html-slider-response","1432","1077287","0.0-4.0-10.160-0.160","","","","Rate your confidence","1",""
"575.4000000059605","i","choice","right","i","experimental","1439","1079644","0.0-4.0-8.161","true","162","2.3499999999999983","","",""
"1867.300000011921","5","confid","","","html-slider-response","1441","1082015","0.0-4.0-10.161-0.161","","","","Rate your confidence","1",""
"716.5","i","choice","left","e","experimental","1448","1084509","0.0-4.0-8.162","false","163","2.2499999999999982","","",""
"1791.0999999940395","4","confid","","","html-slider-response","1450","1086802","0.0-4.0-10.162-0.162","","","","Rate your confidence","1",""
"1000.9000000059605","i","choice","right","i","experimental","1457","1089584","0.0-4.0-8.163","true","164","2.3499999999999983","","",""
"3046.2000000178814","4","confid","","","html-slider-response","1459","1093132","0.0-4.0-10.163-0.163","","","","Rate your confidence","1",""
"782.7999999821186","i","choice","right","i","experimental","1466","1095694","0.0-4.0-8.164","true","165","2.3499999999999983","","",""
"1658.2999999821186","1","confid","","","html-slider-response","1468","1097855","0.0-4.0-10.164-0.164","","","","Rate your confidence","1",""
"802.5","e","choice","left","e","experimental","1475","1100439","0.0-4.0-8.165","true","166","2.2499999999999982","","",""
"1492.699999988079","2","confid","","","html-slider-response","1477","1102434","0.0-4.0-10.165-0.165","","","","Rate your confidence","1",""
"826.7000000178814","e","choice","left","e","experimental","1484","1105036","0.0-4.0-8.166","true","167","2.2499999999999982","","",""
"1598","2","confid","","","html-slider-response","1486","1107137","0.0-4.0-10.166-0.166","","","","Rate your confidence","1",""
"510.69999998807907","i","choice","right","i","experimental","1493","1109424","0.0-4.0-8.167","true","168","2.149999999999998","","",""
"8329.100000023842","1","confid","","","html-slider-response","1495","1118255","0.0-4.0-10.167-0.167","","","","Rate your confidence","1",""
"478.09999999403954","i","choice","left","e","experimental","1502","1120516","0.0-4.0-8.168","false","169","2.149999999999998","","",""
"1653","4","confid","","","html-slider-response","1504","1122671","0.0-4.0-10.168-0.168","","","","Rate your confidence","1",""
"366.7000000178814","i","choice","right","i","experimental","1511","1124814","0.0-4.0-8.169","true","170","2.2499999999999982","","",""
"1795.1000000238419","6","confid","","","html-slider-response","1513","1127112","0.0-4.0-10.169-0.169","","","","Rate your confidence","1",""
"415.30000001192093","i","choice","right","i","experimental","1520","1129305","0.0-4.0-8.170","true","171","2.2499999999999982","","",""
"1656.9000000059605","6","confid","","","html-slider-response","1522","1131469","0.0-4.0-10.170-0.170","","","","Rate your confidence","1",""
"662.1999999880791","e","choice","left","e","experimental","1529","1133906","0.0-4.0-8.171","true","172","2.149999999999998","","",""
"1714.5999999940395","5","confid","","","html-slider-response","1531","1136123","0.0-4.0-10.171-0.171","","","","Rate your confidence","1",""
"700.8999999761581","i","choice","right","i","experimental","1538","1138597","0.0-4.0-8.172","true","173","2.149999999999998","","",""
"1288.199999988079","2","confid","","","html-slider-response","1540","1140387","0.0-4.0-10.172-0.172","","","","Rate your confidence","1",""
"2048","e","choice","left","e","experimental","1547","1144219","0.0-4.0-8.173","true","174","2.049999999999998","","",""
"4639.5999999940395","3","confid","","","html-slider-response","1549","1149361","0.0-4.0-10.173-0.173","","","","Rate your confidence","1",""
"454.40000000596046","i","choice","right","i","experimental","1556","1151593","0.0-4.0-8.174","true","175","2.049999999999998","","",""
"14722.40000000596","2","confid","","","html-slider-response","1558","1166818","0.0-4.0-10.174-0.174","","","","Rate your confidence","1",""
"625.3999999761581","i","choice","left","e","experimental","1565","1169224","0.0-4.0-8.175","false","176","1.949999999999998","","",""
"1304.9000000059605","4","confid","","","html-slider-response","1567","1171031","0.0-4.0-10.175-0.175","","","","Rate your confidence","1",""
"565.8999999761581","i","choice","right","i","experimental","1574","1173377","0.0-4.0-8.176","true","177","2.049999999999998","","",""
"3054.0999999940395","3","confid","","","html-slider-response","1576","1176933","0.0-4.0-10.176-0.176","","","","Rate your confidence","1",""
"3399.4000000059605","i","choice","left","e","experimental","1583","1182114","0.0-4.0-8.177","false","178","2.049999999999998","","",""
"2042.5999999940395","4","confid","","","html-slider-response","1585","1184659","0.0-4.0-10.177-0.177","","","","Rate your confidence","1",""
"831.0999999940395","e","choice","right","i","experimental","1592","1187267","0.0-4.0-8.178","false","179","2.149999999999998","","",""
"4170.199999988079","2","confid","","","html-slider-response","1594","1191940","0.0-4.0-10.178-0.178","","","","Rate your confidence","1",""
"941.2999999821186","e","choice","left","e","experimental","1601","1194659","0.0-4.0-8.179","true","180","2.2499999999999982","","",""
"1505.300000011921","3","confid","","","html-slider-response","1603","1196665","0.0-4.0-10.179-0.179","","","","Rate your confidence","1",""
"578.8000000119209","i","choice","left","e","experimental","1610","1199026","0.0-4.0-8.180","false","181","2.2499999999999982","","",""
"2277.5","2","confid","","","html-slider-response","1612","1201806","0.0-4.0-10.180-0.180","","","","Rate your confidence","1",""
"280.19999998807907","i","choice","right","i","experimental","1619","1203868","0.0-4.0-8.181","true","182","2.3499999999999983","","",""
"4301.4000000059605","4","confid","","","html-slider-response","1621","1208673","0.0-4.0-10.181-0.181","","","","Rate your confidence","1",""
"348.90000000596046","i","choice","left","e","experimental","1628","1210802","0.0-4.0-8.182","false","183","2.3499999999999983","","",""
"2700.0999999940395","5","confid","","","html-slider-response","1630","1214004","0.0-4.0-10.182-0.182","","","","Rate your confidence","1",""
"587.5","i","choice","right","i","experimental","1637","1216368","0.0-4.0-8.183","true","184","2.4499999999999984","","",""
"1734.7000000178814","3","confid","","","html-slider-response","1639","1218610","0.0-4.0-10.183-0.183","","","","Rate your confidence","1",""
"485.90000000596046","i","choice","right","i","experimental","1646","1220875","0.0-4.0-8.184","true","185","2.4499999999999984","","",""
"1927.199999988079","4","confid","","","html-slider-response","1648","1223305","0.0-4.0-10.184-0.184","","","","Rate your confidence","1",""
"412","e","choice","left","e","experimental","1655","1225498","0.0-4.0-8.185","true","186","2.3499999999999983","","",""
"1675.7999999821186","6","confid","","","html-slider-response","1657","1227677","0.0-4.0-10.185-0.185","","","","Rate your confidence","1",""
"489.40000000596046","i","choice","right","i","experimental","1664","1229950","0.0-4.0-8.186","true","187","2.3499999999999983","","",""
"1535.7999999821186","5","confid","","","html-slider-response","1666","1231988","0.0-4.0-10.186-0.186","","","","Rate your confidence","1",""
"1596.4000000059605","e","choice","left","e","experimental","1673","1235361","0.0-4.0-8.187","true","188","2.2499999999999982","","",""
"1595","1","confid","","","html-slider-response","1675","1237458","0.0-4.0-10.187-0.187","","","","Rate your confidence","1",""
"1071.2000000178814","e","choice","left","e","experimental","1682","1240307","0.0-4.0-8.188","true","189","2.2499999999999982","","",""
"1473.7000000178814","2","confid","","","html-slider-response","1684","1242283","0.0-4.0-10.188-0.188","","","","Rate your confidence","1",""
"1045.0999999940395","e","choice","right","i","experimental","1691","1245103","0.0-4.0-8.189","false","190","2.149999999999998","","",""
"1412.4000000059605","3","confid","","","html-slider-response","1693","1247018","0.0-4.0-10.189-0.189","","","","Rate your confidence","1",""
"461.60000002384186","i","choice","left","e","experimental","1700","1249266","0.0-4.0-8.190","false","191","2.2499999999999982","","",""
"1934.199999988079","3","confid","","","html-slider-response","1702","1251703","0.0-4.0-10.190-0.190","","","","Rate your confidence","1",""
"541.9000000059605","i","choice","right","i","experimental","1709","1254025","0.0-4.0-8.191","true","192","2.3499999999999983","","",""
"1182.7999999821186","3","confid","","","html-slider-response","1711","1255710","0.0-4.0-10.191-0.191","","","","Rate your confidence","1",""
"560.2999999821186","i","choice","right","i","experimental","1718","1258045","0.0-4.0-8.192","true","193","2.3499999999999983","","",""
"1525.800000011921","4","confid","","","html-slider-response","1720","1260073","0.0-4.0-10.192-0.192","","","","Rate your confidence","1",""
"888.2999999821186","e","choice","left","e","experimental","1727","1262738","0.0-4.0-8.193","true","194","2.2499999999999982","","",""
"1415.5","3","confid","","","html-slider-response","1729","1264656","0.0-4.0-10.193-0.193","","","","Rate your confidence","1","74693"
