"rt","response","task","target_side","correct_response","trial_type","trial_index","time_elapsed","internal_node_id","correct","trial_number","n_dots","stimulus","slider_start","participant"
"493","e","choice","left","e","practice","10","7511039","0.0-4.0-8.0","true","1","4.25","","",""
"228","i","choice","right","i","practice","18","7513553","0.0-4.0-8.1","true","2","4.25","","",""
"486","e","choice","left","e","practice","26","7516338","0.0-4.0-8.2","true","3","3.85","","",""
"89","i","choice","right","i","practice","34","7518723","0.0-4.0-8.3","true","4","3.85","","",""
"611","i","choice","right","i","practice","42","7521627","0.0-4.0-8.4","true","5","3.45","","",""
"329","i","choice","left","e","practice","50","7524241","0.0-4.0-8.5","false","6","3.45","","",""
"156","e","choice","left","e","practice","58","7526693","0.0-4.0-8.6","true","7","3.6500000000000004","","",""
"33","i","choice","right","i","practice","66","7529021","0.0-4.0-8.7","true","8","3.6500000000000004","","",""
"165","e","choice","left","e","practice","74","7531473","0.0-4.0-8.8","true","9","3.45","","",""
"200","i","choice","right","i","practice","82","7533965","0.0-4.0-8.9","true","10","3.45","","",""
"533","e","choice","left","e","practice","90","7536790","0.0-4.0-8.10","true","11","3.25","","",""
"40","i","choice","right","i","practice","98","7539122","0.0-4.0-8.11","true","12","3.25","","",""
"457","i","choice","right","i","practice","106","7541867","0.0-4.0-8.12","true","13","3.15","","",""
"2","i","choice","left","e","practice","114","7544159","0.0-4.0-8.13","false","14","3.15","","",""
"248.00000000093132","e","choice","left","e","practice","122","7546704","0.0-4.0-8.14","true","15","3.25","","",""
"139","i","choice","right","i","practice","130","7549138","0.0-4.0-8.15","true","16","3.25","","",""
"120.99999999906868","e","choice","left","e","practice","138","7551556","0.0-4.0-8.16","true","17","3.15","","",""
"330","i","choice","right","i","practice","146","7554178","0.0-4.0-8.17","true","18","3.15","","",""
"321.9999999990687","e","choice","right","i","practice","154","7556797","0.0-4.0-8.18","false","19","3.05","","",""
"340","e","choice","left","e","practice","162","7559430","0.0-4.0-8.19","true","20","3.15","","",""
"490.0000000009313","i","choice","right","i","practice","170","7562212","0.0-4.0-8.20","true","21","3.15","","",""
"465","e","choice","left","e","practice","178","7564971","0.0-4.0-8.21","true","22","3.05","","",""
"85","e","choice","left","e","practice","186","7567353","0.0-4.0-8.22","true","23","3.05","","",""
"441","e","choice","right","i","practice","194","7570090","0.0-4.0-8.23","false","24","2.9499999999999997","","",""
"105","i","choice","left","e","practice","202","7572494","0.0-4.0-8.24","false","25","3.05","","",""
"517","i","choice","right","i","practice","210","7575304","0.0-4.0-8.25","true","26","3.15","","",""
"15.999999999068677","e","choice","right","i","experimental","221","7583593","0.0-4.0-8.26","false","27","3.15","","",""
"3342","2","confid","","","html-slider-response","223","7587440","0.0-4.0-10.26-0.26","","","","Rate your confidence","1",""
"366","e","choice","left","e","experimental","230","7589598","0.0-4.0-8.27","true","28","3.25","","",""
"2385.0000000009313","3","confid","","","html-slider-response","232","7592492","0.0-4.0-10.27-0.27","","","","Rate your confidence","1",""
"340","i","choice","right","i","experimental","239","7594624","0.0-4.0-8.28","true","29","3.25","","",""
"2009","3","confid","","","html-slider-response","241","7597139","0.0-4.0-10.28-0.28","","","","Rate your confidence","1",""
"290","e","choice","left","e","experimental","248","7599217","0.0-4.0-8.29","true","30","3.15","","",""
"2211","2","confid","","","html-slider-response","250","7601936","0.0-4.0-10.29-0.29","","","","Rate your confidence","1",""
"43","i","choice","right","i","experimental","257","7603774","0.0-4.0-8.30","true","31","3.15","","",""
"2161","4","confid","","","html-slider-response","259","7606442","0.0-4.0-10.30-0.30","","","","Rate your confidence","1",""
"607.0000000009313","e","choice","left","e","experimental","266","7608835","0.0-4.0-8.31","true","32","3.05","","",""
"1507.0000000009313","2","confid","","","html-slider-response","268","7610848","0.0-4.0-10.31-0.31","","","","Rate your confidence","1",""
"383","i","choice","left","e","experimental","275","7613022","0.0-4.0-8.32","false","33","3.05","","",""
"3055.0000000009313","2","confid","","","html-slider-response","277","7616585","0.0-4.0-10.32-0.32","","","","Rate your confidence","1",""
"303.9999999990687","i","choice","right","i","experimental","284","7618678","0.0-4.0-8.33","true","34","3.15","","",""
"1416","4","confid","","","html-slider-response","286","7620600","0.0-4.0-10.33-0.33","","","","Rate your confidence","1",""
"409","e","choice","right","i","experimental","293","7622798","0.0-4.0-8.34","false","35","3.15","","",""
"1528","2","confid","","","html-slider-response","295","7624831","0.0-4.0-10.34-0.34","","","","Rate your confidence","1",""
"506","i","choice","left","e","experimental","302","7627130","0.0-4.0-8.35","false","36","3.25","","",""
"3212","2","confid","","","html-slider-response","304","7630847","0.0-4.0-10.35-0.35","","","","Rate your confidence","1",""
"214","e","choice","right","i","experimental","311","7632851","0.0-4.0-8.36","false","37","3.35","","",""
"1898","2","confid","","","html-slider-response","313","7635260","0.0-4.0-10.36-0.36","","","","Rate your confidence","1",""
"897","i","choice","left","e","experimental","320","7637948","0.0-4.0-8.37","false","38","3.45","","",""
"2019","2","confid","","","html-slider-response","322","7640471","0.0-4.0-10.37-0.37","","","","Rate your confidence","1",""
"355","e","choice","left","e","experimental","329","7642619","0.0-4.0-8.38","true","39","3.5500000000000003","","",""
"1453","2","confid","","","html-slider-response","331","7644577","0.0-4.0-10.38-0.38","","","","Rate your confidence","1",""
"362.0000000009313","i","choice","right","i","experimental","338","7646731","0.0-4.0-8.39","true","40","3.5500000000000003","","",""
"1658","2","confid","","","html-slider-response","340","7648894","0.0-4.0-10.39-0.39","","","","Rate your confidence","1",""
"842","e","choice","right","i","experimental","347","7651527","0.0-4.0-8.40","false","41","3.45","","",""
"5321","3","confid","","","html-slider-response","349","7657353","0.0-4.0-10.40-0.40","","","","Rate your confidence","1",""
"181","e","choice","left","e","experimental","356","7659328","0.0-4.0-8.41","true","42","3.5500000000000003","","",""
"2757.9999999990687","2","confid","","","html-slider-response","358","7662591","0.0-4.0-10.41-0.41","","","","Rate your confidence","1",""
"351","e","choice","left","e","experimental","365","7664735","0.0-4.0-8.42","true","43","3.5500000000000003","","",""
"2990","2","confid","","","html-slider-response","367","7668231","0.0-4.0-10.42-0.42","","","","Rate your confidence","1",""
"593","i","choice","right","i","experimental","374","7670611","0.0-4.0-8.43","true","44","3.45","","",""
"2203","2","confid","","","html-slider-response","376","7673322","0.0-4.0-10.43-0.43","","","","Rate your confidence","1",""
"441","e","choice","right","i","experimental","383","7675552","0.0-4.0-8.44","false","45","3.45","","",""
"4424","2","confid","","","html-slider-response","385","7680482","0.0-4.0-10.44-0.44","","","","Rate your confidence","1",""
"33","e","choice","left","e","experimental","392","7682309","0.0-4.0-8.45","true","46","3.5500000000000003","","",""
"3326","5","confid","","","html-slider-response","394","7686140","0.0-4.0-10.45-0.45","","","","Rate your confidence","1",""
"523","e","choice","left","e","experimental","401","7688451","0.0-4.0-8.46","true","47","3.5500000000000003","","",""
"152399.99999999907","6","confid","","","html-slider-response","403","7841352","0.0-4.0-10.46-0.46","","","","Rate your confidence","1",""
"623","i","choice","right","i","experimental","410","7843772","0.0-4.0-8.47","true","48","3.45","","",""
"3100","5","confid","","","html-slider-response","412","7847377","0.0-4.0-10.47-0.47","","","","Rate your confidence","1",""
"171.99999999906868","e","choice","left","e","experimental","419","7849338","0.0-4.0-8.48","true","49","3.45","","",""
"1744","4","confid","","","html-slider-response","421","7851586","0.0-4.0-10.48-0.48","","","","Rate your confidence","1",""
"357","i","choice","right","i","experimental","428","7853729","0.0-4.0-8.49","true","50","3.35","","",""
"1832","3","confid","","","html-slider-response","430","7856065","0.0-4.0-10.49-0.49","","","","Rate your confidence","1",""
"14.000000000931323","i","choice","right","i","experimental","437","7857866","0.0-4.0-8.50","true","51","3.35","","",""
"1776","5","confid","","","html-slider-response","439","7860146","0.0-4.0-10.50-0.50","","","","Rate your confidence","1",""
"7.000000000931323","e","choice","left","e","experimental","446","7861933","0.0-4.0-8.51","true","52","3.25","","",""
"1881","3","confid","","","html-slider-response","448","7864319","0.0-4.0-10.51-0.51","","","","Rate your confidence","1",""
"665","e","choice","left","e","experimental","455","7866769","0.0-4.0-8.52","true","53","3.25","","",""
"3066","5","confid","","","html-slider-response","457","7870339","0.0-4.0-10.52-0.52","","","","Rate your confidence","1",""
"447","e","choice","right","i","experimental","464","7872570","0.0-4.0-8.53","false","54","3.15","","",""
"1553","5","confid","","","html-slider-response","466","7874626","0.0-4.0-10.53-0.53","","","","Rate your confidence","1",""
"578","e","choice","right","i","experimental","473","7876996","0.0-4.0-8.54","false","55","3.25","","",""
"2201","3","confid","","","html-slider-response","475","7879700","0.0-4.0-10.54-0.54","","","","Rate your confidence","1",""
"274","e","choice","left","e","experimental","482","7881752","0.0-4.0-8.55","true","56","3.35","","",""
"2363","3","confid","","","html-slider-response","484","7884618","0.0-4.0-10.55-0.55","","","","Rate your confidence","1",""
"690.9999999990687","e","choice","left","e","experimental","491","7887096","0.0-4.0-8.56","true","57","3.35","","",""
"1901","2","confid","","","html-slider-response","493","7889501","0.0-4.0-10.56-0.56","","","","Rate your confidence","1",""
"845.0000000009313","i","choice","right","i","experimental","500","7892117","0.0-4.0-8.57","true","58","3.25","","",""
"8287","4","confid","","","html-slider-response","502","7900907","0.0-4.0-10.57-0.57","","","","Rate your confidence","1",""
"251","e","choice","left","e","experimental","509","7902947","0.0-4.0-8.58","true","59","3.25","","",""
"1287","3","confid","","","html-slider-response","511","7904741","0.0-4.0-10.58-0.58","","","","Rate your confidence","1",""
"250","i","choice","right","i","experimental","518","7906779","0.0-4.0-8.59","true","60","3.15","","",""
"1546","4","confid","","","html-slider-response","520","7908830","0.0-4.0-10.59-0.59","","","","Rate your confidence","1",""
"229","e","choice","right","i","experimental","527","7910839","0.0-4.0-8.60","false","61","3.15","","",""
"4939","3","confid","","","html-slider-response","529","7916281","0.0-4.0-10.60-0.60","","","","Rate your confidence","1",""
"340","e","choice","left","e","experimental","536","7918393","0.0-4.0-8.61","true","62","3.25","","",""
"4455","4","confid","","","html-slider-response","538","7923351","0.0-4.0-10.61-0.61","","","","Rate your confidence","1",""
"822.0000000009313","e","choice","right","i","experimental","545","7925939","0.0-4.0-8.62","false","63","3.25","","",""
"3711.0000000009313","3","confid","","","html-slider-response","547","7930154","0.0-4.0-10.62-0.62","","","","Rate your confidence","1",""
"185.00000000093132","e","choice","left","e","experimental","554","7932122","0.0-4.0-8.63","true","64","3.35","","",""
"2284","4","confid","","","html-slider-response","556","7934914","0.0-4.0-10.63-0.63","","","","Rate your confidence","1",""
"0","e","choice","left","e","experimental","563","7936701","0.0-4.0-8.64","true","65","3.35","","",""
"1506.9999999990687","4","confid","","","html-slider-response","565","7938715","0.0-4.0-10.64-0.64","","","","Rate your confidence","1",""
"303.9999999990687","i","choice","right","i","experimental","572","7940810","0.0-4.0-8.65","true","66","3.25","","",""
"1859.9999999990687","4","confid","","","html-slider-response","574","7943173","0.0-4.0-10.65-0.65","","","","Rate your confidence","1",""
"213","e","choice","left","e","experimental","581","7945168","0.0-4.0-8.66","true","67","3.25","","",""
"1509","4","confid","","","html-slider-response","583","7947181","0.0-4.0-10.66-0.66","","","","Rate your confidence","1",""
"349","e","choice","right","i","experimental","590","7949322","0.0-4.0-8.67","false","68","3.15","","",""
"1977","4","confid","","","html-slider-response","592","7951805","0.0-4.0-10.67-0.67","","","","Rate your confidence","1",""
"151","i","choice","right","i","experimental","600","8107495","0.0-4.0-8.68","true","69","3.25","","",""
"2010","3","confid","","","html-slider-response","602","8110012","0.0-4.0-10.68-0.68","","","","Rate your confidence","1",""
"58","e","choice","left","e","experimental","609","8111868","0.0-4.0-8.69","true","70","3.25","","",""
"1530","3","confid","","","html-slider-response","611","8113902","0.0-4.0-10.69-0.69","","","","Rate your confidence","1",""
"355","i","choice","left","e","experimental","618","8116043","0.0-4.0-8.70","false","71","3.15","","",""
"1675.0000000009313","2","confid","","","html-slider-response","620","8118222","0.0-4.0-10.70-0.70","","","","Rate your confidence","1",""
"1336.9999999990687","i","choice","right","i","experimental","627","8121349","0.0-4.0-8.71","true","72","3.25","","",""
"1432","2","confid","","","html-slider-response","629","8123285","0.0-4.0-10.71-0.71","","","","Rate your confidence","1",""
"1715","i","choice","left","e","experimental","636","8126788","0.0-4.0-8.72","false","73","3.25","","",""
"2114","2","confid","","","html-slider-response","638","8129407","0.0-4.0-10.72-0.72","","","","Rate your confidence","1",""
"459","i","choice","right","i","experimental","645","8131661","0.0-4.0-8.73","true","74","3.35","","",""
"1583","2","confid","","","html-slider-response","647","8133750","0.0-4.0-10.73-0.73","","","","Rate your confidence","1",""
"2294","i","choice","right","i","experimental","654","8137831","0.0-4.0-8.74","true","75","3.35","","",""
"1865","2","confid","","","html-slider-response","656","8140201","0.0-4.0-10.74-0.74","","","","Rate your confidence","1",""
"376","e","choice","left","e","experimental","663","8142370","0.0-4.0-8.75","true","76","3.25","","",""
"1642.0000000009313","3","confid","","","html-slider-response","665","8144517","0.0-4.0-10.75-0.75","","","","Rate your confidence","1",""
"12","e","choice","left","e","experimental","672","8146320","0.0-4.0-8.76","true","77","3.25","","",""
"1523.0000000009313","5","confid","","","html-slider-response","674","8148346","0.0-4.0-10.76-0.76","","","","Rate your confidence","1",""
"348.9999999990687","i","choice","right","i","experimental","681","8150481","0.0-4.0-8.77","true","78","3.15","","",""
"2668","3","confid","","","html-slider-response","683","8153655","0.0-4.0-10.77-0.77","","","","Rate your confidence","1",""
"261","i","choice","right","i","experimental","690","8155708","0.0-4.0-8.78","true","79","3.15","","",""
"2570","3","confid","","","html-slider-response","692","8158784","0.0-4.0-10.78-0.78","","","","Rate your confidence","1",""
"280","e","choice","left","e","experimental","699","8160861","0.0-4.0-8.79","true","80","3.05","","",""
"2730","3","confid","","","html-slider-response","701","8164094","0.0-4.0-10.79-0.79","","","","Rate your confidence","1",""
"1939","i","choice","right","i","experimental","708","8167820","0.0-4.0-8.80","true","81","3.05","","",""
"3665","2","confid","","","html-slider-response","710","8171991","0.0-4.0-10.80-0.80","","","","Rate your confidence","1",""
"291","e","choice","left","e","experimental","717","8174071","0.0-4.0-8.81","true","82","2.9499999999999997","","",""
"1609","5","confid","","","html-slider-response","719","8176184","0.0-4.0-10.81-0.81","","","","Rate your confidence","1",""
"1383.0000000009313","i","choice","left","e","experimental","726","8179354","0.0-4.0-8.82","false","83","2.9499999999999997","","",""
"1530","2","confid","","","html-slider-response","728","8181388","0.0-4.0-10.82-0.82","","","","Rate your confidence","1",""
"760","i","choice","right","i","experimental","735","8183938","0.0-4.0-8.83","true","84","3.05","","",""
"1740","5","confid","","","html-slider-response","737","8186183","0.0-4.0-10.83-0.83","","","","Rate your confidence","1",""
"281.9999999990687","e","choice","left","e","experimental","744","8188251","0.0-4.0-8.84","true","85","3.05","","",""
"4219","5","confid","","","html-slider-response","746","8192974","0.0-4.0-10.84-0.84","","","","Rate your confidence","1",""
"494.0000000009313","i","choice","right","i","experimental","753","8195259","0.0-4.0-8.85","true","86","2.9499999999999997","","",""
"2790","3","confid","","","html-slider-response","755","8198554","0.0-4.0-10.85-0.85","","","","Rate your confidence","1",""
"210","e","choice","left","e","experimental","762","8200555","0.0-4.0-8.86","true","87","2.9499999999999997","","",""
"1724","4","confid","","","html-slider-response","764","8202783","0.0-4.0-10.86-0.86","","","","Rate your confidence","1",""
"184","i","choice","right","i","experimental","771","8204752","0.0-4.0-8.87","true","88","2.8499999999999996","","",""
"2630","3","confid","","","html-slider-response","773","8207887","0.0-4.0-10.87-0.87","","","","Rate your confidence","1",""
"0","i","choice","right","i","experimental","780","8209674","0.0-4.0-8.88","true","89","2.8499999999999996","","",""
"1837.0000000009313","4","confid","","","html-slider-response","782","8212018","0.0-4.0-10.88-0.88","","","","Rate your confidence","1",""
"297","e","choice","left","e","experimental","789","8214104","0.0-4.0-8.89","true","90","2.7499999999999996","","",""
"1772","4","confid","","","html-slider-response","791","8216385","0.0-4.0-10.89-0.89","","","","Rate your confidence","1",""
"155","e","choice","left","e","experimental","798","8218329","0.0-4.0-8.90","true","91","2.7499999999999996","","",""
"1995","5","confid","","","html-slider-response","800","8220829","0.0-4.0-10.90-0.90","","","","Rate your confidence","1",""
"160.00000000093132","i","choice","right","i","experimental","807","8222776","0.0-4.0-8.91","true","92","2.6499999999999995","","",""
"2475","2","confid","","","html-slider-response","809","8225757","0.0-4.0-10.91-0.91","","","","Rate your confidence","1",""
"426.9999999990687","e","choice","right","i","experimental","816","8227971","0.0-4.0-8.92","false","93","2.6499999999999995","","",""
"1464","3","confid","","","html-slider-response","818","8229941","0.0-4.0-10.92-0.92","","","","Rate your confidence","1",""
"330","e","choice","left","e","experimental","825","8232060","0.0-4.0-8.93","true","94","2.7499999999999996","","",""
"1859","3","confid","","","html-slider-response","827","8234423","0.0-4.0-10.93-0.93","","","","Rate your confidence","1",""
"385","e","choice","right","i","experimental","834","8236604","0.0-4.0-8.94","false","95","2.7499999999999996","","",""
"1734","3","confid","","","html-slider-response","836","8238844","0.0-4.0-10.94-0.94","","","","Rate your confidence","1",""
"160","e","choice","left","e","experimental","843","8240794","0.0-4.0-8.95","true","96","2.8499999999999996","","",""
"2228","3","confid","","","html-slider-response","845","8243530","0.0-4.0-10.95-0.95","","","","Rate your confidence","1",""
"401.9999999990687","i","choice","right","i","experimental","852","8245722","0.0-4.0-8.96","true","97","2.8499999999999996","","",""
"4723.999999999069","2","confid","","","html-slider-response","854","8250950","0.0-4.0-10.96-0.96","","","","Rate your confidence","1",""
"1286","i","choice","left","e","experimental","861","8254033","0.0-4.0-8.97","false","98","2.7499999999999996","","",""
"1524","1","confid","","","html-slider-response","863","8256063","0.0-4.0-10.97-0.97","","","","Rate your confidence","1",""
"466","e","choice","right","i","experimental","870","8256222","0.0-4.0-8.98","false","99","2.8499999999999996","","",""
"1590","2","confid","","","html-slider-response","872","8258316","0.0-4.0-10.98-0.98","","","","Rate your confidence","1",""
"284","e","choice","left","e","experimental","879","8260390","0.0-4.0-8.99","true","100","2.9499999999999997","","",""
"1749","4","confid","","","html-slider-response","881","8262643","0.0-4.0-10.99-0.99","","","","Rate your confidence","1",""
"1083.0000000009313","e","choice","right","i","experimental","888","8265513","0.0-4.0-8.100","false","101","2.9499999999999997","","",""
"4637","2","confid","","","html-slider-response","890","8270655","0.0-4.0-10.100-0.100","","","","Rate your confidence","1",""
"12.000000000931323","e","choice","left","e","experimental","897","8272455","0.0-4.0-8.101","true","102","3.05","","",""
"2249","5","confid","","","html-slider-response","899","8275208","0.0-4.0-10.101-0.101","","","","Rate your confidence","1",""
"116","e","choice","right","i","experimental","906","8277098","0.0-4.0-8.102","false","103","3.05","","",""
"1517","4","confid","","","html-slider-response","908","8279123","0.0-4.0-10.102-0.102","","","","Rate your confidence","1",""
"430.9999999990687","e","choice","left","e","experimental","915","8281346","0.0-4.0-8.103","true","104","3.15","","",""
"2014","2","confid","","","html-slider-response","917","8283864","0.0-4.0-10.103-0.103","","","","Rate your confidence","1",""
"293","e","choice","left","e","experimental","924","8285947","0.0-4.0-8.104","true","105","3.15","","",""
"1930","2","confid","","","html-slider-response","926","8288381","0.0-4.0-10.104-0.104","","","","Rate your confidence","1",""
"170","e","choice","right","i","experimental","933","8290340","0.0-4.0-8.105","false","106","3.05","","",""
"1804","2","confid","","","html-slider-response","935","8292651","0.0-4.0-10.105-0.105","","","","Rate your confidence","1",""
"1237","e","choice","right","i","experimental","942","8295671","0.0-4.0-8.106","false","107","3.15","","",""
"2121","4","confid","","","html-slider-response","944","8298296","0.0-4.0-10.106-0.106","","","","Rate your confidence","1",""
"369","e","choice","left","e","experimental","951","8300461","0.0-4.0-8.107","true","108","3.25","","",""
"3138","5","confid","","","html-slider-response","953","8304103","0.0-4.0-10.107-0.107","","","","Rate your confidence","1",""
"152","e","choice","left","e","experimental","960","8306047","0.0-4.0-8.108","true","109","3.25","","",""
"2350.0000000009313","4","confid","","","html-slider-response","962","8308905","0.0-4.0-10.108-0.108","","","","Rate your confidence","1",""
"662","i","choice","right","i","experimental","969","8311362","0.0-4.0-8.109","true","110","3.15","","",""
"3634","5","confid","","","html-slider-response","971","8315502","0.0-4.0-10.109-0.109","","","","Rate your confidence","1",""
"187","i","choice","right","i","experimental","979","8530617","0.0-4.0-8.110","true","111","3.15","","",""
"2780","5","confid","","","html-slider-response","981","8533902","0.0-4.0-10.110-0.110","","","","Rate your confidence","1",""
"278.0000000009313","e","choice","left","e","experimental","988","8535963","0.0-4.0-8.111","true","112","3.05","","",""
"2486","3","confid","","","html-slider-response","990","8538953","0.0-4.0-10.111-0.111","","","","Rate your confidence","1",""
"283","e","choice","left","e","experimental","997","8541026","0.0-4.0-8.112","true","113","3.05","","",""
"1603","3","confid","","","html-slider-response","999","8543135","0.0-4.0-10.112-0.112","","","","Rate your confidence","1",""
"785","i","choice","right","i","experimental","1006","8545707","0.0-4.0-8.113","true","114","2.9499999999999997","","",""
"1916.9999999990687","5","confid","","","html-slider-response","1008","8548130","0.0-4.0-10.113-0.113","","","","Rate your confidence","1",""
"310","i","choice","right","i","experimental","1015","8550227","0.0-4.0-8.114","true","115","2.9499999999999997","","",""
"1898.9999999990687","4","confid","","","html-slider-response","1017","8552636","0.0-4.0-10.114-0.114","","","","Rate your confidence","1",""
"271","e","choice","left","e","experimental","1024","8554701","0.0-4.0-8.115","true","116","2.8499999999999996","","",""
"1159","2","confid","","","html-slider-response","1026","8556364","0.0-4.0-10.115-0.115","","","","Rate your confidence","1",""
"315","i","choice","right","i","experimental","1033","8558466","0.0-4.0-8.116","true","117","2.8499999999999996","","",""
"1868","3","confid","","","html-slider-response","1035","8560839","0.0-4.0-10.116-0.116","","","","Rate your confidence","1",""
"14.999999999068677","e","choice","left","e","experimental","1042","8562642","0.0-4.0-8.117","true","118","2.7499999999999996","","",""
"3305","3","confid","","","html-slider-response","1044","8566452","0.0-4.0-10.117-0.117","","","","Rate your confidence","1",""
"1160","i","choice","right","i","experimental","1051","8569399","0.0-4.0-8.118","true","119","2.7499999999999996","","",""
"1757","1","confid","","","html-slider-response","1053","8571662","0.0-4.0-10.118-0.118","","","","Rate your confidence","1",""
"203","e","choice","left","e","experimental","1060","8573652","0.0-4.0-8.119","true","120","2.6499999999999995","","",""
"1315.9999999990687","4","confid","","","html-slider-response","1062","8575474","0.0-4.0-10.119-0.119","","","","Rate your confidence","1",""
"133","e","choice","left","e","experimental","1069","8577393","0.0-4.0-8.120","true","121","2.6499999999999995","","",""
"1520","4","confid","","","html-slider-response","1071","8579418","0.0-4.0-10.120-0.120","","","","Rate your confidence","1",""
"373","e","choice","right","i","experimental","1078","8581584","0.0-4.0-8.121","false","122","2.5499999999999994","","",""
"1836.0000000009313","3","confid","","","html-slider-response","1080","8583925","0.0-4.0-10.121-0.121","","","","Rate your confidence","1",""
"126.99999999906868","e","choice","left","e","experimental","1087","8585839","0.0-4.0-8.122","true","123","2.6499999999999995","","",""
"2340.0000000009313","3","confid","","","html-slider-response","1089","8588684","0.0-4.0-10.122-0.122","","","","Rate your confidence","1",""
"226","i","choice","right","i","experimental","1096","8590701","0.0-4.0-8.123","true","124","2.6499999999999995","","",""
"1890","4","confid","","","html-slider-response","1098","8593098","0.0-4.0-10.123-0.123","","","","Rate your confidence","1",""
"520","e","choice","right","i","experimental","1105","8595409","0.0-4.0-8.124","false","125","2.5499999999999994","","",""
"1414.0000000009313","3","confid","","","html-slider-response","1107","8597327","0.0-4.0-10.124-0.124","","","","Rate your confidence","1",""
"143","e","choice","left","e","experimental","1114","8599259","0.0-4.0-8.125","true","126","2.6499999999999995","","",""
"1932","4","confid","","","html-slider-response","1116","8601695","0.0-4.0-10.125-0.125","","","","Rate your confidence","1",""
"722","e","choice","left","e","experimental","1123","8604209","0.0-4.0-8.126","true","127","2.6499999999999995","","",""
"1869.0000000009313","4","confid","","","html-slider-response","1125","8606585","0.0-4.0-10.126-0.126","","","","Rate your confidence","1",""
"797.9999999990687","e","choice","right","i","experimental","1132","8609173","0.0-4.0-8.127","false","128","2.5499999999999994","","",""
"103188.00000000093","2","confid","","","html-slider-response","1134","8712863","0.0-4.0-10.127-0.127","","","","Rate your confidence","1",""
"1510","e","choice","right","i","experimental","1141","8716157","0.0-4.0-8.128","false","129","2.6499999999999995","","",""
"289550","1","confid","","","html-slider-response","1143","9006205","0.0-4.0-10.128-0.128","","","","Rate your confidence","1",""
"1233.9999999990687","e","choice","left","e","experimental","1150","9009229","0.0-4.0-8.129","true","130","2.7499999999999996","","",""
"2947","2","confid","","","html-slider-response","1152","9012682","0.0-4.0-10.129-0.129","","","","Rate your confidence","1",""
"247","e","choice","left","e","experimental","1159","9014720","0.0-4.0-8.130","true","131","2.7499999999999996","","",""
"1934.0000000009313","2","confid","","","html-slider-response","1161","9017159","0.0-4.0-10.130-0.130","","","","Rate your confidence","1",""
"304","i","choice","right","i","experimental","1168","9019252","0.0-4.0-8.131","true","132","2.6499999999999995","","",""
"2862","1","confid","","","html-slider-response","1170","9022618","0.0-4.0-10.131-0.131","","","","Rate your confidence","1",""
"299","e","choice","right","i","experimental","1177","9024705","0.0-4.0-8.132","false","133","2.6499999999999995","","",""
"2121.0000000009313","1","confid","","","html-slider-response","1179","9027334","0.0-4.0-10.132-0.132","","","","Rate your confidence","1",""
"319","e","choice","left","e","experimental","1186","9029442","0.0-4.0-8.133","true","134","2.7499999999999996","","",""
"1501","5","confid","","","html-slider-response","1188","9031447","0.0-4.0-10.133-0.133","","","","Rate your confidence","1",""
"684","i","choice","right","i","experimental","1195","9033922","0.0-4.0-8.134","true","135","2.7499999999999996","","",""
"2103","3","confid","","","html-slider-response","1197","9036532","0.0-4.0-10.134-0.134","","","","Rate your confidence","1",""
"97","e","choice","left","e","experimental","1204","9038424","0.0-4.0-8.135","true","136","2.6499999999999995","","",""
"1959","5","confid","","","html-slider-response","1206","9040888","0.0-4.0-10.135-0.135","","","","Rate your confidence","1",""
"573","e","choice","right","i","experimental","1213","9043248","0.0-4.0-8.136","false","137","2.6499999999999995","","",""
"1619.9999999990687","4","confid","","","html-slider-response","1215","9045372","0.0-4.0-10.136-0.136","","","","Rate your confidence","1",""
"235.00000000093132","e","choice","left","e","experimental","1222","9047396","0.0-4.0-8.137","true","138","2.7499999999999996","","",""
"1447.9999999990687","5","confid","","","html-slider-response","1224","9049348","0.0-4.0-10.137-0.137","","","","Rate your confidence","1",""
"340","i","choice","right","i","experimental","1231","9051479","0.0-4.0-8.138","true","139","2.7499999999999996","","",""
"2600.0000000009313","3","confid","","","html-slider-response","1233","9054582","0.0-4.0-10.138-0.138","","","","Rate your confidence","1",""
"131.99999999906868","e","choice","left","e","experimental","1240","9056509","0.0-4.0-8.139","true","140","2.6499999999999995","","",""
"3123.9999999990687","6","confid","","","html-slider-response","1242","9060139","0.0-4.0-10.139-0.139","","","","Rate your confidence","1",""
"266","e","choice","right","i","experimental","1249","9062191","0.0-4.0-8.140","false","141","2.6499999999999995","","",""
"4580","4","confid","","","html-slider-response","1251","9067279","0.0-4.0-10.140-0.140","","","","Rate your confidence","1",""
"138.99999999906868","e","choice","left","e","experimental","1258","9069216","0.0-4.0-8.141","true","142","2.7499999999999996","","",""
"1887","5","confid","","","html-slider-response","1260","9071609","0.0-4.0-10.141-0.141","","","","Rate your confidence","1",""
"311","e","choice","left","e","experimental","1267","9073709","0.0-4.0-8.142","true","143","2.7499999999999996","","",""
"1947","5","confid","","","html-slider-response","1269","9076161","0.0-4.0-10.142-0.142","","","","Rate your confidence","1",""
"224.99999999906868","e","choice","right","i","experimental","1276","9078181","0.0-4.0-8.143","false","144","2.6499999999999995","","",""
"1630","5","confid","","","html-slider-response","1278","9080315","0.0-4.0-10.143-0.143","","","","Rate your confidence","1",""
"201","e","choice","left","e","experimental","1285","9082301","0.0-4.0-8.144","true","145","2.7499999999999996","","",""
"2716","1","confid","","","html-slider-response","1287","9085526","0.0-4.0-10.144-0.144","","","","Rate your confidence","1",""
"193.00000000093132","e","choice","right","i","experimental","1294","9087514","0.0-4.0-8.145","false","146","2.7499999999999996","","",""
"1639.0000000009313","4","confid","","","html-slider-response","1296","9089657","0.0-4.0-10.145-0.145","","","","Rate your confidence","1",""
"234.99999999906868","e","choice","right","i","experimental","1303","9091691","0.0-4.0-8.146","false","147","2.8499999999999996","","",""
"1568.0000000009313","6","confid","","","html-slider-response","1305","9093764","0.0-4.0-10.146-0.146","","","","Rate your confidence","1",""
"161","e","choice","left","e","experimental","1312","9095711","0.0-4.0-8.147","true","148","2.9499999999999997","","",""
"2171","5","confid","","","html-slider-response","1314","9098387","0.0-4.0-10.147-0.147","","","","Rate your confidence","1",""
"777","i","choice","right","i","experimental","1321","9100958","0.0-4.0-8.148","true","149","2.9499999999999997","","",""
"1647","5","confid","","","html-slider-response","1323","9103110","0.0-4.0-10.148-0.148","","","","Rate your confidence","1",""
"434.0000000009313","e","choice","left","e","experimental","1330","9105335","0.0-4.0-8.149","true","150","2.8499999999999996","","",""
"2110","2","confid","","","html-slider-response","1332","9107950","0.0-4.0-10.149-0.149","","","","Rate your confidence","1",""
"163","i","choice","left","e","experimental","1339","9109905","0.0-4.0-8.150","false","151","2.8499999999999996","","",""
"2100","5","confid","","","html-slider-response","1341","9112512","0.0-4.0-10.150-0.150","","","","Rate your confidence","1",""
"778","i","choice","right","i","experimental","1348","9115088","0.0-4.0-8.151","true","152","2.9499999999999997","","",""
"2223","4","confid","","","html-slider-response","1350","9117816","0.0-4.0-10.151-0.151","","","","Rate your confidence","1",""
"137","e","choice","left","e","experimental","1358","9532563","0.0-4.0-8.152","true","153","2.9499999999999997","","",""
"1683.9999999990687","3","confid","","","html-slider-response","1360","9534751","0.0-4.0-10.152-0.152","","","","Rate your confidence","1",""
"324","i","choice","right","i","experimental","1367","9536862","0.0-4.0-8.153","true","154","2.8499999999999996","","",""
"1371","2","confid","","","html-slider-response","1369","9538737","0.0-4.0-10.153-0.153","","","","Rate your confidence","1",""
"195","e","choice","right","i","experimental","1376","9540725","0.0-4.0-8.154","false","155","2.8499999999999996","","",""
"1413","4","confid","","","html-slider-response","1378","9542647","0.0-4.0-10.154-0.154","","","","Rate your confidence","1",""
"253.00000000093132","e","choice","left","e","experimental","1385","9544688","0.0-4.0-8.155","true","156","2.9499999999999997","","",""
"1540","2","confid","","","html-slider-response","1387","9546733","0.0-4.0-10.155-0.155","","","","Rate your confidence","1",""
"258","e","choice","right","i","experimental","1394","9548782","0.0-4.0-8.156","false","157","2.9499999999999997","","",""
"2060","2","confid","","","html-slider-response","1396","9551346","0.0-4.0-10.156-0.156","","","","Rate your confidence","1",""
"1521.9999999990687","e","choice","left","e","experimental","1403","9554656","0.0-4.0-8.157","true","158","3.05","","",""
"3243","5","confid","","","html-slider-response","1405","9558404","0.0-4.0-10.157-0.157","","","","Rate your confidence","1",""
"321","e","choice","right","i","experimental","1412","9560509","0.0-4.0-8.158","false","159","3.05","","",""
"3032","2","confid","","","html-slider-response","1414","9564046","0.0-4.0-10.158-0.158","","","","Rate your confidence","1",""
"249","e","choice","left","e","experimental","1421","9566084","0.0-4.0-8.159","true","160","3.15","","",""
"2213","3","confid","","","html-slider-response","1423","9568801","0.0-4.0-10.159-0.159","","","","Rate your confidence","1",""
"87","e","choice","left","e","experimental","1430","9570678","0.0-4.0-8.160","true","161","3.15","","",""
"1339","4","confid","","","html-slider-response","1432","9572522","0.0-4.0-10.160-0.160","","","","Rate your confidence","1",""
"301","i","choice","right","i","experimental","1439","9574611","0.0-4.0-8.161","true","162","3.05","","",""
"3176","2","confid","","","html-slider-response","1441","9578291","0.0-4.0-10.161-0.161","","","","Rate your confidence","1",""
"891","i","choice","right","i","experimental","1448","9580978","0.0-4.0-8.162","true","163","3.05","","",""
"1887.0000000009313","1","confid","","","html-slider-response","1450","9583368","0.0-4.0-10.162-0.162","","","","Rate your confidence","1",""
"346","e","choice","left","e","experimental","1457","9585511","0.0-4.0-8.163","true","164","2.9499999999999997","","",""
"2259","3","confid","","","html-slider-response","1459","9588273","0.0-4.0-10.163-0.163","","","","Rate your confidence","1",""
"176.00000000093132","e","choice","left","e","experimental","1466","9590239","0.0-4.0-8.164","true","165","2.9499999999999997","","",""
"1788.9999999990687","3","confid","","","html-slider-response","1468","9592532","0.0-4.0-10.164-0.164","","","","Rate your confidence","1",""
"1966","e","choice","right","i","experimental","1475","9596286","0.0-4.0-8.165","false","166","2.8499999999999996","","",""
"1317.9999999990687","1","confid","","","html-slider-response","1477","9598110","0.0-4.0-10.165-0.165","","","","Rate your confidence","1",""
"0","e","choice","left","e","experimental","1484","9599904","0.0-4.0-8.166","true","167","2.9499999999999997","","",""
"3779.9999999990687","4","confid","","","html-slider-response","1486","9604188","0.0-4.0-10.166-0.166","","","","Rate your confidence","1",""
"232","e","choice","right","i","experimental","1493","9606212","0.0-4.0-8.167","false","168","2.9499999999999997","","",""
"1647","3","confid","","","html-slider-response","1495","9608363","0.0-4.0-10.167-0.167","","","","Rate your confidence","1",""
"94","e","choice","left","e","experimental","1502","9610253","0.0-4.0-8.168","true","169","3.05","","",""
"1390.0000000009313","4","confid","","","html-slider-response","1504","9612148","0.0-4.0-10.168-0.168","","","","Rate your confidence","1",""
"611","i","choice","right","i","experimental","1511","9614547","0.0-4.0-8.169","true","170","3.05","","",""
"2719","2","confid","","","html-slider-response","1513","9617774","0.0-4.0-10.169-0.169","","","","Rate your confidence","1",""
"541","i","choice","right","i","experimental","1520","9620101","0.0-4.0-8.170","true","171","2.9499999999999997","","",""
"1977","2","confid","","","html-slider-response","1522","9622583","0.0-4.0-10.170-0.170","","","","Rate your confidence","1",""
"226","e","choice","left","e","experimental","1529","9624605","0.0-4.0-8.171","true","172","2.9499999999999997","","",""
"4206","3","confid","","","html-slider-response","1531","9629315","0.0-4.0-10.171-0.171","","","","Rate your confidence","1",""
"465.9999999990687","e","choice","right","i","experimental","1538","9631564","0.0-4.0-8.172","false","173","2.8499999999999996","","",""
"2541","1","confid","","","html-slider-response","1540","9634613","0.0-4.0-10.172-0.172","","","","Rate your confidence","1",""
"407","e","choice","left","e","experimental","1547","9636819","0.0-4.0-8.173","true","174","2.9499999999999997","","",""
"1763","2","confid","","","html-slider-response","1549","9639086","0.0-4.0-10.173-0.173","","","","Rate your confidence","1",""
"312","i","choice","right","i","experimental","1556","9641185","0.0-4.0-8.174","true","175","2.9499999999999997","","",""
"2663.9999999990687","3","confid","","","html-slider-response","1558","9644356","0.0-4.0-10.174-0.174","","","","Rate your confidence","1",""
"57","e","choice","left","e","experimental","1565","9646211","0.0-4.0-8.175","true","176","2.8499999999999996","","",""
"1834","3","confid","","","html-slider-response","1567","9648549","0.0-4.0-10.175-0.175","","","","Rate your confidence","1",""
"290","e","choice","left","e","experimental","1574","9650632","0.0-4.0-8.176","true","177","2.8499999999999996","","",""
"2485.9999999990687","3","confid","","","html-slider-response","1576","9653623","0.0-4.0-10.176-0.176","","","","Rate your confidence","1",""
"106","i","choice","right","i","experimental","1583","9655525","0.0-4.0-8.177","true","178","2.7499999999999996","","",""
"2276","1","confid","","","html-slider-response","1585","9658305","0.0-4.0-10.177-0.177","","","","Rate your confidence","1",""
"315.9999999990687","i","choice","right","i","experimental","1592","9660412","0.0-4.0-8.178","true","179","2.7499999999999996","","",""
"1339.0000000009313","2","confid","","","html-slider-response","1594","9662257","0.0-4.0-10.178-0.178","","","","Rate your confidence","1",""
"532","e","choice","left","e","experimental","1601","9664581","0.0-4.0-8.179","true","180","2.6499999999999995","","",""
"2482","1","confid","","","html-slider-response","1603","9667568","0.0-4.0-10.179-0.179","","","","Rate your confidence","1",""
"370","e","choice","left","e","experimental","1610","9669736","0.0-4.0-8.180","true","181","2.6499999999999995","","",""
"1145","1","confid","","","html-slider-response","1612","9671385","0.0-4.0-10.180-0.180","","","","Rate your confidence","1",""
"582","i","choice","right","i","experimental","1619","9673760","0.0-4.0-8.181","true","182","2.5499999999999994","","",""
"3496.0000000009313","2","confid","","","html-slider-response","1621","9677760","0.0-4.0-10.181-0.181","","","","Rate your confidence","1",""
"1702.9999999990687","i","choice","left","e","experimental","1628","9681254","0.0-4.0-8.182","false","183","2.5499999999999994","","",""
"3531","2","confid","","","html-slider-response","1630","9685290","0.0-4.0-10.182-0.182","","","","Rate your confidence","1",""
"837.0000000009313","i","choice","right","i","experimental","1637","9687921","0.0-4.0-8.183","true","184","2.6499999999999995","","",""
"2147.9999999990687","3","confid","","","html-slider-response","1639","9690573","0.0-4.0-10.183-0.183","","","","Rate your confidence","1",""
"583","i","choice","right","i","experimental","1646","9692946","0.0-4.0-8.184","true","185","2.6499999999999995","","",""
"2413","3","confid","","","html-slider-response","1648","9695864","0.0-4.0-10.184-0.184","","","","Rate your confidence","1",""
"907","i","choice","left","e","experimental","1655","9698554","0.0-4.0-8.185","false","186","2.5499999999999994","","",""
"1882","2","confid","","","html-slider-response","1657","9700944","0.0-4.0-10.185-0.185","","","","Rate your confidence","1",""
"562","i","choice","right","i","experimental","1664","9703302","0.0-4.0-8.186","true","187","2.6499999999999995","","",""
"2438","2","confid","","","html-slider-response","1666","9706244","0.0-4.0-10.186-0.186","","","","Rate your confidence","1",""
"485","i","choice","left","e","experimental","1673","9708513","0.0-4.0-8.187","false","188","2.6499999999999995","","",""
"2362.9999999990687","3","confid","","","html-slider-response","1675","9711381","0.0-4.0-10.187-0.187","","","","Rate your confidence","1",""
"626","i","choice","left","e","experimental","1682","9713802","0.0-4.0-8.188","false","189","2.7499999999999996","","",""
"2031","3","confid","","","html-slider-response","1684","9716341","0.0-4.0-10.188-0.188","","","","Rate your confidence","1",""
"859","i","choice","right","i","experimental","1691","9718997","0.0-4.0-8.189","true","190","2.8499999999999996","","",""
"3115","3","confid","","","html-slider-response","1693","9722616","0.0-4.0-10.189-0.189","","","","Rate your confidence","1",""
"1944","i","choice","left","e","experimental","1700","9726350","0.0-4.0-8.190","false","191","2.8499999999999996","","",""
"2207.0000000009313","1","confid","","","html-slider-response","1702","9729061","0.0-4.0-10.190-0.190","","","","Rate your confidence","1",""
"810.9999999990687","i","choice","right","i","experimental","1709","9731672","0.0-4.0-8.191","true","192","2.9499999999999997","","",""
"1880.0000000009313","4","confid","","","html-slider-response","1711","9734056","0.0-4.0-10.191-0.191","","","","Rate your confidence","1",""
"631","i","choice","right","i","experimental","1718","9736476","0.0-4.0-8.192","true","193","2.9499999999999997","","",""
"2484.9999999990687","3","confid","","","html-slider-response","1720","9739465","0.0-4.0-10.192-0.192","","","","Rate your confidence","1",""
"1141","i","choice","left","e","experimental","1727","9742392","0.0-4.0-8.193","false","194","2.8499999999999996","","",""
"1605","1","confid","","","html-slider-response","1729","9744501","0.0-4.0-10.193-0.193","","","","Rate your confidence","1","68384"
