"rt","response","task","target_side","correct_response","trial_type","trial_index","time_elapsed","internal_node_id","correct","trial_number","n_dots","stimulus","slider_start","participant"
"125.10000014305115","i","choice","right","i","practice","10","466496","0.0-4.0-8.0","true","1","4.25","","",""
"444.2000000476837","e","choice","left","e","practice","18","469214","0.0-4.0-8.1","true","2","4.25","","",""
"262.90000009536743","i","choice","right","i","practice","26","471758","0.0-4.0-8.2","true","3","3.85","","",""
"455.59999990463257","e","choice","left","e","practice","34","474496","0.0-4.0-8.3","true","4","3.85","","",""
"346.5","i","choice","right","i","practice","42","477123","0.0-4.0-8.4","true","5","3.45","","",""
"251.89999985694885","e","choice","left","e","practice","50","479658","0.0-4.0-8.5","true","6","3.45","","",""
"286.09999990463257","e","choice","left","e","practice","58","482234","0.0-4.0-8.6","true","7","3.25","","",""
"233.80000019073486","i","choice","right","i","practice","66","484748","0.0-4.0-8.7","true","8","3.25","","",""
"230.29999995231628","e","choice","left","e","practice","74","487254","0.0-4.0-8.8","true","9","3.05","","",""
"301.7000000476837","e","choice","right","i","practice","82","489834","0.0-4.0-8.9","false","10","3.05","","",""
"232.29999995231628","e","choice","right","i","practice","90","492346","0.0-4.0-8.10","false","11","3.25","","",""
"581.0999999046326","i","choice","left","e","practice","98","495205","0.0-4.0-8.11","false","12","3.35","","",""
"266.10000014305115","e","choice","right","i","practice","106","497751","0.0-4.0-8.12","false","13","3.45","","",""
"246.70000004768372","e","choice","left","e","practice","114","500275","0.0-4.0-8.13","true","14","3.5500000000000003","","",""
"312","e","choice","left","e","practice","122","502869","0.0-4.0-8.14","true","15","3.5500000000000003","","",""
"386","i","choice","right","i","practice","130","505533","0.0-4.0-8.15","true","16","3.45","","",""
"429.40000009536743","i","choice","right","i","practice","138","508239","0.0-4.0-8.16","true","17","3.45","","",""
"286","e","choice","left","e","practice","146","510803","0.0-4.0-8.17","true","18","3.35","","",""
"263.60000014305115","i","choice","right","i","practice","154","513346","0.0-4.0-8.18","true","19","3.35","","",""
"352.09999990463257","e","choice","left","e","practice","162","515987","0.0-4.0-8.19","true","20","3.25","","",""
"326","i","choice","left","e","practice","170","518594","0.0-4.0-8.20","false","21","3.25","","",""
"257.09999990463257","e","choice","right","i","practice","178","521136","0.0-4.0-8.21","false","22","3.35","","",""
"238.5","i","choice","right","i","practice","186","523653","0.0-4.0-8.22","true","23","3.45","","",""
"288.7000000476837","i","choice","left","e","practice","194","526217","0.0-4.0-8.23","false","24","3.45","","",""
"243.5","e","choice","left","e","practice","202","528743","0.0-4.0-8.24","true","25","3.5500000000000003","","",""
"122.29999995231628","i","choice","right","i","practice","210","531142","0.0-4.0-8.25","true","26","3.5500000000000003","","",""
"227.20000004768372","e","choice","left","e","experimental","221","611452","0.0-4.0-8.26","true","27","3.45","","",""
"3513.7000000476837","5","confid","","","html-slider-response","223","615469","0.0-4.0-10.26-0.26","","","","Rate your confidence","1",""
"273.2999999523163","e","choice","right","i","experimental","230","617519","0.0-4.0-8.27","false","28","3.45","","",""
"2436.9000000953674","4","confid","","","html-slider-response","232","620460","0.0-4.0-10.27-0.27","","","","Rate your confidence","1",""
"253.29999995231628","e","choice","left","e","experimental","239","622492","0.0-4.0-8.28","true","29","3.5500000000000003","","",""
"2237.2000000476837","4","confid","","","html-slider-response","241","625233","0.0-4.0-10.28-0.28","","","","Rate your confidence","1",""
"283.39999985694885","i","choice","right","i","experimental","248","627298","0.0-4.0-8.29","true","30","3.5500000000000003","","",""
"2736.199999809265","4","confid","","","html-slider-response","250","630538","0.0-4.0-10.29-0.29","","","","Rate your confidence","1",""
"283.7000000476837","i","choice","right","i","experimental","257","632599","0.0-4.0-8.30","true","31","3.45","","",""
"2583.9000000953674","4","confid","","","html-slider-response","259","635686","0.0-4.0-10.30-0.30","","","","Rate your confidence","1",""
"266.89999985694885","e","choice","left","e","experimental","266","637730","0.0-4.0-8.31","true","32","3.45","","",""
"4100.299999952316","6","confid","","","html-slider-response","268","642334","0.0-4.0-10.31-0.31","","","","Rate your confidence","1",""
"340.40000009536743","e","choice","left","e","experimental","275","644451","0.0-4.0-8.32","true","33","3.35","","",""
"2971","5","confid","","","html-slider-response","277","647926","0.0-4.0-10.32-0.32","","","","Rate your confidence","1",""
"324.90000009536743","i","choice","right","i","experimental","284","650027","0.0-4.0-8.33","true","34","3.35","","",""
"2665.600000143051","5","confid","","","html-slider-response","286","653195","0.0-4.0-10.33-0.33","","","","Rate your confidence","1",""
"259","e","choice","left","e","experimental","293","655237","0.0-4.0-8.34","true","35","3.25","","",""
"2683.5","5","confid","","","html-slider-response","295","658425","0.0-4.0-10.34-0.34","","","","Rate your confidence","1",""
"288.09999990463257","i","choice","right","i","experimental","302","660490","0.0-4.0-8.35","true","36","3.25","","",""
"2705.2000000476837","5","confid","","","html-slider-response","304","663699","0.0-4.0-10.35-0.35","","","","Rate your confidence","1",""
"331.10000014305115","e","choice","left","e","experimental","311","665808","0.0-4.0-8.36","true","37","3.15","","",""
"2242.5999999046326","5","confid","","","html-slider-response","313","668559","0.0-4.0-10.36-0.36","","","","Rate your confidence","1",""
"282.10000014305115","i","choice","right","i","experimental","320","670616","0.0-4.0-8.37","true","38","3.15","","",""
"2326.5999999046326","2","confid","","","html-slider-response","322","673446","0.0-4.0-10.37-0.37","","","","Rate your confidence","1",""
"341.2999999523163","e","choice","left","e","experimental","329","675567","0.0-4.0-8.38","true","39","3.05","","",""
"3145.9000000953674","4","confid","","","html-slider-response","331","679217","0.0-4.0-10.38-0.38","","","","Rate your confidence","1",""
"288.39999985694885","i","choice","right","i","experimental","338","681283","0.0-4.0-8.39","true","40","3.05","","",""
"2122.899999856949","3","confid","","","html-slider-response","340","683911","0.0-4.0-10.39-0.39","","","","Rate your confidence","1",""
"301.09999990463257","e","choice","left","e","experimental","347","685994","0.0-4.0-8.40","true","41","2.9499999999999997","","",""
"2112.0999999046326","3","confid","","","html-slider-response","349","688610","0.0-4.0-10.40-0.40","","","","Rate your confidence","1",""
"278.5","i","choice","right","i","experimental","356","690668","0.0-4.0-8.41","true","42","2.9499999999999997","","",""
"2269.7000000476837","4","confid","","","html-slider-response","358","693441","0.0-4.0-10.41-0.41","","","","Rate your confidence","1",""
"271","e","choice","left","e","experimental","365","695489","0.0-4.0-8.42","true","43","2.8499999999999996","","",""
"2960.100000143051","4","confid","","","html-slider-response","367","698953","0.0-4.0-10.42-0.42","","","","Rate your confidence","1",""
"372.59999990463257","i","choice","right","i","experimental","374","701111","0.0-4.0-8.43","true","44","2.8499999999999996","","",""
"2054.399999856949","4","confid","","","html-slider-response","376","703669","0.0-4.0-10.43-0.43","","","","Rate your confidence","1",""
"258.69999980926514","e","choice","left","e","experimental","383","705711","0.0-4.0-8.44","true","45","2.7499999999999996","","",""
"2506.0999999046326","3","confid","","","html-slider-response","385","708720","0.0-4.0-10.44-0.44","","","","Rate your confidence","1",""
"310.7999999523163","e","choice","right","i","experimental","392","710807","0.0-4.0-8.45","false","46","2.7499999999999996","","",""
"3542.2999999523163","4","confid","","","html-slider-response","394","714853","0.0-4.0-10.45-0.45","","","","Rate your confidence","1",""
"253","e","choice","left","e","experimental","401","716883","0.0-4.0-8.46","true","47","2.8499999999999996","","",""
"3217.5","4","confid","","","html-slider-response","403","720604","0.0-4.0-10.46-0.46","","","","Rate your confidence","1",""
"325.7999999523163","e","choice","right","i","experimental","410","722711","0.0-4.0-8.47","false","48","2.8499999999999996","","",""
"2431.0999999046326","5","confid","","","html-slider-response","412","725646","0.0-4.0-10.47-0.47","","","","Rate your confidence","1",""
"73.20000004768372","e","choice","left","e","experimental","419","727496","0.0-4.0-8.48","true","49","2.9499999999999997","","",""
"2347","5","confid","","","html-slider-response","421","730347","0.0-4.0-10.48-0.48","","","","Rate your confidence","1",""
"245.60000014305115","e","choice","right","i","experimental","428","732367","0.0-4.0-8.49","false","50","2.9499999999999997","","",""
"2334.2999999523163","5","confid","","","html-slider-response","430","735204","0.0-4.0-10.49-0.49","","","","Rate your confidence","1",""
"238.5","e","choice","left","e","experimental","437","737219","0.0-4.0-8.50","true","51","3.05","","",""
"2412.399999856949","4","confid","","","html-slider-response","439","740136","0.0-4.0-10.50-0.50","","","","Rate your confidence","1",""
"307.60000014305115","i","choice","right","i","experimental","446","742223","0.0-4.0-8.51","true","52","3.05","","",""
"2258.699999809265","4","confid","","","html-slider-response","448","744985","0.0-4.0-10.51-0.51","","","","Rate your confidence","1",""
"93","i","choice","right","i","experimental","455","746862","0.0-4.0-8.52","true","53","2.9499999999999997","","",""
"2040.9000000953674","4","confid","","","html-slider-response","457","749406","0.0-4.0-10.52-0.52","","","","Rate your confidence","1",""
"53","e","choice","left","e","experimental","464","751243","0.0-4.0-8.53","true","54","2.9499999999999997","","",""
"2582.4000000953674","5","confid","","","html-slider-response","466","754328","0.0-4.0-10.53-0.53","","","","Rate your confidence","1",""
"180.70000004768372","e","choice","left","e","experimental","473","756290","0.0-4.0-8.54","true","55","2.8499999999999996","","",""
"2961.699999809265","2","confid","","","html-slider-response","475","759755","0.0-4.0-10.54-0.54","","","","Rate your confidence","1",""
"205.59999990463257","e","choice","right","i","experimental","482","761737","0.0-4.0-8.55","false","56","2.8499999999999996","","",""
"2222.2999999523163","2","confid","","","html-slider-response","484","764464","0.0-4.0-10.55-0.55","","","","Rate your confidence","1",""
"267.7000000476837","i","choice","right","i","experimental","491","766512","0.0-4.0-8.56","true","57","2.9499999999999997","","",""
"2579.5999999046326","5","confid","","","html-slider-response","493","769595","0.0-4.0-10.56-0.56","","","","Rate your confidence","1",""
"217.90000009536743","e","choice","left","e","experimental","500","771590","0.0-4.0-8.57","true","58","2.9499999999999997","","",""
"2448.800000190735","4","confid","","","html-slider-response","502","774542","0.0-4.0-10.57-0.57","","","","Rate your confidence","1",""
"256.60000014305115","e","choice","right","i","experimental","509","776581","0.0-4.0-8.58","false","59","2.8499999999999996","","",""
"2499.5999999046326","4","confid","","","html-slider-response","511","779585","0.0-4.0-10.58-0.58","","","","Rate your confidence","1",""
"253.10000014305115","e","choice","left","e","experimental","518","781616","0.0-4.0-8.59","true","60","2.9499999999999997","","",""
"3517.899999856949","5","confid","","","html-slider-response","520","785637","0.0-4.0-10.59-0.59","","","","Rate your confidence","1",""
"308.19999980926514","e","choice","left","e","experimental","527","787726","0.0-4.0-8.60","true","61","2.9499999999999997","","",""
"2015","4","confid","","","html-slider-response","529","790245","0.0-4.0-10.60-0.60","","","","Rate your confidence","1",""
"105","e","choice","right","i","experimental","536","792128","0.0-4.0-8.61","false","62","2.8499999999999996","","",""
"2233.5","2","confid","","","html-slider-response","538","794865","0.0-4.0-10.61-0.61","","","","Rate your confidence","1",""
"314.7999999523163","e","choice","right","i","experimental","545","796958","0.0-4.0-8.62","false","63","2.9499999999999997","","",""
"2567","2","confid","","","html-slider-response","547","800032","0.0-4.0-10.62-0.62","","","","Rate your confidence","1",""
"291","e","choice","left","e","experimental","554","802101","0.0-4.0-8.63","true","64","3.05","","",""
"3259.300000190735","4","confid","","","html-slider-response","556","805878","0.0-4.0-10.63-0.63","","","","Rate your confidence","1",""
"239.29999995231628","e","choice","right","i","experimental","563","807899","0.0-4.0-8.64","false","65","3.05","","",""
"2369.5","4","confid","","","html-slider-response","565","810773","0.0-4.0-10.64-0.64","","","","Rate your confidence","1",""
"248.90000009536743","e","choice","left","e","experimental","572","812803","0.0-4.0-8.65","true","66","3.15","","",""
"3391.399999856949","5","confid","","","html-slider-response","574","816699","0.0-4.0-10.65-0.65","","","","Rate your confidence","1",""
"340.09999990463257","i","choice","right","i","experimental","581","818822","0.0-4.0-8.66","true","67","3.15","","",""
"4179.599999904633","2","confid","","","html-slider-response","583","823505","0.0-4.0-10.66-0.66","","","","Rate your confidence","1",""
"215","e","choice","left","e","experimental","590","825497","0.0-4.0-8.67","true","68","3.05","","",""
"2641.0999999046326","5","confid","","","html-slider-response","592","828640","0.0-4.0-10.67-0.67","","","","Rate your confidence","1",""
"536.3000001907349","e","choice","left","e","experimental","600","1068162","0.0-4.0-8.68","true","69","3.05","","",""
"2960.7999999523163","4","confid","","","html-slider-response","602","1071627","0.0-4.0-10.68-0.68","","","","Rate your confidence","1",""
"309.09999990463257","i","choice","right","i","experimental","609","1073712","0.0-4.0-8.69","true","70","2.9499999999999997","","",""
"2565.100000143051","5","confid","","","html-slider-response","611","1076781","0.0-4.0-10.69-0.69","","","","Rate your confidence","1",""
"361.7000000476837","i","choice","right","i","experimental","618","1078926","0.0-4.0-8.70","true","71","2.9499999999999997","","",""
"2533.4000000953674","6","confid","","","html-slider-response","620","1081964","0.0-4.0-10.70-0.70","","","","Rate your confidence","1",""
"79.5","e","choice","left","e","experimental","627","1083831","0.0-4.0-8.71","true","72","2.8499999999999996","","",""
"2462.7999999523163","5","confid","","","html-slider-response","629","1086797","0.0-4.0-10.71-0.71","","","","Rate your confidence","1",""
"250.40000009536743","e","choice","left","e","experimental","636","1088825","0.0-4.0-8.72","true","73","2.8499999999999996","","",""
"2126.100000143051","2","confid","","","html-slider-response","638","1091455","0.0-4.0-10.72-0.72","","","","Rate your confidence","1",""
"344","i","choice","right","i","experimental","645","1093579","0.0-4.0-8.73","true","74","2.7499999999999996","","",""
"2632.7000000476837","3","confid","","","html-slider-response","647","1096715","0.0-4.0-10.73-0.73","","","","Rate your confidence","1",""
"48","e","choice","right","i","experimental","654","1098548","0.0-4.0-8.74","false","75","2.7499999999999996","","",""
"2468.5999999046326","2","confid","","","html-slider-response","656","1101520","0.0-4.0-10.74-0.74","","","","Rate your confidence","1",""
"264.7999999523163","e","choice","left","e","experimental","663","1103563","0.0-4.0-8.75","true","76","2.8499999999999996","","",""
"2260.2000000476837","2","confid","","","html-slider-response","665","1106326","0.0-4.0-10.75-0.75","","","","Rate your confidence","1",""
"309.09999990463257","i","choice","right","i","experimental","672","1108411","0.0-4.0-8.76","true","77","2.8499999999999996","","",""
"2342.4000000953674","2","confid","","","html-slider-response","674","1111257","0.0-4.0-10.76-0.76","","","","Rate your confidence","1",""
"269.09999990463257","e","choice","left","e","experimental","681","1113304","0.0-4.0-8.77","true","78","2.7499999999999996","","",""
"4184.200000047684","4","confid","","","html-slider-response","683","1118003","0.0-4.0-10.77-0.77","","","","Rate your confidence","1",""
"638.8999998569489","e","choice","right","i","experimental","690","1120420","0.0-4.0-8.78","false","79","2.7499999999999996","","",""
"2301.0999999046326","2","confid","","","html-slider-response","692","1123224","0.0-4.0-10.78-0.78","","","","Rate your confidence","1",""
"271.5","e","choice","left","e","experimental","699","1125276","0.0-4.0-8.79","true","80","2.8499999999999996","","",""
"3208.7999999523163","5","confid","","","html-slider-response","701","1128989","0.0-4.0-10.79-0.79","","","","Rate your confidence","1",""
"256.5","i","choice","left","e","experimental","708","1131024","0.0-4.0-8.80","false","81","2.8499999999999996","","",""
"2446.9000000953674","5","confid","","","html-slider-response","710","1133981","0.0-4.0-10.80-0.80","","","","Rate your confidence","1",""
"284.7999999523163","e","choice","right","i","experimental","717","1136045","0.0-4.0-8.81","false","82","2.9499999999999997","","",""
"2176.7000000476837","3","confid","","","html-slider-response","719","1138726","0.0-4.0-10.81-0.81","","","","Rate your confidence","1",""
"241.09999990463257","i","choice","right","i","experimental","726","1140748","0.0-4.0-8.82","true","83","3.05","","",""
"1865.2999999523163","3","confid","","","html-slider-response","728","1143117","0.0-4.0-10.82-0.82","","","","Rate your confidence","1",""
"302.7000000476837","e","choice","left","e","experimental","735","1145197","0.0-4.0-8.83","true","84","3.05","","",""
"2177.5999999046326","4","confid","","","html-slider-response","737","1147879","0.0-4.0-10.83-0.83","","","","Rate your confidence","1",""
"259.39999985694885","e","choice","left","e","experimental","744","1149915","0.0-4.0-8.84","true","85","2.9499999999999997","","",""
"3061.4000000953674","4","confid","","","html-slider-response","746","1153480","0.0-4.0-10.84-0.84","","","","Rate your confidence","1",""
"258.19999980926514","i","choice","right","i","experimental","753","1155517","0.0-4.0-8.85","true","86","2.9499999999999997","","",""
"3524.5","4","confid","","","html-slider-response","755","1159546","0.0-4.0-10.85-0.85","","","","Rate your confidence","1",""
"246.5","e","choice","left","e","experimental","762","1161571","0.0-4.0-8.86","true","87","2.8499999999999996","","",""
"2068.4000000953674","4","confid","","","html-slider-response","764","1164150","0.0-4.0-10.86-0.86","","","","Rate your confidence","1",""
"264.80000019073486","i","choice","right","i","experimental","771","1166192","0.0-4.0-8.87","true","88","2.8499999999999996","","",""
"2021.7999999523163","4","confid","","","html-slider-response","773","1168718","0.0-4.0-10.87-0.87","","","","Rate your confidence","1",""
"276.90000009536743","e","choice","right","i","experimental","780","1170770","0.0-4.0-8.88","false","89","2.7499999999999996","","",""
"2878","3","confid","","","html-slider-response","782","1174151","0.0-4.0-10.88-0.88","","","","Rate your confidence","1",""
"280.59999990463257","i","choice","left","e","experimental","789","1176209","0.0-4.0-8.89","false","90","2.8499999999999996","","",""
"2261.199999809265","2","confid","","","html-slider-response","791","1178975","0.0-4.0-10.89-0.89","","","","Rate your confidence","1",""
"595.7999999523163","i","choice","right","i","experimental","798","1181352","0.0-4.0-8.90","true","91","2.9499999999999997","","",""
"2585","4","confid","","","html-slider-response","800","1184441","0.0-4.0-10.90-0.90","","","","Rate your confidence","1",""
"253.70000004768372","e","choice","left","e","experimental","807","1186472","0.0-4.0-8.91","true","92","2.9499999999999997","","",""
"2833.2999999523163","5","confid","","","html-slider-response","809","1189808","0.0-4.0-10.91-0.91","","","","Rate your confidence","1",""
"276","i","choice","right","i","experimental","816","1191861","0.0-4.0-8.92","true","93","2.8499999999999996","","",""
"2489.899999856949","5","confid","","","html-slider-response","818","1194855","0.0-4.0-10.92-0.92","","","","Rate your confidence","1",""
"347.7000000476837","e","choice","left","e","experimental","825","1196985","0.0-4.0-8.93","true","94","2.8499999999999996","","",""
"1991.3999998569489","3","confid","","","html-slider-response","827","1199479","0.0-4.0-10.93-0.93","","","","Rate your confidence","1",""
"318.09999990463257","i","choice","right","i","experimental","834","1201576","0.0-4.0-8.94","true","95","2.7499999999999996","","",""
"2445.7999999523163","4","confid","","","html-slider-response","836","1204526","0.0-4.0-10.94-0.94","","","","Rate your confidence","1",""
"279.90000009536743","e","choice","left","e","experimental","843","1206582","0.0-4.0-8.95","true","96","2.7499999999999996","","",""
"2562.2999999523163","3","confid","","","html-slider-response","845","1209648","0.0-4.0-10.95-0.95","","","","Rate your confidence","1",""
"298.40000009536743","e","choice","left","e","experimental","852","1211724","0.0-4.0-8.96","true","97","2.6499999999999995","","",""
"2130.0999999046326","2","confid","","","html-slider-response","854","1214358","0.0-4.0-10.96-0.96","","","","Rate your confidence","1",""
"252.39999985694885","i","choice","right","i","experimental","861","1216391","0.0-4.0-8.97","true","98","2.6499999999999995","","",""
"2535.5999999046326","4","confid","","","html-slider-response","863","1219429","0.0-4.0-10.97-0.97","","","","Rate your confidence","1",""
"270.69999980926514","i","choice","left","e","experimental","870","1221479","0.0-4.0-8.98","false","99","2.5499999999999994","","",""
"3825","5","confid","","","html-slider-response","872","1225809","0.0-4.0-10.98-0.98","","","","Rate your confidence","1",""
"297.40000009536743","i","choice","right","i","experimental","879","1227888","0.0-4.0-8.99","true","100","2.6499999999999995","","",""
"3591.399999856949","4","confid","","","html-slider-response","881","1231983","0.0-4.0-10.99-0.99","","","","Rate your confidence","1",""
"278.59999990463257","e","choice","left","e","experimental","888","1234048","0.0-4.0-8.100","true","101","2.6499999999999995","","",""
"2471.5","4","confid","","","html-slider-response","890","1237023","0.0-4.0-10.100-0.100","","","","Rate your confidence","1",""
"370.30000019073486","i","choice","right","i","experimental","897","1239177","0.0-4.0-8.101","true","102","2.5499999999999994","","",""
"1940.7999999523163","5","confid","","","html-slider-response","899","1241622","0.0-4.0-10.101-0.101","","","","Rate your confidence","1",""
"272.59999990463257","e","choice","right","i","experimental","906","1243673","0.0-4.0-8.102","false","103","2.5499999999999994","","",""
"2392.5999999046326","2","confid","","","html-slider-response","908","1246569","0.0-4.0-10.102-0.102","","","","Rate your confidence","1",""
"148.40000009536743","e","choice","left","e","experimental","915","1248497","0.0-4.0-8.103","true","104","2.6499999999999995","","",""
"11539.299999952316","3","confid","","","html-slider-response","917","1260539","0.0-4.0-10.103-0.103","","","","Rate your confidence","1",""
"313.80000019073486","e","choice","left","e","experimental","924","1262633","0.0-4.0-8.104","true","105","2.6499999999999995","","",""
"2351.699999809265","4","confid","","","html-slider-response","926","1265489","0.0-4.0-10.104-0.104","","","","Rate your confidence","1",""
"41.299999952316284","i","choice","right","i","experimental","933","1267307","0.0-4.0-8.105","true","106","2.5499999999999994","","",""
"2971.7999999523163","4","confid","","","html-slider-response","935","1270782","0.0-4.0-10.105-0.105","","","","Rate your confidence","1",""
"309.7999999523163","i","choice","right","i","experimental","942","1272874","0.0-4.0-8.106","true","107","2.5499999999999994","","",""
"3215.5","4","confid","","","html-slider-response","944","1276594","0.0-4.0-10.106-0.106","","","","Rate your confidence","1",""
"45.5","e","choice","left","e","experimental","951","1278415","0.0-4.0-8.107","true","108","2.4499999999999993","","",""
"3254","5","confid","","","html-slider-response","953","1282179","0.0-4.0-10.107-0.107","","","","Rate your confidence","1",""
"418.7999999523163","e","choice","right","i","experimental","960","1284378","0.0-4.0-8.108","false","109","2.4499999999999993","","",""
"2167.4000000953674","4","confid","","","html-slider-response","962","1287050","0.0-4.0-10.108-0.108","","","","Rate your confidence","1",""
"445.09999990463257","i","choice","left","e","experimental","969","1289263","0.0-4.0-8.109","false","110","2.5499999999999994","","",""
"2286.7000000476837","3","confid","","","html-slider-response","971","1292053","0.0-4.0-10.109-0.109","","","","Rate your confidence","1",""
"781.2999999523163","i","choice","right","i","experimental","979","1296503","0.0-4.0-8.110","true","111","2.6499999999999995","","",""
"2276.600000143051","4","confid","","","html-slider-response","981","1299283","0.0-4.0-10.110-0.110","","","","Rate your confidence","1",""
"454","e","choice","left","e","experimental","988","1301514","0.0-4.0-8.111","true","112","2.6499999999999995","","",""
"3116.600000143051","5","confid","","","html-slider-response","990","1305136","0.0-4.0-10.111-0.111","","","","Rate your confidence","1",""
"262.39999985694885","i","choice","right","i","experimental","997","1307172","0.0-4.0-8.112","true","113","2.5499999999999994","","",""
"2202.7999999523163","4","confid","","","html-slider-response","999","1309883","0.0-4.0-10.112-0.112","","","","Rate your confidence","1",""
"358","e","choice","left","e","experimental","1006","1312018","0.0-4.0-8.113","true","114","2.5499999999999994","","",""
"2918.5999999046326","4","confid","","","html-slider-response","1008","1315439","0.0-4.0-10.113-0.113","","","","Rate your confidence","1",""
"121.29999995231628","e","choice","left","e","experimental","1015","1317341","0.0-4.0-8.114","true","115","2.4499999999999993","","",""
"2016.2999999523163","5","confid","","","html-slider-response","1017","1319861","0.0-4.0-10.114-0.114","","","","Rate your confidence","1",""
"359","e","choice","right","i","experimental","1024","1321999","0.0-4.0-8.115","false","116","2.4499999999999993","","",""
"3225.4000000953674","3","confid","","","html-slider-response","1026","1325729","0.0-4.0-10.115-0.115","","","","Rate your confidence","1",""
"166.79999995231628","e","choice","right","i","experimental","1033","1327678","0.0-4.0-8.116","false","117","2.5499999999999994","","",""
"2017","4","confid","","","html-slider-response","1035","1330198","0.0-4.0-10.116-0.116","","","","Rate your confidence","1",""
"277","i","choice","left","e","experimental","1042","1332253","0.0-4.0-8.117","false","118","2.6499999999999995","","",""
"3022.7999999523163","4","confid","","","html-slider-response","1044","1335780","0.0-4.0-10.117-0.117","","","","Rate your confidence","1",""
"262.59999990463257","i","choice","right","i","experimental","1051","1337820","0.0-4.0-8.118","true","119","2.7499999999999996","","",""
"3096.5999999046326","4","confid","","","html-slider-response","1053","1341420","0.0-4.0-10.118-0.118","","","","Rate your confidence","1",""
"267.60000014305115","e","choice","left","e","experimental","1060","1343473","0.0-4.0-8.119","true","120","2.7499999999999996","","",""
"2672.7999999523163","3","confid","","","html-slider-response","1062","1346649","0.0-4.0-10.119-0.119","","","","Rate your confidence","1",""
"171.90000009536743","i","choice","right","i","experimental","1069","1348600","0.0-4.0-8.120","true","121","2.6499999999999995","","",""
"2750.2999999523163","4","confid","","","html-slider-response","1071","1351854","0.0-4.0-10.120-0.120","","","","Rate your confidence","1",""
"121.69999980926514","e","choice","left","e","experimental","1078","1353756","0.0-4.0-8.121","true","122","2.6499999999999995","","",""
"2482","5","confid","","","html-slider-response","1080","1356742","0.0-4.0-10.121-0.121","","","","Rate your confidence","1",""
"92.5","i","choice","right","i","experimental","1087","1358614","0.0-4.0-8.122","true","123","2.5499999999999994","","",""
"2928.2000000476837","6","confid","","","html-slider-response","1089","1362046","0.0-4.0-10.122-0.122","","","","Rate your confidence","1",""
"217.79999995231628","e","choice","left","e","experimental","1096","1364051","0.0-4.0-8.123","true","124","2.5499999999999994","","",""
"2220.699999809265","5","confid","","","html-slider-response","1098","1366776","0.0-4.0-10.123-0.123","","","","Rate your confidence","1",""
"313.30000019073486","i","choice","right","i","experimental","1105","1368869","0.0-4.0-8.124","true","125","2.4499999999999993","","",""
"2327.5","5","confid","","","html-slider-response","1107","1371699","0.0-4.0-10.124-0.124","","","","Rate your confidence","1",""
"277.90000009536743","e","choice","left","e","experimental","1114","1373757","0.0-4.0-8.125","true","126","2.4499999999999993","","",""
"2412","3","confid","","","html-slider-response","1116","1376672","0.0-4.0-10.125-0.125","","","","Rate your confidence","1",""
"372.2999999523163","e","choice","left","e","experimental","1123","1378822","0.0-4.0-8.126","true","127","2.349999999999999","","",""
"2692.800000190735","1","confid","","","html-slider-response","1125","1382019","0.0-4.0-10.126-0.126","","","","Rate your confidence","1",""
"300.39999985694885","i","choice","right","i","experimental","1132","1384106","0.0-4.0-8.127","true","128","2.349999999999999","","",""
"2876.199999809265","3","confid","","","html-slider-response","1134","1387486","0.0-4.0-10.127-0.127","","","","Rate your confidence","1",""
"312.89999985694885","e","choice","left","e","experimental","1141","1389578","0.0-4.0-8.128","true","129","2.249999999999999","","",""
"3416.5","4","confid","","","html-slider-response","1143","1393498","0.0-4.0-10.128-0.128","","","","Rate your confidence","1",""
"574.6000001430511","e","choice","right","i","experimental","1150","1395852","0.0-4.0-8.129","false","130","2.249999999999999","","",""
"4010.800000190735","3","confid","","","html-slider-response","1152","1400368","0.0-4.0-10.129-0.129","","","","Rate your confidence","1",""
"185.40000009536743","i","choice","right","i","experimental","1159","1402332","0.0-4.0-8.130","true","131","2.349999999999999","","",""
"5904.5","5","confid","","","html-slider-response","1161","1408740","0.0-4.0-10.130-0.130","","","","Rate your confidence","1",""
"295.40000009536743","i","choice","left","e","experimental","1168","1410820","0.0-4.0-8.131","false","132","2.349999999999999","","",""
"2323.2999999523163","4","confid","","","html-slider-response","1170","1413649","0.0-4.0-10.131-0.131","","","","Rate your confidence","1",""
"302.69999980926514","i","choice","right","i","experimental","1177","1415731","0.0-4.0-8.132","true","133","2.4499999999999993","","",""
"3107.399999856949","2","confid","","","html-slider-response","1179","1419342","0.0-4.0-10.132-0.132","","","","Rate your confidence","1",""
"97.5","e","choice","left","e","experimental","1186","1421216","0.0-4.0-8.133","true","134","2.4499999999999993","","",""
"3305.199999809265","5","confid","","","html-slider-response","1188","1425025","0.0-4.0-10.133-0.133","","","","Rate your confidence","1",""
"260.30000019073486","e","choice","left","e","experimental","1195","1427065","0.0-4.0-8.134","true","135","2.349999999999999","","",""
"3378.9000000953674","4","confid","","","html-slider-response","1197","1430948","0.0-4.0-10.134-0.134","","","","Rate your confidence","1",""
"256.39999985694885","e","choice","right","i","experimental","1204","1432983","0.0-4.0-8.135","false","136","2.349999999999999","","",""
"2171.899999856949","3","confid","","","html-slider-response","1206","1435658","0.0-4.0-10.135-0.135","","","","Rate your confidence","1",""
"286.7000000476837","i","choice","right","i","experimental","1213","1437730","0.0-4.0-8.136","true","137","2.4499999999999993","","",""
"2604.899999856949","4","confid","","","html-slider-response","1215","1440839","0.0-4.0-10.136-0.136","","","","Rate your confidence","1",""
"251.60000014305115","e","choice","left","e","experimental","1222","1442873","0.0-4.0-8.137","true","138","2.4499999999999993","","",""
"2052.7999999523163","3","confid","","","html-slider-response","1224","1445429","0.0-4.0-10.137-0.137","","","","Rate your confidence","1",""
"610.2999999523163","e","choice","left","e","experimental","1231","1447819","0.0-4.0-8.138","true","139","2.349999999999999","","",""
"3407.2999999523163","4","confid","","","html-slider-response","1233","1451731","0.0-4.0-10.138-0.138","","","","Rate your confidence","1",""
"350.09999990463257","e","choice","right","i","experimental","1240","1453861","0.0-4.0-8.139","false","140","2.349999999999999","","",""
"2534","4","confid","","","html-slider-response","1242","1456900","0.0-4.0-10.139-0.139","","","","Rate your confidence","1",""
"212.90000009536743","i","choice","right","i","experimental","1249","1458892","0.0-4.0-8.140","true","141","2.4499999999999993","","",""
"3121.7999999523163","5","confid","","","html-slider-response","1251","1462518","0.0-4.0-10.140-0.140","","","","Rate your confidence","1",""
"184.40000009536743","e","choice","left","e","experimental","1258","1464487","0.0-4.0-8.141","true","142","2.4499999999999993","","",""
"2433.300000190735","4","confid","","","html-slider-response","1260","1467425","0.0-4.0-10.141-0.141","","","","Rate your confidence","1",""
"277.7000000476837","e","choice","left","e","experimental","1267","1469478","0.0-4.0-8.142","true","143","2.349999999999999","","",""
"2587.0999999046326","2","confid","","","html-slider-response","1269","1472569","0.0-4.0-10.142-0.142","","","","Rate your confidence","1",""
"303.39999985694885","i","choice","right","i","experimental","1276","1474657","0.0-4.0-8.143","true","144","2.349999999999999","","",""
"2830","5","confid","","","html-slider-response","1278","1477990","0.0-4.0-10.143-0.143","","","","Rate your confidence","1",""
"293.59999990463257","i","choice","right","i","experimental","1285","1480063","0.0-4.0-8.144","true","145","2.249999999999999","","",""
"2809.699999809265","5","confid","","","html-slider-response","1287","1483376","0.0-4.0-10.144-0.144","","","","Rate your confidence","1",""
"290.2000000476837","e","choice","left","e","experimental","1294","1485443","0.0-4.0-8.145","true","146","2.249999999999999","","",""
"2908.2999999523163","4","confid","","","html-slider-response","1296","1488855","0.0-4.0-10.145-0.145","","","","Rate your confidence","1",""
"249.69999980926514","e","choice","left","e","experimental","1303","1490880","0.0-4.0-8.146","true","147","2.149999999999999","","",""
"2846.2999999523163","3","confid","","","html-slider-response","1305","1494231","0.0-4.0-10.146-0.146","","","","Rate your confidence","1",""
"245.59999990463257","i","choice","right","i","experimental","1312","1496253","0.0-4.0-8.147","true","148","2.149999999999999","","",""
"2325.7000000476837","3","confid","","","html-slider-response","1314","1499082","0.0-4.0-10.147-0.147","","","","Rate your confidence","1",""
"118.70000004768372","e","choice","right","i","experimental","1321","1500978","0.0-4.0-8.148","false","149","2.049999999999999","","",""
"3735.5","4","confid","","","html-slider-response","1323","1505219","0.0-4.0-10.148-0.148","","","","Rate your confidence","1",""
"399.5","e","choice","left","e","experimental","1330","1507401","0.0-4.0-8.149","true","150","2.149999999999999","","",""
"3129.2999999523163","4","confid","","","html-slider-response","1332","1511033","0.0-4.0-10.149-0.149","","","","Rate your confidence","1",""
"361","i","choice","right","i","experimental","1339","1513179","0.0-4.0-8.150","true","151","2.149999999999999","","",""
"2451.2000000476837","2","confid","","","html-slider-response","1341","1516134","0.0-4.0-10.150-0.150","","","","Rate your confidence","1",""
"337.90000009536743","i","choice","left","e","experimental","1348","1518251","0.0-4.0-8.151","false","152","2.049999999999999","","",""
"3330.9000000953674","4","confid","","","html-slider-response","1350","1522088","0.0-4.0-10.151-0.151","","","","Rate your confidence","1",""
"280.09999990463257","i","choice","left","e","experimental","1358","1525454","0.0-4.0-8.152","false","153","2.149999999999999","","",""
"2186","4","confid","","","html-slider-response","1360","1528142","0.0-4.0-10.152-0.152","","","","Rate your confidence","1",""
"263.5","i","choice","right","i","experimental","1367","1530174","0.0-4.0-8.153","true","154","2.249999999999999","","",""
"2875.7000000476837","4","confid","","","html-slider-response","1369","1533552","0.0-4.0-10.153-0.153","","","","Rate your confidence","1",""
"285.40000009536743","e","choice","right","i","experimental","1376","1535608","0.0-4.0-8.154","false","155","2.249999999999999","","",""
"3423.2999999523163","5","confid","","","html-slider-response","1378","1539534","0.0-4.0-10.154-0.154","","","","Rate your confidence","1",""
"560.2000000476837","i","choice","left","e","experimental","1385","1541869","0.0-4.0-8.155","false","156","2.349999999999999","","",""
"2361.7000000476837","3","confid","","","html-slider-response","1387","1544733","0.0-4.0-10.155-0.155","","","","Rate your confidence","1",""
"794.5999999046326","e","choice","right","i","experimental","1394","1547300","0.0-4.0-8.156","false","157","2.4499999999999993","","",""
"2404.600000143051","2","confid","","","html-slider-response","1396","1550207","0.0-4.0-10.156-0.156","","","","Rate your confidence","1",""
"293.2999999523163","e","choice","left","e","experimental","1403","1552283","0.0-4.0-8.157","true","158","2.5499999999999994","","",""
"2029.6000001430511","4","confid","","","html-slider-response","1405","1554816","0.0-4.0-10.157-0.157","","","","Rate your confidence","1",""
"310.7000000476837","i","choice","right","i","experimental","1412","1556905","0.0-4.0-8.158","true","159","2.5499999999999994","","",""
"6537.900000095367","4","confid","","","html-slider-response","1414","1563953","0.0-4.0-10.158-0.158","","","","Rate your confidence","1",""
"365.2000000476837","e","choice","left","e","experimental","1421","1566097","0.0-4.0-8.159","true","160","2.4499999999999993","","",""
"4722.200000047684","5","confid","","","html-slider-response","1423","1571323","0.0-4.0-10.159-0.159","","","","Rate your confidence","1",""
"280.2999999523163","i","choice","right","i","experimental","1430","1573389","0.0-4.0-8.160","true","161","2.4499999999999993","","",""
"2926","3","confid","","","html-slider-response","1432","1576818","0.0-4.0-10.160-0.160","","","","Rate your confidence","1",""
"161.89999985694885","e","choice","left","e","experimental","1439","1578763","0.0-4.0-8.161","true","162","2.349999999999999","","",""
"3150.800000190735","4","confid","","","html-slider-response","1441","1582418","0.0-4.0-10.161-0.161","","","","Rate your confidence","1",""
"278","e","choice","left","e","experimental","1448","1584477","0.0-4.0-8.162","true","163","2.349999999999999","","",""
"2437.5","4","confid","","","html-slider-response","1450","1587423","0.0-4.0-10.162-0.162","","","","Rate your confidence","1",""
"262.2000000476837","e","choice","right","i","experimental","1457","1589461","0.0-4.0-8.163","false","164","2.249999999999999","","",""
"2404.100000143051","3","confid","","","html-slider-response","1459","1592370","0.0-4.0-10.163-0.163","","","","Rate your confidence","1",""
"417.39999985694885","e","choice","right","i","experimental","1466","1594564","0.0-4.0-8.164","false","165","2.349999999999999","","",""
"4718.199999809265","5","confid","","","html-slider-response","1468","1599786","0.0-4.0-10.164-0.164","","","","Rate your confidence","1",""
"309.2000000476837","e","choice","left","e","experimental","1475","1601874","0.0-4.0-8.165","true","166","2.4499999999999993","","",""
"2912.100000143051","4","confid","","","html-slider-response","1477","1605288","0.0-4.0-10.165-0.165","","","","Rate your confidence","1",""
"95.70000004768372","e","choice","right","i","experimental","1484","1607170","0.0-4.0-8.166","false","167","2.4499999999999993","","",""
"3912","4","confid","","","html-slider-response","1486","1611586","0.0-4.0-10.166-0.166","","","","Rate your confidence","1",""
"294.7000000476837","i","choice","left","e","experimental","1493","1613659","0.0-4.0-8.167","false","168","2.5499999999999994","","",""
"2916.7000000476837","5","confid","","","html-slider-response","1495","1617080","0.0-4.0-10.167-0.167","","","","Rate your confidence","1",""
"359.7000000476837","e","choice","left","e","experimental","1502","1619217","0.0-4.0-8.168","true","169","2.6499999999999995","","",""
"2832.600000143051","4","confid","","","html-slider-response","1504","1622552","0.0-4.0-10.168-0.168","","","","Rate your confidence","1",""
"536.2000000476837","e","choice","right","i","experimental","1511","1624873","0.0-4.0-8.169","false","170","2.6499999999999995","","",""
"2799.7999999523163","3","confid","","","html-slider-response","1513","1628176","0.0-4.0-10.169-0.169","","","","Rate your confidence","1",""
"285.39999985694885","e","choice","left","e","experimental","1520","1630239","0.0-4.0-8.170","true","171","2.7499999999999996","","",""
"11654.700000047684","4","confid","","","html-slider-response","1522","1642399","0.0-4.0-10.170-0.170","","","","Rate your confidence","1",""
"250.29999995231628","i","choice","right","i","experimental","1529","1644435","0.0-4.0-8.171","true","172","2.7499999999999996","","",""
"2655.5","2","confid","","","html-slider-response","1531","1647594","0.0-4.0-10.171-0.171","","","","Rate your confidence","1",""
"259.7000000476837","i","choice","right","i","experimental","1538","1649639","0.0-4.0-8.172","true","173","2.6499999999999995","","",""
"3182.5","5","confid","","","html-slider-response","1540","1653326","0.0-4.0-10.172-0.172","","","","Rate your confidence","1",""
"342.7999999523163","e","choice","left","e","experimental","1547","1655448","0.0-4.0-8.173","true","174","2.6499999999999995","","",""
"3938.7000000476837","2","confid","","","html-slider-response","1549","1659891","0.0-4.0-10.173-0.173","","","","Rate your confidence","1",""
"415.7000000476837","e","choice","left","e","experimental","1556","1662088","0.0-4.0-8.174","true","175","2.5499999999999994","","",""
"5469.299999952316","3","confid","","","html-slider-response","1558","1668060","0.0-4.0-10.174-0.174","","","","Rate your confidence","1",""
"276.2999999523163","e","choice","right","i","experimental","1565","1670115","0.0-4.0-8.175","false","176","2.5499999999999994","","",""
"2466","5","confid","","","html-slider-response","1567","1673086","0.0-4.0-10.175-0.175","","","","Rate your confidence","1",""
"1164.0999999046326","i","choice","right","i","experimental","1574","1676034","0.0-4.0-8.176","true","177","2.6499999999999995","","",""
"2570.100000143051","3","confid","","","html-slider-response","1576","1679108","0.0-4.0-10.176-0.176","","","","Rate your confidence","1",""
"280.7000000476837","e","choice","left","e","experimental","1583","1681172","0.0-4.0-8.177","true","178","2.6499999999999995","","",""
"2408.2999999523163","5","confid","","","html-slider-response","1585","1684084","0.0-4.0-10.177-0.177","","","","Rate your confidence","1",""
"250","e","choice","left","e","experimental","1592","1686114","0.0-4.0-8.178","true","179","2.5499999999999994","","",""
"7916.099999904633","5","confid","","","html-slider-response","1594","1694534","0.0-4.0-10.178-0.178","","","","Rate your confidence","1",""
"462.2000000476837","i","choice","right","i","experimental","1601","1696775","0.0-4.0-8.179","true","180","2.5499999999999994","","",""
"2305.600000143051","4","confid","","","html-slider-response","1603","1699584","0.0-4.0-10.179-0.179","","","","Rate your confidence","1",""
"242.60000014305115","e","choice","left","e","experimental","1610","1701605","0.0-4.0-8.180","true","181","2.4499999999999993","","",""
"2033.7000000476837","5","confid","","","html-slider-response","1612","1704143","0.0-4.0-10.180-0.180","","","","Rate your confidence","1",""
"240.19999980926514","e","choice","right","i","experimental","1619","1706159","0.0-4.0-8.181","false","182","2.4499999999999993","","",""
"2086.5","4","confid","","","html-slider-response","1621","1708751","0.0-4.0-10.181-0.181","","","","Rate your confidence","1",""
"16.299999952316284","e","choice","left","e","experimental","1628","1710550","0.0-4.0-8.182","true","183","2.5499999999999994","","",""
"2353.2999999523163","3","confid","","","html-slider-response","1630","1713406","0.0-4.0-10.182-0.182","","","","Rate your confidence","1",""
"143.60000014305115","e","choice","right","i","experimental","1637","1715330","0.0-4.0-8.183","false","184","2.5499999999999994","","",""
"3269.4000000953674","3","confid","","","html-slider-response","1639","1719105","0.0-4.0-10.183-0.183","","","","Rate your confidence","1",""
"77.70000004768372","i","choice","left","e","experimental","1646","1720961","0.0-4.0-8.184","false","185","2.6499999999999995","","",""
"2696.300000190735","4","confid","","","html-slider-response","1648","1724161","0.0-4.0-10.184-0.184","","","","Rate your confidence","1",""
"609.0999999046326","i","choice","right","i","experimental","1655","1726549","0.0-4.0-8.185","true","186","2.7499999999999996","","",""
"3373.9000000953674","5","confid","","","html-slider-response","1657","1730428","0.0-4.0-10.185-0.185","","","","Rate your confidence","1",""
"38.40000009536743","e","choice","left","e","experimental","1664","1732247","0.0-4.0-8.186","true","187","2.7499999999999996","","",""
"3614.899999856949","5","confid","","","html-slider-response","1666","1736366","0.0-4.0-10.186-0.186","","","","Rate your confidence","1",""
"149.20000004768372","i","choice","right","i","experimental","1673","1738300","0.0-4.0-8.187","true","188","2.6499999999999995","","",""
"2559.0999999046326","5","confid","","","html-slider-response","1675","1741364","0.0-4.0-10.187-0.187","","","","Rate your confidence","1",""
"8.100000143051147","e","choice","left","e","experimental","1682","1743155","0.0-4.0-8.188","true","189","2.6499999999999995","","",""
"3190.0999999046326","3","confid","","","html-slider-response","1684","1746849","0.0-4.0-10.188-0.188","","","","Rate your confidence","1",""
"300.2999999523163","i","choice","right","i","experimental","1691","1748933","0.0-4.0-8.189","true","190","2.5499999999999994","","",""
"2382.2999999523163","4","confid","","","html-slider-response","1693","1751820","0.0-4.0-10.189-0.189","","","","Rate your confidence","1",""
"154.79999995231628","e","choice","left","e","experimental","1700","1753753","0.0-4.0-8.190","true","191","2.5499999999999994","","",""
"2636.600000143051","3","confid","","","html-slider-response","1702","1756900","0.0-4.0-10.190-0.190","","","","Rate your confidence","1",""
"83.40000009536743","i","choice","right","i","experimental","1709","1758762","0.0-4.0-8.191","true","192","2.4499999999999993","","",""
"2118.5","3","confid","","","html-slider-response","1711","1761383","0.0-4.0-10.191-0.191","","","","Rate your confidence","1",""
"638.4000000953674","i","choice","right","i","experimental","1718","1763801","0.0-4.0-8.192","true","193","2.4499999999999993","","",""
"2178.899999856949","4","confid","","","html-slider-response","1720","1766483","0.0-4.0-10.192-0.192","","","","Rate your confidence","1",""
"227.29999995231628","e","choice","left","e","experimental","1727","1768501","0.0-4.0-8.193","true","194","2.349999999999999","","",""
"2082.5999999046326","3","confid","","","html-slider-response","1729","1771088","0.0-4.0-10.193-0.193","","","","Rate your confidence","1","86636"
