"rt","response","task","target_side","correct_response","trial_type","trial_index","time_elapsed","internal_node_id","correct","trial_number","n_dots","stimulus","slider_start","participant"
"5557","i","choice","left","e","practice","10","164752","0.0-4.0-8.0","false","1","4.25","","",""
"1106","i","choice","right","i","practice","18","168148","0.0-4.0-8.1","true","2","4.65","","",""
"642","i","choice","right","i","practice","26","171068","0.0-4.0-8.2","true","3","4.65","","",""
"1439.0000000000582","e","choice","left","e","practice","34","174785","0.0-4.0-8.3","true","4","4.25","","",""
"575","e","choice","left","e","practice","42","177634","0.0-4.0-8.4","true","5","4.25","","",""
"1252","i","choice","right","i","practice","50","181161","0.0-4.0-8.5","true","6","3.85","","",""
"940","e","choice","right","i","practice","58","184373","0.0-4.0-8.6","false","7","3.85","","",""
"881","e","choice","left","e","practice","66","187529","0.0-4.0-8.7","true","8","4.05","","",""
"610","i","choice","right","i","practice","74","190411","0.0-4.0-8.8","true","9","4.05","","",""
"543","i","choice","left","e","practice","82","193229","0.0-4.0-8.9","false","10","3.8499999999999996","","",""
"1072","i","choice","left","e","practice","90","196577","0.0-4.0-8.10","false","11","4.05","","",""
"790","e","choice","right","i","practice","98","199638","0.0-4.0-8.11","false","12","4.1499999999999995","","",""
"768.0000000001164","i","choice","left","e","practice","106","202681","0.0-4.0-8.12","false","13","4.249999999999999","","",""
"2295","e","choice","right","i","practice","114","207249","0.0-4.0-8.13","false","14","4.349999999999999","","",""
"430","i","choice","right","i","practice","122","209952","0.0-4.0-8.14","true","15","4.449999999999998","","",""
"514","e","choice","left","e","practice","130","212739","0.0-4.0-8.15","true","16","4.449999999999998","","",""
"1351","i","choice","right","i","practice","138","216361","0.0-4.0-8.16","true","17","4.349999999999999","","",""
"540.0000000001164","e","choice","left","e","practice","146","219176","0.0-4.0-8.17","true","18","4.349999999999999","","",""
"623","i","choice","right","i","practice","154","222070","0.0-4.0-8.18","true","19","4.249999999999999","","",""
"1068","e","choice","left","e","practice","162","225409","0.0-4.0-8.19","true","20","4.249999999999999","","",""
"405","i","choice","right","i","practice","170","228088","0.0-4.0-8.20","true","21","4.1499999999999995","","",""
"623","i","choice","left","e","practice","178","230993","0.0-4.0-8.21","false","22","4.1499999999999995","","",""
"442","e","choice","left","e","practice","186","233720","0.0-4.0-8.22","true","23","4.249999999999999","","",""
"290","i","choice","right","i","practice","194","236288","0.0-4.0-8.23","true","24","4.249999999999999","","",""
"607","e","choice","left","e","practice","202","239190","0.0-4.0-8.24","true","25","4.1499999999999995","","",""
"413","i","choice","right","i","practice","210","241890","0.0-4.0-8.25","true","26","4.1499999999999995","","",""
"1033.9999999998836","i","choice","right","i","experimental","221","345735","0.0-4.0-8.26","true","27","4.05","","",""
"3907.0000000001164","3","confid","","","html-slider-response","223","350149","0.0-4.0-10.26-0.26","","","","Rate your confidence","1",""
"1223","e","choice","left","e","experimental","230","353162","0.0-4.0-8.27","true","28","4.05","","",""
"2342.9999999998836","4","confid","","","html-slider-response","232","356009","0.0-4.0-10.27-0.27","","","","Rate your confidence","1",""
"914","e","choice","left","e","experimental","239","358711","0.0-4.0-8.28","true","29","3.9499999999999997","","",""
"2729","4","confid","","","html-slider-response","241","361948","0.0-4.0-10.28-0.28","","","","Rate your confidence","1",""
"1149","i","choice","right","i","experimental","248","364874","0.0-4.0-8.29","true","30","3.9499999999999997","","",""
"2391","4","confid","","","html-slider-response","250","367771","0.0-4.0-10.29-0.29","","","","Rate your confidence","1",""
"551","i","choice","right","i","experimental","257","370096","0.0-4.0-8.30","true","31","3.8499999999999996","","",""
"1568","5","confid","","","html-slider-response","259","372169","0.0-4.0-10.30-0.30","","","","Rate your confidence","1",""
"710","e","choice","left","e","experimental","266","374670","0.0-4.0-8.31","true","32","3.8499999999999996","","",""
"2790","3","confid","","","html-slider-response","268","377966","0.0-4.0-10.31-0.31","","","","Rate your confidence","1",""
"685.9999999998836","i","choice","right","i","experimental","275","380429","0.0-4.0-8.32","true","33","3.7499999999999996","","",""
"2193","4","confid","","","html-slider-response","277","383125","0.0-4.0-10.32-0.32","","","","Rate your confidence","1",""
"1474.0000000001164","e","choice","left","e","experimental","284","386378","0.0-4.0-8.33","true","34","3.7499999999999996","","",""
"2424","2","confid","","","html-slider-response","286","389309","0.0-4.0-10.33-0.33","","","","Rate your confidence","1",""
"764","i","choice","right","i","experimental","293","391864","0.0-4.0-8.34","true","35","3.6499999999999995","","",""
"2285.9999999998836","4","confid","","","html-slider-response","295","394653","0.0-4.0-10.34-0.34","","","","Rate your confidence","1",""
"630","e","choice","left","e","experimental","302","397075","0.0-4.0-8.35","true","36","3.6499999999999995","","",""
"1971","3","confid","","","html-slider-response","304","399552","0.0-4.0-10.35-0.35","","","","Rate your confidence","1",""
"629","i","choice","right","i","experimental","311","401969","0.0-4.0-8.36","true","37","3.5499999999999994","","",""
"1335","4","confid","","","html-slider-response","313","403811","0.0-4.0-10.36-0.36","","","","Rate your confidence","1",""
"1074","e","choice","left","e","experimental","320","406676","0.0-4.0-8.37","true","38","3.5499999999999994","","",""
"1859","4","confid","","","html-slider-response","322","409040","0.0-4.0-10.37-0.37","","","","Rate your confidence","1",""
"306.9999999998836","i","choice","right","i","experimental","329","411126","0.0-4.0-8.38","true","39","3.4499999999999993","","",""
"1981","5","confid","","","html-slider-response","331","413616","0.0-4.0-10.38-0.38","","","","Rate your confidence","1",""
"1615","i","choice","left","e","experimental","338","417008","0.0-4.0-8.39","false","40","3.4499999999999993","","",""
"4577","2","confid","","","html-slider-response","340","422093","0.0-4.0-10.39-0.39","","","","Rate your confidence","1",""
"1391","i","choice","left","e","experimental","347","425260","0.0-4.0-8.40","false","41","3.5499999999999994","","",""
"2574","2","confid","","","html-slider-response","349","428338","0.0-4.0-10.40-0.40","","","","Rate your confidence","1",""
"574","i","choice","right","i","experimental","356","430689","0.0-4.0-8.41","true","42","3.6499999999999995","","",""
"4162","2","confid","","","html-slider-response","358","435354","0.0-4.0-10.41-0.41","","","","Rate your confidence","1",""
"612","i","choice","right","i","experimental","365","437756","0.0-4.0-8.42","true","43","3.6499999999999995","","",""
"1670","4","confid","","","html-slider-response","367","439929","0.0-4.0-10.42-0.42","","","","Rate your confidence","1",""
"340","e","choice","left","e","experimental","374","442056","0.0-4.0-8.43","true","44","3.5499999999999994","","",""
"1854","3","confid","","","html-slider-response","376","444416","0.0-4.0-10.43-0.43","","","","Rate your confidence","1",""
"293.9999999998836","i","choice","right","i","experimental","383","446482","0.0-4.0-8.44","true","45","3.5499999999999994","","",""
"2397","3","confid","","","html-slider-response","385","449389","0.0-4.0-10.44-0.44","","","","Rate your confidence","1",""
"1161.0000000001164","e","choice","left","e","experimental","392","452342","0.0-4.0-8.45","true","46","3.4499999999999993","","",""
"2902","4","confid","","","html-slider-response","394","455752","0.0-4.0-10.45-0.45","","","","Rate your confidence","1",""
"1270.9999999998836","i","choice","right","i","experimental","401","458815","0.0-4.0-8.46","true","47","3.4499999999999993","","",""
"2025","3","confid","","","html-slider-response","403","461343","0.0-4.0-10.46-0.46","","","","Rate your confidence","1",""
"2289","i","choice","left","e","experimental","410","465411","0.0-4.0-8.47","false","48","3.349999999999999","","",""
"3544.9999999998836","3","confid","","","html-slider-response","412","469463","0.0-4.0-10.47-0.47","","","","Rate your confidence","1",""
"1423","e","choice","left","e","experimental","419","472656","0.0-4.0-8.48","true","49","3.4499999999999993","","",""
"1941","6","confid","","","html-slider-response","421","475104","0.0-4.0-10.48-0.48","","","","Rate your confidence","1",""
"746","i","choice","right","i","experimental","428","477621","0.0-4.0-8.49","true","50","3.4499999999999993","","",""
"1594","3","confid","","","html-slider-response","430","479722","0.0-4.0-10.49-0.49","","","","Rate your confidence","1",""
"1077.9999999998836","e","choice","left","e","experimental","437","482591","0.0-4.0-8.50","true","51","3.349999999999999","","",""
"2358","4","confid","","","html-slider-response","439","485455","0.0-4.0-10.50-0.50","","","","Rate your confidence","1",""
"649","i","choice","right","i","experimental","446","487885","0.0-4.0-8.51","true","52","3.349999999999999","","",""
"2049","4","confid","","","html-slider-response","448","490440","0.0-4.0-10.51-0.51","","","","Rate your confidence","1",""
"567.9999999998836","e","choice","right","i","experimental","455","492788","0.0-4.0-8.52","false","53","3.249999999999999","","",""
"3112","3","confid","","","html-slider-response","457","496406","0.0-4.0-10.52-0.52","","","","Rate your confidence","1",""
"900","e","choice","left","e","experimental","464","499105","0.0-4.0-8.53","true","54","3.349999999999999","","",""
"3528","5","confid","","","html-slider-response","466","503140","0.0-4.0-10.53-0.53","","","","Rate your confidence","1",""
"885","e","choice","right","i","experimental","473","505812","0.0-4.0-8.54","false","55","3.349999999999999","","",""
"1913","4","confid","","","html-slider-response","475","508231","0.0-4.0-10.54-0.54","","","","Rate your confidence","1",""
"333","e","choice","left","e","experimental","482","510355","0.0-4.0-8.55","true","56","3.4499999999999993","","",""
"1657","3","confid","","","html-slider-response","484","512523","0.0-4.0-10.55-0.55","","","","Rate your confidence","1",""
"948","i","choice","right","i","experimental","491","515261","0.0-4.0-8.56","true","57","3.4499999999999993","","",""
"1515","4","confid","","","html-slider-response","493","517281","0.0-4.0-10.56-0.56","","","","Rate your confidence","1",""
"1749.0000000001164","e","choice","left","e","experimental","500","520821","0.0-4.0-8.57","true","58","3.349999999999999","","",""
"3640","3","confid","","","html-slider-response","502","524968","0.0-4.0-10.57-0.57","","","","Rate your confidence","1",""
"1017","i","choice","left","e","experimental","509","527777","0.0-4.0-8.58","false","59","3.349999999999999","","",""
"1652","3","confid","","","html-slider-response","511","529936","0.0-4.0-10.58-0.58","","","","Rate your confidence","1",""
"1271.0000000001164","i","choice","right","i","experimental","518","532982","0.0-4.0-8.59","true","60","3.4499999999999993","","",""
"2677.0000000001164","4","confid","","","html-slider-response","520","536166","0.0-4.0-10.59-0.59","","","","Rate your confidence","1",""
"1151","e","choice","left","e","experimental","527","539094","0.0-4.0-8.60","true","61","3.4499999999999993","","",""
"2057","3","confid","","","html-slider-response","529","541657","0.0-4.0-10.60-0.60","","","","Rate your confidence","1",""
"726","i","choice","right","i","experimental","536","544174","0.0-4.0-8.61","true","62","3.349999999999999","","",""
"1965","5","confid","","","html-slider-response","538","546645","0.0-4.0-10.61-0.61","","","","Rate your confidence","1",""
"1471","i","choice","right","i","experimental","545","549894","0.0-4.0-8.62","true","63","3.349999999999999","","",""
"2300","4","confid","","","html-slider-response","547","552699","0.0-4.0-10.62-0.62","","","","Rate your confidence","1",""
"3202","e","choice","left","e","experimental","554","557683","0.0-4.0-8.63","true","64","3.249999999999999","","",""
"3552.0000000001164","3","confid","","","html-slider-response","556","561742","0.0-4.0-10.63-0.63","","","","Rate your confidence","1",""
"461","i","choice","right","i","experimental","563","563984","0.0-4.0-8.64","true","65","3.249999999999999","","",""
"2025.9999999998836","4","confid","","","html-slider-response","565","566517","0.0-4.0-10.64-0.64","","","","Rate your confidence","1",""
"502","e","choice","left","e","experimental","572","568795","0.0-4.0-8.65","true","66","3.149999999999999","","",""
"59507","2","confid","","","html-slider-response","574","628808","0.0-4.0-10.65-0.65","","","","Rate your confidence","1",""
"1354","e","choice","left","e","experimental","581","631954","0.0-4.0-8.66","true","67","3.149999999999999","","",""
"3649","3","confid","","","html-slider-response","583","636109","0.0-4.0-10.66-0.66","","","","Rate your confidence","1",""
"853","e","choice","right","i","experimental","590","638742","0.0-4.0-8.67","false","68","3.049999999999999","","",""
"12808.000000000116","3","confid","","","html-slider-response","592","652055","0.0-4.0-10.67-0.67","","","","Rate your confidence","1",""
"863.9999999997672","i","choice","right","i","experimental","600","707252","0.0-4.0-8.68","true","69","3.149999999999999","","",""
"4661","3","confid","","","html-slider-response","602","712416","0.0-4.0-10.68-0.68","","","","Rate your confidence","1",""
"933","i","choice","left","e","experimental","609","715120","0.0-4.0-8.69","false","70","3.149999999999999","","",""
"2994.000000000233","4","confid","","","html-slider-response","611","718620","0.0-4.0-10.69-0.69","","","","Rate your confidence","1",""
"724.9999999998836","i","choice","right","i","experimental","618","721115","0.0-4.0-8.70","true","71","3.249999999999999","","",""
"2352.999999999767","4","confid","","","html-slider-response","620","723972","0.0-4.0-10.70-0.70","","","","Rate your confidence","1",""
"697","i","choice","left","e","experimental","627","726438","0.0-4.0-8.71","false","72","3.249999999999999","","",""
"2285","4","confid","","","html-slider-response","629","729227","0.0-4.0-10.71-0.71","","","","Rate your confidence","1",""
"654","i","choice","right","i","experimental","636","731652","0.0-4.0-8.72","true","73","3.349999999999999","","",""
"3139","5","confid","","","html-slider-response","638","735294","0.0-4.0-10.72-0.72","","","","Rate your confidence","1",""
"482","e","choice","left","e","experimental","645","737548","0.0-4.0-8.73","true","74","3.349999999999999","","",""
"2519","3","confid","","","html-slider-response","647","740569","0.0-4.0-10.73-0.73","","","","Rate your confidence","1",""
"743","i","choice","right","i","experimental","654","743083","0.0-4.0-8.74","true","75","3.249999999999999","","",""
"2969","2","confid","","","html-slider-response","656","746555","0.0-4.0-10.74-0.74","","","","Rate your confidence","1",""
"632","i","choice","left","e","experimental","663","748956","0.0-4.0-8.75","false","76","3.249999999999999","","",""
"1708","4","confid","","","html-slider-response","665","751168","0.0-4.0-10.75-0.75","","","","Rate your confidence","1",""
"560","i","choice","right","i","experimental","672","753498","0.0-4.0-8.76","true","77","3.349999999999999","","",""
"1910","3","confid","","","html-slider-response","674","755912","0.0-4.0-10.76-0.76","","","","Rate your confidence","1",""
"640","i","choice","left","e","experimental","681","758323","0.0-4.0-8.77","false","78","3.349999999999999","","",""
"2738","2","confid","","","html-slider-response","683","761564","0.0-4.0-10.77-0.77","","","","Rate your confidence","1",""
"607","i","choice","right","i","experimental","690","763948","0.0-4.0-8.78","true","79","3.4499999999999993","","",""
"2164","3","confid","","","html-slider-response","692","766614","0.0-4.0-10.78-0.78","","","","Rate your confidence","1",""
"79.99999999976717","e","choice","left","e","experimental","699","768465","0.0-4.0-8.79","true","80","3.4499999999999993","","",""
"1843","4","confid","","","html-slider-response","701","770812","0.0-4.0-10.79-0.79","","","","Rate your confidence","1",""
"789","e","choice","left","e","experimental","708","773374","0.0-4.0-8.80","true","81","3.349999999999999","","",""
"2447","3","confid","","","html-slider-response","710","776325","0.0-4.0-10.80-0.80","","","","Rate your confidence","1",""
"1111","e","choice","right","i","experimental","717","779209","0.0-4.0-8.81","false","82","3.349999999999999","","",""
"2026","2","confid","","","html-slider-response","719","781739","0.0-4.0-10.81-0.81","","","","Rate your confidence","1",""
"687","e","choice","right","i","experimental","726","784198","0.0-4.0-8.82","false","83","3.4499999999999993","","",""
"1572","4","confid","","","html-slider-response","728","786273","0.0-4.0-10.82-0.82","","","","Rate your confidence","1",""
"326","e","choice","left","e","experimental","735","788372","0.0-4.0-8.83","true","84","3.5499999999999994","","",""
"2192","3","confid","","","html-slider-response","737","791067","0.0-4.0-10.83-0.83","","","","Rate your confidence","1",""
"634","e","choice","left","e","experimental","744","793474","0.0-4.0-8.84","true","85","3.5499999999999994","","",""
"1907","2","confid","","","html-slider-response","746","795887","0.0-4.0-10.84-0.84","","","","Rate your confidence","1",""
"2537","i","choice","right","i","experimental","753","800209","0.0-4.0-8.85","true","86","3.4499999999999993","","",""
"3851.000000000233","2","confid","","","html-slider-response","755","804568","0.0-4.0-10.85-0.85","","","","Rate your confidence","1",""
"772","e","choice","left","e","experimental","762","807124","0.0-4.0-8.86","true","87","3.4499999999999993","","",""
"2394","4","confid","","","html-slider-response","764","810022","0.0-4.0-10.86-0.86","","","","Rate your confidence","1",""
"1171","i","choice","right","i","experimental","771","812984","0.0-4.0-8.87","true","88","3.349999999999999","","",""
"2170","4","confid","","","html-slider-response","773","815661","0.0-4.0-10.87-0.87","","","","Rate your confidence","1",""
"534","e","choice","left","e","experimental","780","817988","0.0-4.0-8.88","true","89","3.349999999999999","","",""
"1566","4","confid","","","html-slider-response","782","820061","0.0-4.0-10.88-0.88","","","","Rate your confidence","1",""
"1452","i","choice","right","i","experimental","789","823288","0.0-4.0-8.89","true","90","3.249999999999999","","",""
"3685","2","confid","","","html-slider-response","791","827481","0.0-4.0-10.89-0.89","","","","Rate your confidence","1",""
"315.99999999976717","e","choice","left","e","experimental","798","829585","0.0-4.0-8.90","true","91","3.249999999999999","","",""
"1610","4","confid","","","html-slider-response","800","831697","0.0-4.0-10.90-0.90","","","","Rate your confidence","1",""
"420","e","choice","right","i","experimental","807","833908","0.0-4.0-8.91","false","92","3.149999999999999","","",""
"2236","3","confid","","","html-slider-response","809","836650","0.0-4.0-10.91-0.91","","","","Rate your confidence","1",""
"360","e","choice","right","i","experimental","816","838791","0.0-4.0-8.92","false","93","3.249999999999999","","",""
"2137.999999999767","4","confid","","","html-slider-response","818","841436","0.0-4.0-10.92-0.92","","","","Rate your confidence","1",""
"1080.9999999997672","e","choice","left","e","experimental","825","844311","0.0-4.0-8.93","true","94","3.349999999999999","","",""
"2278","3","confid","","","html-slider-response","827","847097","0.0-4.0-10.93-0.93","","","","Rate your confidence","1",""
"472","i","choice","left","e","experimental","834","849357","0.0-4.0-8.94","false","95","3.349999999999999","","",""
"2296","2","confid","","","html-slider-response","836","852159","0.0-4.0-10.94-0.94","","","","Rate your confidence","1",""
"1117","i","choice","right","i","experimental","843","855061","0.0-4.0-8.95","true","96","3.4499999999999993","","",""
"1229","4","confid","","","html-slider-response","845","856796","0.0-4.0-10.95-0.95","","","","Rate your confidence","1",""
"591","e","choice","left","e","experimental","852","859174","0.0-4.0-8.96","true","97","3.4499999999999993","","",""
"2420.999999999767","4","confid","","","html-slider-response","854","862101","0.0-4.0-10.96-0.96","","","","Rate your confidence","1",""
"825.9999999997672","e","choice","right","i","experimental","861","864719","0.0-4.0-8.97","false","98","3.349999999999999","","",""
"1524","3","confid","","","html-slider-response","863","866749","0.0-4.0-10.97-0.97","","","","Rate your confidence","1",""
"570.9999999997672","i","choice","right","i","experimental","870","869098","0.0-4.0-8.98","true","99","3.4499999999999993","","",""
"1511","4","confid","","","html-slider-response","872","871115","0.0-4.0-10.98-0.98","","","","Rate your confidence","1",""
"381","e","choice","left","e","experimental","879","873290","0.0-4.0-8.99","true","100","3.4499999999999993","","",""
"3433","3","confid","","","html-slider-response","881","877227","0.0-4.0-10.99-0.99","","","","Rate your confidence","1",""
"719","i","choice","right","i","experimental","888","879734","0.0-4.0-8.100","true","101","3.349999999999999","","",""
"2206.000000000233","4","confid","","","html-slider-response","890","882449","0.0-4.0-10.100-0.100","","","","Rate your confidence","1",""
"1458","e","choice","left","e","experimental","897","885682","0.0-4.0-8.101","true","102","3.349999999999999","","",""
"1596","2","confid","","","html-slider-response","899","887786","0.0-4.0-10.101-0.101","","","","Rate your confidence","1",""
"697","i","choice","right","i","experimental","906","890274","0.0-4.0-8.102","true","103","3.249999999999999","","",""
"22121","3","confid","","","html-slider-response","908","912901","0.0-4.0-10.102-0.102","","","","Rate your confidence","1",""
"2072","e","choice","left","e","experimental","915","916748","0.0-4.0-8.103","true","104","3.249999999999999","","",""
"4364","2","confid","","","html-slider-response","917","921621","0.0-4.0-10.103-0.103","","","","Rate your confidence","1",""
"766","i","choice","right","i","experimental","924","924162","0.0-4.0-8.104","true","105","3.149999999999999","","",""
"1952","3","confid","","","html-slider-response","926","926619","0.0-4.0-10.104-0.104","","","","Rate your confidence","1",""
"956","e","choice","left","e","experimental","933","929348","0.0-4.0-8.105","true","106","3.149999999999999","","",""
"4419","3","confid","","","html-slider-response","935","934272","0.0-4.0-10.105-0.105","","","","Rate your confidence","1",""
"1140","i","choice","right","i","experimental","942","937201","0.0-4.0-8.106","true","107","3.049999999999999","","",""
"2255","3","confid","","","html-slider-response","944","939960","0.0-4.0-10.106-0.106","","","","Rate your confidence","1",""
"906","e","choice","left","e","experimental","951","942658","0.0-4.0-8.107","true","108","3.049999999999999","","",""
"1571","4","confid","","","html-slider-response","953","944732","0.0-4.0-10.107-0.107","","","","Rate your confidence","1",""
"811","i","choice","right","i","experimental","960","947330","0.0-4.0-8.108","true","109","2.949999999999999","","",""
"2054","3","confid","","","html-slider-response","962","949892","0.0-4.0-10.108-0.108","","","","Rate your confidence","1",""
"921","e","choice","left","e","experimental","969","952601","0.0-4.0-8.109","true","110","2.949999999999999","","",""
"3732","4","confid","","","html-slider-response","971","956837","0.0-4.0-10.109-0.109","","","","Rate your confidence","1",""
"2508.000000000233","e","choice","right","i","experimental","979","1163036","0.0-4.0-8.110","false","111","2.8499999999999988","","",""
"5692","2","confid","","","html-slider-response","981","1169234","0.0-4.0-10.110-0.110","","","","Rate your confidence","1",""
"1018","i","choice","left","e","experimental","988","1172027","0.0-4.0-8.111","false","112","2.949999999999999","","",""
"2921","2","confid","","","html-slider-response","990","1175451","0.0-4.0-10.111-0.111","","","","Rate your confidence","1",""
"752.0000000002328","e","choice","right","i","experimental","997","1177978","0.0-4.0-8.112","false","113","3.049999999999999","","",""
"1500","3","confid","","","html-slider-response","999","1179983","0.0-4.0-10.112-0.112","","","","Rate your confidence","1",""
"5896.000000000233","e","choice","left","e","experimental","1006","1187651","0.0-4.0-8.113","true","114","3.149999999999999","","",""
"5969","2","confid","","","html-slider-response","1008","1194123","0.0-4.0-10.113-0.113","","","","Rate your confidence","1",""
"752","e","choice","right","i","experimental","1015","1196649","0.0-4.0-8.114","false","115","3.149999999999999","","",""
"1622","3","confid","","","html-slider-response","1017","1198776","0.0-4.0-10.114-0.114","","","","Rate your confidence","1",""
"13060.999999999767","i","choice","left","e","experimental","1024","1213615","0.0-4.0-8.115","false","116","3.249999999999999","","",""
"3297","2","confid","","","html-slider-response","1026","1217417","0.0-4.0-10.115-0.115","","","","Rate your confidence","1",""
"883","i","choice","right","i","experimental","1033","1220074","0.0-4.0-8.116","true","117","3.349999999999999","","",""
"2066","2","confid","","","html-slider-response","1035","1222646","0.0-4.0-10.116-0.116","","","","Rate your confidence","1",""
"478.00000000023283","e","choice","left","e","experimental","1042","1224909","0.0-4.0-8.117","true","118","3.349999999999999","","",""
"9450","3","confid","","","html-slider-response","1044","1234864","0.0-4.0-10.117-0.117","","","","Rate your confidence","1",""
"742","e","choice","right","i","experimental","1051","1237382","0.0-4.0-8.118","false","119","3.249999999999999","","",""
"7336","2","confid","","","html-slider-response","1053","1245223","0.0-4.0-10.118-0.118","","","","Rate your confidence","1",""
"804.0000000002328","i","choice","left","e","experimental","1060","1247821","0.0-4.0-8.119","false","120","3.349999999999999","","",""
"2599","2","confid","","","html-slider-response","1062","1250928","0.0-4.0-10.119-0.119","","","","Rate your confidence","1",""
"593","e","choice","left","e","experimental","1069","1253307","0.0-4.0-8.120","true","121","3.4499999999999993","","",""
"17157","2","confid","","","html-slider-response","1071","1270973","0.0-4.0-10.120-0.120","","","","Rate your confidence","1",""
"1011","e","choice","right","i","experimental","1078","1273768","0.0-4.0-8.121","false","122","3.4499999999999993","","",""
"2415","3","confid","","","html-slider-response","1080","1276690","0.0-4.0-10.121-0.121","","","","Rate your confidence","1",""
"3821","i","choice","right","i","experimental","1087","1282309","0.0-4.0-8.122","true","123","3.5499999999999994","","",""
"2485","4","confid","","","html-slider-response","1089","1285298","0.0-4.0-10.122-0.122","","","","Rate your confidence","1",""
"704","e","choice","left","e","experimental","1096","1287779","0.0-4.0-8.123","true","124","3.5499999999999994","","",""
"2190.000000000233","3","confid","","","html-slider-response","1098","1290474","0.0-4.0-10.123-0.123","","","","Rate your confidence","1",""
"402.99999999976717","i","choice","right","i","experimental","1105","1292655","0.0-4.0-8.124","true","125","3.4499999999999993","","",""
"2063","2","confid","","","html-slider-response","1107","1295223","0.0-4.0-10.124-0.124","","","","Rate your confidence","1",""
"382","e","choice","left","e","experimental","1114","1297382","0.0-4.0-8.125","true","126","3.4499999999999993","","",""
"2103.999999999767","3","confid","","","html-slider-response","1116","1299990","0.0-4.0-10.125-0.125","","","","Rate your confidence","1",""
"334","e","choice","left","e","experimental","1123","1302105","0.0-4.0-8.126","true","127","3.349999999999999","","",""
"1569","3","confid","","","html-slider-response","1125","1304180","0.0-4.0-10.126-0.126","","","","Rate your confidence","1",""
"562","e","choice","right","i","experimental","1132","1306521","0.0-4.0-8.127","false","128","3.349999999999999","","",""
"1320","4","confid","","","html-slider-response","1134","1308347","0.0-4.0-10.127-0.127","","","","Rate your confidence","1",""
"148.00000000023283","e","choice","left","e","experimental","1141","1310271","0.0-4.0-8.128","true","129","3.4499999999999993","","",""
"2026","3","confid","","","html-slider-response","1143","1312803","0.0-4.0-10.128-0.128","","","","Rate your confidence","1",""
"9583","e","choice","right","i","experimental","1150","1324173","0.0-4.0-8.129","false","130","3.4499999999999993","","",""
"1962","2","confid","","","html-slider-response","1152","1326642","0.0-4.0-10.129-0.129","","","","Rate your confidence","1",""
"491","i","choice","right","i","experimental","1159","1328911","0.0-4.0-8.130","true","131","3.5499999999999994","","",""
"11191.000000000233","3","confid","","","html-slider-response","1161","1340606","0.0-4.0-10.130-0.130","","","","Rate your confidence","1",""
"604","e","choice","left","e","experimental","1168","1342986","0.0-4.0-8.131","true","132","3.5499999999999994","","",""
"2004.9999999997672","3","confid","","","html-slider-response","1170","1345496","0.0-4.0-10.131-0.131","","","","Rate your confidence","1",""
"639","i","choice","right","i","experimental","1177","1347916","0.0-4.0-8.132","true","133","3.4499999999999993","","",""
"2761","3","confid","","","html-slider-response","1179","1351182","0.0-4.0-10.132-0.132","","","","Rate your confidence","1",""
"408","e","choice","left","e","experimental","1186","1353366","0.0-4.0-8.133","true","134","3.4499999999999993","","",""
"2060","3","confid","","","html-slider-response","1188","1355930","0.0-4.0-10.133-0.133","","","","Rate your confidence","1",""
"600","e","choice","left","e","experimental","1195","1358313","0.0-4.0-8.134","true","135","3.349999999999999","","",""
"3108.999999999767","4","confid","","","html-slider-response","1197","1361926","0.0-4.0-10.134-0.134","","","","Rate your confidence","1",""
"1451.0000000002328","i","choice","right","i","experimental","1204","1365154","0.0-4.0-8.135","true","136","3.349999999999999","","",""
"1391","2","confid","","","html-slider-response","1206","1367049","0.0-4.0-10.135-0.135","","","","Rate your confidence","1",""
"626","i","choice","right","i","experimental","1213","1369451","0.0-4.0-8.136","true","137","3.249999999999999","","",""
"1473","2","confid","","","html-slider-response","1215","1371428","0.0-4.0-10.136-0.136","","","","Rate your confidence","1",""
"646","e","choice","left","e","experimental","1222","1373858","0.0-4.0-8.137","true","138","3.249999999999999","","",""
"1755","3","confid","","","html-slider-response","1224","1376118","0.0-4.0-10.137-0.137","","","","Rate your confidence","1",""
"337","e","choice","left","e","experimental","1231","1378233","0.0-4.0-8.138","true","139","3.149999999999999","","",""
"1464.0000000002328","5","confid","","","html-slider-response","1233","1380202","0.0-4.0-10.138-0.138","","","","Rate your confidence","1",""
"712.9999999997672","i","choice","right","i","experimental","1240","1382693","0.0-4.0-8.139","true","140","3.149999999999999","","",""
"1541","2","confid","","","html-slider-response","1242","1384738","0.0-4.0-10.139-0.139","","","","Rate your confidence","1",""
"249","e","choice","left","e","experimental","1249","1386764","0.0-4.0-8.140","true","141","3.049999999999999","","",""
"2268.000000000233","3","confid","","","html-slider-response","1251","1389538","0.0-4.0-10.140-0.140","","","","Rate your confidence","1",""
"607","i","choice","right","i","experimental","1258","1391926","0.0-4.0-8.141","true","142","3.049999999999999","","",""
"2355","2","confid","","","html-slider-response","1260","1394786","0.0-4.0-10.141-0.141","","","","Rate your confidence","1",""
"605","e","choice","right","i","experimental","1267","1397168","0.0-4.0-8.142","false","143","2.949999999999999","","",""
"3752.999999999767","3","confid","","","html-slider-response","1269","1401425","0.0-4.0-10.142-0.142","","","","Rate your confidence","1",""
"352","e","choice","left","e","experimental","1276","1403563","0.0-4.0-8.143","true","144","3.049999999999999","","",""
"10081","3","confid","","","html-slider-response","1278","1414148","0.0-4.0-10.143-0.143","","","","Rate your confidence","1",""
"1682","i","choice","right","i","experimental","1285","1417610","0.0-4.0-8.144","true","145","3.049999999999999","","",""
"5843","2","confid","","","html-slider-response","1287","1423958","0.0-4.0-10.144-0.144","","","","Rate your confidence","1",""
"6957","i","choice","left","e","experimental","1294","1432693","0.0-4.0-8.145","false","146","2.949999999999999","","",""
"2347.000000000233","2","confid","","","html-slider-response","1296","1435545","0.0-4.0-10.145-0.145","","","","Rate your confidence","1",""
"1539","e","choice","right","i","experimental","1303","1438866","0.0-4.0-8.146","false","147","3.049999999999999","","",""
"9523","3","confid","","","html-slider-response","1305","1448893","0.0-4.0-10.146-0.146","","","","Rate your confidence","1",""
"8649","i","choice","left","e","experimental","1312","1459317","0.0-4.0-8.147","false","148","3.149999999999999","","",""
"2697","3","confid","","","html-slider-response","1314","1462518","0.0-4.0-10.147-0.147","","","","Rate your confidence","1",""
"705.9999999997672","e","choice","right","i","experimental","1321","1465010","0.0-4.0-8.148","false","149","3.249999999999999","","",""
"1963","2","confid","","","html-slider-response","1323","1467477","0.0-4.0-10.148-0.148","","","","Rate your confidence","1",""
"853","e","choice","left","e","experimental","1330","1470105","0.0-4.0-8.149","true","150","3.349999999999999","","",""
"1406.0000000002328","3","confid","","","html-slider-response","1332","1472014","0.0-4.0-10.149-0.149","","","","Rate your confidence","1",""
"28327","e","choice","left","e","experimental","1339","1502121","0.0-4.0-8.150","true","151","3.349999999999999","","",""
"2579","1","confid","","","html-slider-response","1341","1505205","0.0-4.0-10.150-0.150","","","","Rate your confidence","1",""
"442","i","choice","right","i","experimental","1348","1507428","0.0-4.0-8.151","true","152","3.249999999999999","","",""
"2755.000000000233","3","confid","","","html-slider-response","1350","1510688","0.0-4.0-10.151-0.151","","","","Rate your confidence","1",""
"604","e","choice","right","i","experimental","1358","2187146","0.0-4.0-8.152","false","153","3.249999999999999","","",""
"2445.0000000004657","3","confid","","","html-slider-response","1360","2190096","0.0-4.0-10.152-0.152","","","","Rate your confidence","1",""
"284.99999999953434","e","choice","left","e","experimental","1367","2192160","0.0-4.0-8.153","true","154","3.349999999999999","","",""
"1777.0000000004657","4","confid","","","html-slider-response","1369","2194442","0.0-4.0-10.153-0.153","","","","Rate your confidence","1",""
"165.99999999953434","e","choice","left","e","experimental","1376","2196387","0.0-4.0-8.154","true","155","3.349999999999999","","",""
"3544.9999999995343","3","confid","","","html-slider-response","1378","2200437","0.0-4.0-10.154-0.154","","","","Rate your confidence","1",""
"617.9999999995343","i","choice","right","i","experimental","1385","2202839","0.0-4.0-8.155","true","156","3.249999999999999","","",""
"1279","3","confid","","","html-slider-response","1387","2204629","0.0-4.0-10.155-0.155","","","","Rate your confidence","1",""
"614.9999999995343","e","choice","left","e","experimental","1394","2207027","0.0-4.0-8.156","true","157","3.249999999999999","","",""
"1848","3","confid","","","html-slider-response","1396","2209381","0.0-4.0-10.156-0.156","","","","Rate your confidence","1",""
"453","e","choice","right","i","experimental","1403","2211637","0.0-4.0-8.157","false","158","3.149999999999999","","",""
"1491.9999999995343","4","confid","","","html-slider-response","1405","2213634","0.0-4.0-10.157-0.157","","","","Rate your confidence","1",""
"392","i","choice","right","i","experimental","1412","2215801","0.0-4.0-8.158","true","159","3.249999999999999","","",""
"1761.9999999995343","3","confid","","","html-slider-response","1414","2218067","0.0-4.0-10.158-0.158","","","","Rate your confidence","1",""
"199.00000000046566","e","choice","left","e","experimental","1421","2220046","0.0-4.0-8.159","true","160","3.249999999999999","","",""
"3910","3","confid","","","html-slider-response","1423","2224461","0.0-4.0-10.159-0.159","","","","Rate your confidence","1",""
"361","e","choice","left","e","experimental","1430","2226602","0.0-4.0-8.160","true","161","3.149999999999999","","",""
"1904","4","confid","","","html-slider-response","1432","2229012","0.0-4.0-10.160-0.160","","","","Rate your confidence","1",""
"324.00000000046566","e","choice","right","i","experimental","1439","2231133","0.0-4.0-8.161","false","162","3.149999999999999","","",""
"2654","2","confid","","","html-slider-response","1441","2234293","0.0-4.0-10.161-0.161","","","","Rate your confidence","1",""
"333","e","choice","right","i","experimental","1448","2236427","0.0-4.0-8.162","false","163","3.249999999999999","","",""
"2073","3","confid","","","html-slider-response","1450","2239009","0.0-4.0-10.162-0.162","","","","Rate your confidence","1",""
"189.99999999953434","e","choice","left","e","experimental","1457","2240994","0.0-4.0-8.163","true","164","3.349999999999999","","",""
"1592.9999999995343","4","confid","","","html-slider-response","1459","2243091","0.0-4.0-10.163-0.163","","","","Rate your confidence","1",""
"2909","i","choice","left","e","experimental","1466","2247779","0.0-4.0-8.164","false","165","3.349999999999999","","",""
"2348.0000000004657","2","confid","","","html-slider-response","1468","2250632","0.0-4.0-10.164-0.164","","","","Rate your confidence","1",""
"507","i","choice","right","i","experimental","1475","2252919","0.0-4.0-8.165","true","166","3.4499999999999993","","",""
"1220","3","confid","","","html-slider-response","1477","2254646","0.0-4.0-10.165-0.165","","","","Rate your confidence","1",""
"481","i","choice","right","i","experimental","1484","2256915","0.0-4.0-8.166","true","167","3.4499999999999993","","",""
"3583","3","confid","","","html-slider-response","1486","2261006","0.0-4.0-10.166-0.166","","","","Rate your confidence","1",""
"468","e","choice","left","e","experimental","1493","2263275","0.0-4.0-8.167","true","168","3.349999999999999","","",""
"2139","2","confid","","","html-slider-response","1495","2265920","0.0-4.0-10.167-0.167","","","","Rate your confidence","1",""
"567","i","choice","right","i","experimental","1502","2268284","0.0-4.0-8.168","true","169","3.349999999999999","","",""
"3700","4","confid","","","html-slider-response","1504","2272492","0.0-4.0-10.168-0.168","","","","Rate your confidence","1",""
"352.99999999953434","e","choice","left","e","experimental","1511","2274648","0.0-4.0-8.169","true","170","3.249999999999999","","",""
"1456","3","confid","","","html-slider-response","1513","2276613","0.0-4.0-10.169-0.169","","","","Rate your confidence","1",""
"318","i","choice","right","i","experimental","1520","2278732","0.0-4.0-8.170","true","171","3.249999999999999","","",""
"1866","4","confid","","","html-slider-response","1522","2281106","0.0-4.0-10.170-0.170","","","","Rate your confidence","1",""
"928","i","choice","left","e","experimental","1529","2283831","0.0-4.0-8.171","false","172","3.149999999999999","","",""
"1385","3","confid","","","html-slider-response","1531","2285723","0.0-4.0-10.171-0.171","","","","Rate your confidence","1",""
"359","e","choice","left","e","experimental","1538","2287869","0.0-4.0-8.172","true","173","3.249999999999999","","",""
"2499","3","confid","","","html-slider-response","1540","2290876","0.0-4.0-10.172-0.172","","","","Rate your confidence","1",""
"334","i","choice","right","i","experimental","1547","2293019","0.0-4.0-8.173","true","174","3.249999999999999","","",""
"1592","4","confid","","","html-slider-response","1549","2295119","0.0-4.0-10.173-0.173","","","","Rate your confidence","1",""
"281","i","choice","left","e","experimental","1556","2297186","0.0-4.0-8.174","false","175","3.149999999999999","","",""
"1448","4","confid","","","html-slider-response","1558","2299143","0.0-4.0-10.174-0.174","","","","Rate your confidence","1",""
"1542","i","choice","right","i","experimental","1565","2302482","0.0-4.0-8.175","true","176","3.249999999999999","","",""
"6238","3","confid","","","html-slider-response","1567","2309228","0.0-4.0-10.175-0.175","","","","Rate your confidence","1",""
"345","i","choice","right","i","experimental","1574","2311358","0.0-4.0-8.176","true","177","3.249999999999999","","",""
"2073","2","confid","","","html-slider-response","1576","2313936","0.0-4.0-10.176-0.176","","","","Rate your confidence","1",""
"736","i","choice","left","e","experimental","1583","2316469","0.0-4.0-8.177","false","178","3.149999999999999","","",""
"1498","3","confid","","","html-slider-response","1585","2318472","0.0-4.0-10.177-0.177","","","","Rate your confidence","1",""
"396","i","choice","left","e","experimental","1592","2320669","0.0-4.0-8.178","false","179","3.249999999999999","","",""
"3290.9999999995343","5","confid","","","html-slider-response","1594","2324468","0.0-4.0-10.178-0.178","","","","Rate your confidence","1",""
"255","i","choice","right","i","experimental","1601","2326511","0.0-4.0-8.179","true","180","3.349999999999999","","",""
"4260","3","confid","","","html-slider-response","1603","2331275","0.0-4.0-10.179-0.179","","","","Rate your confidence","1",""
"631","i","choice","left","e","experimental","1610","2333691","0.0-4.0-8.180","false","181","3.349999999999999","","",""
"1499","4","confid","","","html-slider-response","1612","2335699","0.0-4.0-10.180-0.180","","","","Rate your confidence","1",""
"308","i","choice","right","i","experimental","1619","2337809","0.0-4.0-8.181","true","182","3.4499999999999993","","",""
"1572","4","confid","","","html-slider-response","1621","2339890","0.0-4.0-10.181-0.181","","","","Rate your confidence","1",""
"239","i","choice","right","i","experimental","1628","2341918","0.0-4.0-8.182","true","183","3.4499999999999993","","",""
"1524","3","confid","","","html-slider-response","1630","2343947","0.0-4.0-10.182-0.182","","","","Rate your confidence","1",""
"478","i","choice","left","e","experimental","1637","2346228","0.0-4.0-8.183","false","184","3.349999999999999","","",""
"2573.9999999995343","4","confid","","","html-slider-response","1639","2349308","0.0-4.0-10.183-0.183","","","","Rate your confidence","1",""
"425","i","choice","right","i","experimental","1646","2351538","0.0-4.0-8.184","true","185","3.4499999999999993","","",""
"2006","3","confid","","","html-slider-response","1648","2354056","0.0-4.0-10.184-0.184","","","","Rate your confidence","1",""
"855.0000000004657","e","choice","left","e","experimental","1655","2356716","0.0-4.0-8.185","true","186","3.4499999999999993","","",""
"2480","4","confid","","","html-slider-response","1657","2359702","0.0-4.0-10.185-0.185","","","","Rate your confidence","1",""
"385","i","choice","right","i","experimental","1664","2361883","0.0-4.0-8.186","true","187","3.349999999999999","","",""
"1783","4","confid","","","html-slider-response","1666","2364173","0.0-4.0-10.186-0.186","","","","Rate your confidence","1",""
"504","e","choice","left","e","experimental","1673","2366485","0.0-4.0-8.187","true","188","3.349999999999999","","",""
"1619","3","confid","","","html-slider-response","1675","2368618","0.0-4.0-10.187-0.187","","","","Rate your confidence","1",""
"803","i","choice","left","e","experimental","1682","2371224","0.0-4.0-8.188","false","189","3.249999999999999","","",""
"3256","3","confid","","","html-slider-response","1684","2374988","0.0-4.0-10.188-0.188","","","","Rate your confidence","1",""
"542.9999999995343","i","choice","right","i","experimental","1691","2377334","0.0-4.0-8.189","true","190","3.349999999999999","","",""
"2183.9999999995343","4","confid","","","html-slider-response","1693","2380024","0.0-4.0-10.189-0.189","","","","Rate your confidence","1",""
"320","e","choice","left","e","experimental","1700","2382146","0.0-4.0-8.190","true","191","3.349999999999999","","",""
"1796","3","confid","","","html-slider-response","1702","2384449","0.0-4.0-10.190-0.190","","","","Rate your confidence","1",""
"488","i","choice","right","i","experimental","1709","2386735","0.0-4.0-8.191","true","192","3.249999999999999","","",""
"3031.0000000004657","3","confid","","","html-slider-response","1711","2390273","0.0-4.0-10.191-0.191","","","","Rate your confidence","1",""
"473","i","choice","right","i","experimental","1718","2392547","0.0-4.0-8.192","true","193","3.249999999999999","","",""
"1520","3","confid","","","html-slider-response","1720","2394573","0.0-4.0-10.192-0.192","","","","Rate your confidence","1",""
"2767","e","choice","left","e","experimental","1727","2399144","0.0-4.0-8.193","true","194","3.149999999999999","","",""
"4917","3","confid","","","html-slider-response","1729","2404568","0.0-4.0-10.193-0.193","","","","Rate your confidence","1","91976"
