"rt","response","task","target_side","correct_response","trial_type","trial_index","time_elapsed","internal_node_id","correct","trial_number","n_dots","stimulus","slider_start","participant"
"397.89999985694885","i","choice","right","i","practice","10","212113","0.0-4.0-8.0","true","1","4.25","","",""
"2846.0999999046326","e","choice","left","e","practice","18","217290","0.0-4.0-8.1","true","2","4.25","","",""
"677.5999999046326","i","choice","left","e","practice","26","220307","0.0-4.0-8.2","false","3","3.85","","",""
"2697.2000000476837","e","choice","right","i","practice","34","225330","0.0-4.0-8.3","false","4","4.25","","",""
"1070","e","choice","right","i","practice","42","228727","0.0-4.0-8.4","false","5","4.65","","",""
"2495.5999999046326","e","choice","left","e","practice","50","233567","0.0-4.0-8.5","true","6","5.050000000000001","","",""
"6157.5","i","choice","right","i","practice","58","242082","0.0-4.0-8.6","true","7","5.050000000000001","","",""
"929.2000000476837","e","choice","left","e","practice","66","245334","0.0-4.0-8.7","true","8","4.8500000000000005","","",""
"168.29999995231628","e","choice","left","e","practice","74","247850","0.0-4.0-8.8","true","9","4.8500000000000005","","",""
"3343.5","i","choice","right","i","practice","82","253513","0.0-4.0-8.9","true","10","4.65","","",""
"944.5","i","choice","right","i","practice","90","256780","0.0-4.0-8.10","true","11","4.65","","",""
"147.89999985694885","e","choice","left","e","practice","98","259257","0.0-4.0-8.11","true","12","4.550000000000001","","",""
"309.2000000476837","i","choice","right","i","practice","106","261871","0.0-4.0-8.12","true","13","4.550000000000001","","",""
"2.3999998569488525","e","choice","left","e","practice","114","264199","0.0-4.0-8.13","true","14","4.450000000000001","","",""
"43.5","e","choice","left","e","practice","122","266584","0.0-4.0-8.14","true","15","4.450000000000001","","",""
"644.5999999046326","i","choice","right","i","practice","130","269574","0.0-4.0-8.15","true","16","4.350000000000001","","",""
"87.29999995231628","e","choice","left","e","practice","138","271963","0.0-4.0-8.16","true","17","4.350000000000001","","",""
"115","i","choice","right","i","practice","146","274404","0.0-4.0-8.17","true","18","4.250000000000002","","",""
"78.39999985694885","e","choice","left","e","practice","154","276818","0.0-4.0-8.18","true","19","4.250000000000002","","",""
"300.89999985694885","i","choice","right","i","practice","162","279445","0.0-4.0-8.19","true","20","4.150000000000002","","",""
"141.39999985694885","i","choice","right","i","practice","170","281907","0.0-4.0-8.20","true","21","4.150000000000002","","",""
"469.89999985694885","i","choice","left","e","practice","178","284697","0.0-4.0-8.21","false","22","4.0500000000000025","","",""
"110.79999995231628","e","choice","left","e","practice","186","287129","0.0-4.0-8.22","true","23","4.150000000000002","","",""
"201.29999995231628","i","choice","right","i","practice","194","289643","0.0-4.0-8.23","true","24","4.150000000000002","","",""
"722.2000000476837","i","choice","right","i","practice","202","292696","0.0-4.0-8.24","true","25","4.0500000000000025","","",""
"480.10000014305115","e","choice","left","e","practice","210","295506","0.0-4.0-8.25","true","26","4.0500000000000025","","",""
"374","e","choice","left","e","experimental","221","322912","0.0-4.0-8.26","true","27","3.9500000000000024","","",""
"11859.700000047684","5","confid","","","html-slider-response","223","335278","0.0-4.0-10.26-0.26","","","","Rate your confidence","1",""
"277.7000000476837","i","choice","right","i","experimental","230","337395","0.0-4.0-8.27","true","28","3.9500000000000024","","",""
"3966.2999999523163","4","confid","","","html-slider-response","232","341867","0.0-4.0-10.27-0.27","","","","Rate your confidence","1",""
"707.5","i","choice","right","i","experimental","239","344411","0.0-4.0-8.28","true","29","3.8500000000000023","","",""
"8039.200000047684","2","confid","","","html-slider-response","241","352956","0.0-4.0-10.28-0.28","","","","Rate your confidence","1",""
"107.59999990463257","e","choice","left","e","experimental","248","354883","0.0-4.0-8.29","true","30","3.8500000000000023","","",""
"5321.5","4","confid","","","html-slider-response","250","360713","0.0-4.0-10.29-0.29","","","","Rate your confidence","1",""
"10.799999952316284","e","choice","left","e","experimental","257","362553","0.0-4.0-8.30","true","31","3.750000000000002","","",""
"3178.100000143051","5","confid","","","html-slider-response","259","366241","0.0-4.0-10.30-0.30","","","","Rate your confidence","1",""
"351.7000000476837","i","choice","right","i","experimental","266","368413","0.0-4.0-8.31","true","32","3.750000000000002","","",""
"4950.299999952316","4","confid","","","html-slider-response","268","373874","0.0-4.0-10.31-0.31","","","","Rate your confidence","1",""
"617.5999999046326","e","choice","left","e","experimental","275","376298","0.0-4.0-8.32","true","33","3.650000000000002","","",""
"3471.100000143051","5","confid","","","html-slider-response","277","380279","0.0-4.0-10.32-0.32","","","","Rate your confidence","1",""
"341.5","i","choice","right","i","experimental","284","382446","0.0-4.0-8.33","true","34","3.650000000000002","","",""
"4704.299999952316","4","confid","","","html-slider-response","286","387660","0.0-4.0-10.33-0.33","","","","Rate your confidence","1",""
"308","e","choice","left","e","experimental","293","389794","0.0-4.0-8.34","true","35","3.550000000000002","","",""
"2969.100000143051","3","confid","","","html-slider-response","295","393270","0.0-4.0-10.34-0.34","","","","Rate your confidence","1",""
"367.7000000476837","e","choice","right","i","experimental","302","395455","0.0-4.0-8.35","false","36","3.550000000000002","","",""
"3089","3","confid","","","html-slider-response","304","399052","0.0-4.0-10.35-0.35","","","","Rate your confidence","1",""
"829.1999998092651","i","choice","right","i","experimental","311","401700","0.0-4.0-8.36","true","37","3.650000000000002","","",""
"6460.400000095367","3","confid","","","html-slider-response","313","408670","0.0-4.0-10.36-0.36","","","","Rate your confidence","1",""
"394.7000000476837","e","choice","left","e","experimental","320","410875","0.0-4.0-8.37","true","38","3.650000000000002","","",""
"4840.5","4","confid","","","html-slider-response","322","416236","0.0-4.0-10.37-0.37","","","","Rate your confidence","1",""
"349.10000014305115","e","choice","left","e","experimental","329","418398","0.0-4.0-8.38","true","39","3.550000000000002","","",""
"2981.5999999046326","3","confid","","","html-slider-response","331","421900","0.0-4.0-10.38-0.38","","","","Rate your confidence","1",""
"304.2999999523163","i","choice","right","i","experimental","338","424017","0.0-4.0-8.39","true","40","3.550000000000002","","",""
"4309.400000095367","3","confid","","","html-slider-response","340","428840","0.0-4.0-10.39-0.39","","","","Rate your confidence","1",""
"394.5","e","choice","left","e","experimental","347","431042","0.0-4.0-8.40","true","41","3.450000000000002","","",""
"2936.9000000953674","3","confid","","","html-slider-response","349","434489","0.0-4.0-10.40-0.40","","","","Rate your confidence","1",""
"273.2999999523163","i","choice","right","i","experimental","356","436592","0.0-4.0-8.41","true","42","3.450000000000002","","",""
"5062","4","confid","","","html-slider-response","358","442162","0.0-4.0-10.41-0.41","","","","Rate your confidence","1",""
"84.60000014305115","e","choice","left","e","experimental","365","444058","0.0-4.0-8.42","true","43","3.350000000000002","","",""
"3061.2999999523163","4","confid","","","html-slider-response","367","447637","0.0-4.0-10.42-0.42","","","","Rate your confidence","1",""
"44.19999980926514","i","choice","right","i","experimental","374","449489","0.0-4.0-8.43","true","44","3.350000000000002","","",""
"3144.5","2","confid","","","html-slider-response","376","453144","0.0-4.0-10.43-0.43","","","","Rate your confidence","1",""
"31.200000047683716","i","choice","right","i","experimental","383","454988","0.0-4.0-8.44","true","45","3.2500000000000018","","",""
"10556.899999856949","3","confid","","","html-slider-response","385","466059","0.0-4.0-10.44-0.44","","","","Rate your confidence","1",""
"349.59999990463257","i","choice","left","e","experimental","392","468246","0.0-4.0-8.45","false","46","3.2500000000000018","","",""
"3582.5","2","confid","","","html-slider-response","394","472337","0.0-4.0-10.45-0.45","","","","Rate your confidence","1",""
"199.59999990463257","i","choice","right","i","experimental","401","474368","0.0-4.0-8.46","true","47","3.350000000000002","","",""
"3820.7999999523163","2","confid","","","html-slider-response","403","478695","0.0-4.0-10.46-0.46","","","","Rate your confidence","1",""
"222.89999985694885","e","choice","left","e","experimental","410","480742","0.0-4.0-8.47","true","48","3.350000000000002","","",""
"7721.899999856949","4","confid","","","html-slider-response","412","488975","0.0-4.0-10.47-0.47","","","","Rate your confidence","1",""
"592.3999998569489","e","choice","left","e","experimental","419","491391","0.0-4.0-8.48","true","49","3.2500000000000018","","",""
"16204","2","confid","","","html-slider-response","421","508105","0.0-4.0-10.48-0.48","","","","Rate your confidence","1",""
"311.7999999523163","i","choice","right","i","experimental","428","510237","0.0-4.0-8.49","true","50","3.2500000000000018","","",""
"5805.5","2","confid","","","html-slider-response","430","516555","0.0-4.0-10.49-0.49","","","","Rate your confidence","1",""
"232.20000004768372","e","choice","left","e","experimental","437","518620","0.0-4.0-8.50","true","51","3.1500000000000017","","",""
"14035.399999856949","3","confid","","","html-slider-response","439","533167","0.0-4.0-10.50-0.50","","","","Rate your confidence","1",""
"827.2999999523163","i","choice","right","i","experimental","446","535809","0.0-4.0-8.51","true","52","3.1500000000000017","","",""
"4340.599999904633","2","confid","","","html-slider-response","448","540660","0.0-4.0-10.51-0.51","","","","Rate your confidence","1",""
"826.7000000476837","e","choice","right","i","experimental","455","543297","0.0-4.0-8.52","false","53","3.0500000000000016","","",""
"5885","2","confid","","","html-slider-response","457","549698","0.0-4.0-10.52-0.52","","","","Rate your confidence","1",""
"313.5","i","choice","left","e","experimental","464","551834","0.0-4.0-8.53","false","54","3.1500000000000017","","",""
"8807.5","2","confid","","","html-slider-response","466","561150","0.0-4.0-10.53-0.53","","","","Rate your confidence","1",""
"125.79999995231628","e","choice","left","e","experimental","473","563092","0.0-4.0-8.54","true","55","3.2500000000000018","","",""
"3236.2999999523163","4","confid","","","html-slider-response","475","566838","0.0-4.0-10.54-0.54","","","","Rate your confidence","1",""
"484.90000009536743","i","choice","right","i","experimental","482","569141","0.0-4.0-8.55","true","56","3.2500000000000018","","",""
"3519.399999856949","3","confid","","","html-slider-response","484","573168","0.0-4.0-10.55-0.55","","","","Rate your confidence","1",""
"417.7000000476837","e","choice","left","e","experimental","491","575408","0.0-4.0-8.56","true","57","3.1500000000000017","","",""
"4789.200000047684","2","confid","","","html-slider-response","493","580703","0.0-4.0-10.56-0.56","","","","Rate your confidence","1",""
"514.7999999523163","i","choice","right","i","experimental","500","583029","0.0-4.0-8.57","true","58","3.1500000000000017","","",""
"3026.5","2","confid","","","html-slider-response","502","586562","0.0-4.0-10.57-0.57","","","","Rate your confidence","1",""
"443.89999985694885","e","choice","left","e","experimental","509","588823","0.0-4.0-8.58","true","59","3.0500000000000016","","",""
"3644.7999999523163","3","confid","","","html-slider-response","511","592972","0.0-4.0-10.58-0.58","","","","Rate your confidence","1",""
"106.5","i","choice","right","i","experimental","518","594901","0.0-4.0-8.59","true","60","3.0500000000000016","","",""
"4466","4","confid","","","html-slider-response","520","599875","0.0-4.0-10.59-0.59","","","","Rate your confidence","1",""
"97.20000004768372","e","choice","left","e","experimental","527","601799","0.0-4.0-8.60","true","61","2.9500000000000015","","",""
"3908.7999999523163","2","confid","","","html-slider-response","529","606212","0.0-4.0-10.60-0.60","","","","Rate your confidence","1",""
"287.39999985694885","i","choice","right","i","experimental","536","608323","0.0-4.0-8.61","true","62","2.9500000000000015","","",""
"3244.4000000953674","2","confid","","","html-slider-response","538","612077","0.0-4.0-10.61-0.61","","","","Rate your confidence","1",""
"910.2999999523163","i","choice","right","i","experimental","545","614819","0.0-4.0-8.62","true","63","2.8500000000000014","","",""
"3340.9000000953674","2","confid","","","html-slider-response","547","618666","0.0-4.0-10.62-0.62","","","","Rate your confidence","1",""
"389.40000009536743","e","choice","left","e","experimental","554","620857","0.0-4.0-8.63","true","64","2.8500000000000014","","",""
"4028.4000000953674","4","confid","","","html-slider-response","556","625393","0.0-4.0-10.63-0.63","","","","Rate your confidence","1",""
"418.39999985694885","i","choice","right","i","experimental","563","627616","0.0-4.0-8.64","true","65","2.7500000000000013","","",""
"3041.100000143051","2","confid","","","html-slider-response","565","631173","0.0-4.0-10.64-0.64","","","","Rate your confidence","1",""
"731.9000000953674","e","choice","left","e","experimental","572","633720","0.0-4.0-8.65","true","66","2.7500000000000013","","",""
"2777.4000000953674","4","confid","","","html-slider-response","574","637016","0.0-4.0-10.65-0.65","","","","Rate your confidence","1",""
"12.100000143051147","i","choice","left","e","experimental","581","638842","0.0-4.0-8.66","false","67","2.6500000000000012","","",""
"4166.400000095367","4","confid","","","html-slider-response","583","643513","0.0-4.0-10.66-0.66","","","","Rate your confidence","1",""
"517.0999999046326","i","choice","right","i","experimental","590","645835","0.0-4.0-8.67","true","68","2.7500000000000013","","",""
"4502.199999809265","3","confid","","","html-slider-response","592","650848","0.0-4.0-10.67-0.67","","","","Rate your confidence","1",""
"201.29999995231628","e","choice","left","e","experimental","600","669689","0.0-4.0-8.68","true","69","2.7500000000000013","","",""
"3063.100000143051","4","confid","","","html-slider-response","602","673260","0.0-4.0-10.68-0.68","","","","Rate your confidence","1",""
"424.7999999523163","e","choice","right","i","experimental","609","675523","0.0-4.0-8.69","false","70","2.6500000000000012","","",""
"3348.300000190735","4","confid","","","html-slider-response","611","679382","0.0-4.0-10.69-0.69","","","","Rate your confidence","1",""
"151","i","choice","right","i","experimental","618","681365","0.0-4.0-8.70","true","71","2.7500000000000013","","",""
"4593.899999856949","3","confid","","","html-slider-response","620","686473","0.0-4.0-10.70-0.70","","","","Rate your confidence","1",""
"142","i","choice","left","e","experimental","627","688432","0.0-4.0-8.71","false","72","2.7500000000000013","","",""
"2756.600000143051","4","confid","","","html-slider-response","629","691707","0.0-4.0-10.71-0.71","","","","Rate your confidence","1",""
"63.80000019073486","i","choice","left","e","experimental","636","693577","0.0-4.0-8.72","false","73","2.8500000000000014","","",""
"3480","3","confid","","","html-slider-response","638","697578","0.0-4.0-10.72-0.72","","","","Rate your confidence","1",""
"157.5","i","choice","right","i","experimental","645","699555","0.0-4.0-8.73","true","74","2.9500000000000015","","",""
"6347.900000095367","2","confid","","","html-slider-response","647","706412","0.0-4.0-10.73-0.73","","","","Rate your confidence","1",""
"469","e","choice","left","e","experimental","654","708693","0.0-4.0-8.74","true","75","2.9500000000000015","","",""
"3557.5","2","confid","","","html-slider-response","656","712768","0.0-4.0-10.74-0.74","","","","Rate your confidence","1",""
"734.0999999046326","i","choice","right","i","experimental","663","715331","0.0-4.0-8.75","true","76","2.8500000000000014","","",""
"3482.5","3","confid","","","html-slider-response","665","719329","0.0-4.0-10.75-0.75","","","","Rate your confidence","1",""
"417.40000009536743","i","choice","right","i","experimental","672","721574","0.0-4.0-8.76","true","77","2.8500000000000014","","",""
"3384.399999856949","2","confid","","","html-slider-response","674","725469","0.0-4.0-10.76-0.76","","","","Rate your confidence","1",""
"207.09999990463257","e","choice","left","e","experimental","681","727501","0.0-4.0-8.77","true","78","2.7500000000000013","","",""
"4351.599999904633","4","confid","","","html-slider-response","683","732359","0.0-4.0-10.77-0.77","","","","Rate your confidence","1",""
"349.10000014305115","i","choice","right","i","experimental","690","734518","0.0-4.0-8.78","true","79","2.7500000000000013","","",""
"3224.399999856949","3","confid","","","html-slider-response","692","738251","0.0-4.0-10.78-0.78","","","","Rate your confidence","1",""
"615.7999999523163","e","choice","left","e","experimental","699","740687","0.0-4.0-8.79","true","80","2.6500000000000012","","",""
"2913","4","confid","","","html-slider-response","701","744110","0.0-4.0-10.79-0.79","","","","Rate your confidence","1",""
"346.69999980926514","e","choice","left","e","experimental","708","746267","0.0-4.0-8.80","true","81","2.6500000000000012","","",""
"4389.400000095367","3","confid","","","html-slider-response","710","751163","0.0-4.0-10.80-0.80","","","","Rate your confidence","1",""
"278.2999999523163","i","choice","right","i","experimental","717","753261","0.0-4.0-8.81","true","82","2.550000000000001","","",""
"6566.900000095367","4","confid","","","html-slider-response","719","760338","0.0-4.0-10.81-0.81","","","","Rate your confidence","1",""
"401.2999999523163","e","choice","right","i","experimental","726","762551","0.0-4.0-8.82","false","83","2.550000000000001","","",""
"4202.5","3","confid","","","html-slider-response","728","767257","0.0-4.0-10.82-0.82","","","","Rate your confidence","1",""
"258.40000009536743","i","choice","left","e","experimental","735","769336","0.0-4.0-8.83","false","84","2.6500000000000012","","",""
"4130.599999904633","3","confid","","","html-slider-response","737","773980","0.0-4.0-10.83-0.83","","","","Rate your confidence","1",""
"383.90000009536743","i","choice","right","i","experimental","744","776190","0.0-4.0-8.84","true","85","2.7500000000000013","","",""
"2999.4000000953674","3","confid","","","html-slider-response","746","779696","0.0-4.0-10.84-0.84","","","","Rate your confidence","1",""
"150.70000004768372","e","choice","left","e","experimental","753","781665","0.0-4.0-8.85","true","86","2.7500000000000013","","",""
"2865","4","confid","","","html-slider-response","755","785041","0.0-4.0-10.85-0.85","","","","Rate your confidence","1",""
"77.79999995231628","e","choice","right","i","experimental","762","786929","0.0-4.0-8.86","false","87","2.6500000000000012","","",""
"2782.199999809265","3","confid","","","html-slider-response","764","790217","0.0-4.0-10.86-0.86","","","","Rate your confidence","1",""
"503.7000000476837","e","choice","left","e","experimental","771","792533","0.0-4.0-8.87","true","88","2.7500000000000013","","",""
"7858","2","confid","","","html-slider-response","773","800896","0.0-4.0-10.87-0.87","","","","Rate your confidence","1",""
"387.7000000476837","e","choice","right","i","experimental","780","803103","0.0-4.0-8.88","false","89","2.7500000000000013","","",""
"3861.600000143051","3","confid","","","html-slider-response","782","807486","0.0-4.0-10.88-0.88","","","","Rate your confidence","1",""
"40.299999952316284","e","choice","left","e","experimental","789","809352","0.0-4.0-8.89","true","90","2.8500000000000014","","",""
"2714.7999999523163","4","confid","","","html-slider-response","791","812581","0.0-4.0-10.89-0.89","","","","Rate your confidence","1",""
"298","i","choice","right","i","experimental","798","814708","0.0-4.0-8.90","true","91","2.8500000000000014","","",""
"8307.599999904633","3","confid","","","html-slider-response","800","823526","0.0-4.0-10.90-0.90","","","","Rate your confidence","1",""
"157.20000004768372","e","choice","left","e","experimental","807","825500","0.0-4.0-8.91","true","92","2.7500000000000013","","",""
"4384.899999856949","3","confid","","","html-slider-response","809","830397","0.0-4.0-10.91-0.91","","","","Rate your confidence","1",""
"34.89999985694885","i","choice","left","e","experimental","816","832258","0.0-4.0-8.92","false","93","2.7500000000000013","","",""
"3216.2999999523163","3","confid","","","html-slider-response","818","835980","0.0-4.0-10.92-0.92","","","","Rate your confidence","1",""
"70.39999985694885","i","choice","right","i","experimental","825","837867","0.0-4.0-8.93","true","94","2.8500000000000014","","",""
"2798.5999999046326","3","confid","","","html-slider-response","827","841170","0.0-4.0-10.93-0.93","","","","Rate your confidence","1",""
"312.2999999523163","e","choice","left","e","experimental","834","843287","0.0-4.0-8.94","true","95","2.8500000000000014","","",""
"3011","2","confid","","","html-slider-response","836","846815","0.0-4.0-10.94-0.94","","","","Rate your confidence","1",""
"65.20000004768372","i","choice","right","i","experimental","843","848709","0.0-4.0-8.95","true","96","2.7500000000000013","","",""
"5737","4","confid","","","html-slider-response","845","854957","0.0-4.0-10.95-0.95","","","","Rate your confidence","1",""
"48.299999952316284","e","choice","right","i","experimental","852","856839","0.0-4.0-8.96","false","97","2.7500000000000013","","",""
"3114.2000000476837","3","confid","","","html-slider-response","854","860458","0.0-4.0-10.96-0.96","","","","Rate your confidence","1",""
"441.80000019073486","e","choice","left","e","experimental","861","862717","0.0-4.0-8.97","true","98","2.8500000000000014","","",""
"3321.7000000476837","4","confid","","","html-slider-response","863","866548","0.0-4.0-10.97-0.97","","","","Rate your confidence","1",""
"179.19999980926514","i","choice","right","i","experimental","870","868566","0.0-4.0-8.98","true","99","2.8500000000000014","","",""
"4837.399999856949","2","confid","","","html-slider-response","872","873907","0.0-4.0-10.98-0.98","","","","Rate your confidence","1",""
"107.90000009536743","e","choice","left","e","experimental","879","875840","0.0-4.0-8.99","true","100","2.7500000000000013","","",""
"3749.300000190735","3","confid","","","html-slider-response","881","880100","0.0-4.0-10.99-0.99","","","","Rate your confidence","1",""
"67","i","choice","right","i","experimental","888","881997","0.0-4.0-8.100","true","101","2.7500000000000013","","",""
"6614.5","3","confid","","","html-slider-response","890","889125","0.0-4.0-10.100-0.100","","","","Rate your confidence","1",""
"124.80000019073486","e","choice","left","e","experimental","897","891056","0.0-4.0-8.101","true","102","2.6500000000000012","","",""
"4045.399999856949","3","confid","","","html-slider-response","899","895617","0.0-4.0-10.101-0.101","","","","Rate your confidence","1",""
"115.5","i","choice","left","e","experimental","906","897555","0.0-4.0-8.102","false","103","2.6500000000000012","","",""
"3693.399999856949","4","confid","","","html-slider-response","908","901762","0.0-4.0-10.102-0.102","","","","Rate your confidence","1",""
"408.40000009536743","i","choice","right","i","experimental","915","903967","0.0-4.0-8.103","true","104","2.7500000000000013","","",""
"4780.199999809265","2","confid","","","html-slider-response","917","909254","0.0-4.0-10.103-0.103","","","","Rate your confidence","1",""
"141","e","choice","left","e","experimental","924","911221","0.0-4.0-8.104","true","105","2.7500000000000013","","",""
"13927.200000047684","4","confid","","","html-slider-response","926","925664","0.0-4.0-10.104-0.104","","","","Rate your confidence","1",""
"206","e","choice","right","i","experimental","933","927686","0.0-4.0-8.105","false","106","2.6500000000000012","","",""
"2765.9000000953674","3","confid","","","html-slider-response","935","930966","0.0-4.0-10.105-0.105","","","","Rate your confidence","1",""
"120.90000009536743","e","choice","left","e","experimental","942","932923","0.0-4.0-8.106","true","107","2.7500000000000013","","",""
"2143.199999809265","4","confid","","","html-slider-response","944","935576","0.0-4.0-10.106-0.106","","","","Rate your confidence","1",""
"89.5","i","choice","right","i","experimental","951","937480","0.0-4.0-8.107","true","108","2.7500000000000013","","",""
"3158.899999856949","3","confid","","","html-slider-response","953","941150","0.0-4.0-10.107-0.107","","","","Rate your confidence","1",""
"801","i","choice","left","e","experimental","960","943755","0.0-4.0-8.108","false","109","2.6500000000000012","","",""
"3259","3","confid","","","html-slider-response","962","947523","0.0-4.0-10.108-0.108","","","","Rate your confidence","1",""
"351.2999999523163","i","choice","right","i","experimental","969","949684","0.0-4.0-8.109","true","110","2.7500000000000013","","",""
"3152.7000000476837","3","confid","","","html-slider-response","971","953347","0.0-4.0-10.109-0.109","","","","Rate your confidence","1",""
"151.70000004768372","i","choice","right","i","experimental","979","958073","0.0-4.0-8.110","true","111","2.7500000000000013","","",""
"4482.400000095367","5","confid","","","html-slider-response","981","963069","0.0-4.0-10.110-0.110","","","","Rate your confidence","1",""
"144.70000004768372","e","choice","left","e","experimental","988","965033","0.0-4.0-8.111","true","112","2.6500000000000012","","",""
"3664.2999999523163","4","confid","","","html-slider-response","990","969203","0.0-4.0-10.111-0.111","","","","Rate your confidence","1",""
"2.6000001430511475","e","choice","left","e","experimental","997","971034","0.0-4.0-8.112","true","113","2.6500000000000012","","",""
"2887.5999999046326","4","confid","","","html-slider-response","999","974427","0.0-4.0-10.112-0.112","","","","Rate your confidence","1",""
"66","e","choice","right","i","experimental","1006","976301","0.0-4.0-8.113","false","114","2.550000000000001","","",""
"2371.9000000953674","5","confid","","","html-slider-response","1008","979181","0.0-4.0-10.113-0.113","","","","Rate your confidence","1",""
"3.1999998092651367","i","choice","right","i","experimental","1015","980995","0.0-4.0-8.114","true","115","2.6500000000000012","","",""
"2679.7000000476837","5","confid","","","html-slider-response","1017","984188","0.0-4.0-10.114-0.114","","","","Rate your confidence","1",""
"516.3999998569489","i","choice","left","e","experimental","1024","986525","0.0-4.0-8.115","false","116","2.6500000000000012","","",""
"3477.9000000953674","3","confid","","","html-slider-response","1026","990512","0.0-4.0-10.115-0.115","","","","Rate your confidence","1",""
"221.89999985694885","i","choice","right","i","experimental","1033","992559","0.0-4.0-8.116","true","117","2.7500000000000013","","",""
"4883.899999856949","3","confid","","","html-slider-response","1035","997961","0.0-4.0-10.116-0.116","","","","Rate your confidence","1",""
"35.59999990463257","e","choice","left","e","experimental","1042","999812","0.0-4.0-8.117","true","118","2.7500000000000013","","",""
"5548.599999904633","5","confid","","","html-slider-response","1044","1005871","0.0-4.0-10.117-0.117","","","","Rate your confidence","1",""
"78.79999995231628","e","choice","right","i","experimental","1051","1007762","0.0-4.0-8.118","false","119","2.6500000000000012","","",""
"2586.899999856949","4","confid","","","html-slider-response","1053","1010864","0.0-4.0-10.118-0.118","","","","Rate your confidence","1",""
"21.5","e","choice","left","e","experimental","1060","1012700","0.0-4.0-8.119","true","120","2.7500000000000013","","",""
"7367.299999952316","3","confid","","","html-slider-response","1062","1020578","0.0-4.0-10.119-0.119","","","","Rate your confidence","1",""
"246.90000009536743","i","choice","right","i","experimental","1069","1022643","0.0-4.0-8.120","true","121","2.7500000000000013","","",""
"2551.5","3","confid","","","html-slider-response","1071","1025708","0.0-4.0-10.120-0.120","","","","Rate your confidence","1",""
"452.7000000476837","e","choice","left","e","experimental","1078","1027993","0.0-4.0-8.121","true","122","2.6500000000000012","","",""
"2283.2000000476837","4","confid","","","html-slider-response","1080","1030784","0.0-4.0-10.121-0.121","","","","Rate your confidence","1",""
"91.79999995231628","i","choice","right","i","experimental","1087","1032696","0.0-4.0-8.122","true","123","2.6500000000000012","","",""
"2715.2000000476837","3","confid","","","html-slider-response","1089","1035921","0.0-4.0-10.122-0.122","","","","Rate your confidence","1",""
"165","e","choice","left","e","experimental","1096","1037896","0.0-4.0-8.123","true","124","2.550000000000001","","",""
"3508.7000000476837","4","confid","","","html-slider-response","1098","1041923","0.0-4.0-10.123-0.123","","","","Rate your confidence","1",""
"51.5","e","choice","left","e","experimental","1105","1043797","0.0-4.0-8.124","true","125","2.550000000000001","","",""
"2725.5","4","confid","","","html-slider-response","1107","1047029","0.0-4.0-10.124-0.124","","","","Rate your confidence","1",""
"411","e","choice","right","i","experimental","1114","1049256","0.0-4.0-8.125","false","126","2.450000000000001","","",""
"2757.5999999046326","3","confid","","","html-slider-response","1116","1052521","0.0-4.0-10.125-0.125","","","","Rate your confidence","1",""
"70.39999985694885","e","choice","left","e","experimental","1123","1054402","0.0-4.0-8.126","true","127","2.550000000000001","","",""
"5677.900000095367","5","confid","","","html-slider-response","1125","1060597","0.0-4.0-10.126-0.126","","","","Rate your confidence","1",""
"1356.5","e","choice","right","i","experimental","1132","1063757","0.0-4.0-8.127","false","128","2.550000000000001","","",""
"6001.200000047684","4","confid","","","html-slider-response","1134","1070277","0.0-4.0-10.127-0.127","","","","Rate your confidence","1",""
"91.40000009536743","i","choice","right","i","experimental","1141","1072199","0.0-4.0-8.128","true","129","2.6500000000000012","","",""
"5070.5","3","confid","","","html-slider-response","1143","1077778","0.0-4.0-10.128-0.128","","","","Rate your confidence","1",""
"82.70000004768372","e","choice","left","e","experimental","1150","1079674","0.0-4.0-8.129","true","130","2.6500000000000012","","",""
"4157.200000047684","3","confid","","","html-slider-response","1152","1084340","0.0-4.0-10.129-0.129","","","","Rate your confidence","1",""
"268.5","e","choice","left","e","experimental","1159","1086426","0.0-4.0-8.130","true","131","2.550000000000001","","",""
"5035.400000095367","3","confid","","","html-slider-response","1161","1091975","0.0-4.0-10.130-0.130","","","","Rate your confidence","1",""
"54.5","i","choice","right","i","experimental","1168","1093835","0.0-4.0-8.131","true","132","2.550000000000001","","",""
"3273.2999999523163","3","confid","","","html-slider-response","1170","1097614","0.0-4.0-10.131-0.131","","","","Rate your confidence","1",""
"767.7999999523163","e","choice","left","e","experimental","1177","1100218","0.0-4.0-8.132","true","133","2.450000000000001","","",""
"2797.699999809265","4","confid","","","html-slider-response","1179","1103531","0.0-4.0-10.132-0.132","","","","Rate your confidence","1",""
"65.40000009536743","i","choice","right","i","experimental","1186","1105411","0.0-4.0-8.133","true","134","2.450000000000001","","",""
"2937.0999999046326","3","confid","","","html-slider-response","1188","1108860","0.0-4.0-10.133-0.133","","","","Rate your confidence","1",""
"403.2000000476837","i","choice","right","i","experimental","1195","1111072","0.0-4.0-8.134","true","135","2.350000000000001","","",""
"2615","3","confid","","","html-slider-response","1197","1114197","0.0-4.0-10.134-0.134","","","","Rate your confidence","1",""
"114.5","e","choice","left","e","experimental","1204","1116145","0.0-4.0-8.135","true","136","2.350000000000001","","",""
"2906.2999999523163","3","confid","","","html-slider-response","1206","1119560","0.0-4.0-10.135-0.135","","","","Rate your confidence","1",""
"79.5","e","choice","left","e","experimental","1213","1121450","0.0-4.0-8.136","true","137","2.250000000000001","","",""
"2362.2000000476837","4","confid","","","html-slider-response","1215","1124326","0.0-4.0-10.136-0.136","","","","Rate your confidence","1",""
"352.39999985694885","e","choice","right","i","experimental","1222","1126486","0.0-4.0-8.137","false","138","2.250000000000001","","",""
"3371.100000143051","3","confid","","","html-slider-response","1224","1130364","0.0-4.0-10.137-0.137","","","","Rate your confidence","1",""
"448.09999990463257","i","choice","right","i","experimental","1231","1132618","0.0-4.0-8.138","true","139","2.350000000000001","","",""
"2770.899999856949","3","confid","","","html-slider-response","1233","1135909","0.0-4.0-10.138-0.138","","","","Rate your confidence","1",""
"119.79999995231628","i","choice","left","e","experimental","1240","1137849","0.0-4.0-8.139","false","140","2.350000000000001","","",""
"4120.299999952316","3","confid","","","html-slider-response","1242","1142480","0.0-4.0-10.139-0.139","","","","Rate your confidence","1",""
"514.6999998092651","i","choice","left","e","experimental","1249","1144804","0.0-4.0-8.140","false","141","2.450000000000001","","",""
"4721.5","3","confid","","","html-slider-response","1251","1150037","0.0-4.0-10.140-0.140","","","","Rate your confidence","1",""
"297","e","choice","right","i","experimental","1258","1152146","0.0-4.0-8.141","false","142","2.550000000000001","","",""
"9416.599999904633","3","confid","","","html-slider-response","1260","1162072","0.0-4.0-10.141-0.141","","","","Rate your confidence","1",""
"443.40000009536743","i","choice","right","i","experimental","1267","1164326","0.0-4.0-8.142","true","143","2.6500000000000012","","",""
"3368.300000190735","3","confid","","","html-slider-response","1269","1168208","0.0-4.0-10.142-0.142","","","","Rate your confidence","1",""
"74.5","e","choice","left","e","experimental","1276","1170096","0.0-4.0-8.143","true","144","2.6500000000000012","","",""
"3514.7000000476837","3","confid","","","html-slider-response","1278","1174126","0.0-4.0-10.143-0.143","","","","Rate your confidence","1",""
"455","i","choice","right","i","experimental","1285","1176396","0.0-4.0-8.144","true","145","2.550000000000001","","",""
"6045.800000190735","2","confid","","","html-slider-response","1287","1182949","0.0-4.0-10.144-0.144","","","","Rate your confidence","1",""
"115.70000004768372","e","choice","left","e","experimental","1294","1184872","0.0-4.0-8.145","true","146","2.550000000000001","","",""
"2175.899999856949","4","confid","","","html-slider-response","1296","1187561","0.0-4.0-10.145-0.145","","","","Rate your confidence","1",""
"201.09999990463257","i","choice","left","e","experimental","1303","1189564","0.0-4.0-8.146","false","147","2.450000000000001","","",""
"5090","3","confid","","","html-slider-response","1305","1195159","0.0-4.0-10.146-0.146","","","","Rate your confidence","1",""
"1217.1000001430511","i","choice","right","i","experimental","1312","1198177","0.0-4.0-8.147","true","148","2.550000000000001","","",""
"2361.699999809265","3","confid","","","html-slider-response","1314","1201055","0.0-4.0-10.147-0.147","","","","Rate your confidence","1",""
"1256.7999999523163","i","choice","right","i","experimental","1321","1204137","0.0-4.0-8.148","true","149","2.550000000000001","","",""
"3271.2999999523163","3","confid","","","html-slider-response","1323","1207920","0.0-4.0-10.148-0.148","","","","Rate your confidence","1",""
"118.79999995231628","e","choice","left","e","experimental","1330","1209867","0.0-4.0-8.149","true","150","2.450000000000001","","",""
"5075.599999904633","4","confid","","","html-slider-response","1332","1215448","0.0-4.0-10.149-0.149","","","","Rate your confidence","1",""
"427.5","i","choice","left","e","experimental","1339","1217689","0.0-4.0-8.150","false","151","2.450000000000001","","",""
"3180","3","confid","","","html-slider-response","1341","1221381","0.0-4.0-10.150-0.150","","","","Rate your confidence","1",""
"64.79999995231628","e","choice","right","i","experimental","1348","1223255","0.0-4.0-8.151","false","152","2.550000000000001","","",""
"3357.7999999523163","4","confid","","","html-slider-response","1350","1227132","0.0-4.0-10.151-0.151","","","","Rate your confidence","1",""
"96.40000009536743","i","choice","right","i","experimental","1358","1230998","0.0-4.0-8.152","true","153","2.6500000000000012","","",""
"3380.2000000476837","3","confid","","","html-slider-response","1360","1234891","0.0-4.0-10.152-0.152","","","","Rate your confidence","1",""
"222.79999995231628","e","choice","left","e","experimental","1367","1236936","0.0-4.0-8.153","true","154","2.6500000000000012","","",""
"2130.5999999046326","4","confid","","","html-slider-response","1369","1239572","0.0-4.0-10.153-0.153","","","","Rate your confidence","1",""
"310.7999999523163","i","choice","left","e","experimental","1376","1241671","0.0-4.0-8.154","false","155","2.550000000000001","","",""
"2723.5","3","confid","","","html-slider-response","1378","1244912","0.0-4.0-10.154-0.154","","","","Rate your confidence","1",""
"15","e","choice","right","i","experimental","1385","1246756","0.0-4.0-8.155","false","156","2.6500000000000012","","",""
"3046","3","confid","","","html-slider-response","1387","1250318","0.0-4.0-10.155-0.155","","","","Rate your confidence","1",""
"131.79999995231628","e","choice","left","e","experimental","1394","1252281","0.0-4.0-8.156","true","157","2.7500000000000013","","",""
"3060.7999999523163","4","confid","","","html-slider-response","1396","1255850","0.0-4.0-10.156-0.156","","","","Rate your confidence","1",""
"104","e","choice","right","i","experimental","1403","1257770","0.0-4.0-8.157","false","158","2.7500000000000013","","",""
"2745.800000190735","3","confid","","","html-slider-response","1405","1261026","0.0-4.0-10.157-0.157","","","","Rate your confidence","1",""
"433.2999999523163","i","choice","left","e","experimental","1412","1263275","0.0-4.0-8.158","false","159","2.8500000000000014","","",""
"3154.7999999523163","4","confid","","","html-slider-response","1414","1266942","0.0-4.0-10.158-0.158","","","","Rate your confidence","1",""
"27.5","i","choice","right","i","experimental","1421","1268792","0.0-4.0-8.159","true","160","2.9500000000000015","","",""
"2931.100000143051","3","confid","","","html-slider-response","1423","1272234","0.0-4.0-10.159-0.159","","","","Rate your confidence","1",""
"164.5","e","choice","right","i","experimental","1430","1274206","0.0-4.0-8.160","false","161","2.9500000000000015","","",""
"3197.800000190735","4","confid","","","html-slider-response","1432","1277916","0.0-4.0-10.160-0.160","","","","Rate your confidence","1",""
"148.70000004768372","e","choice","left","e","experimental","1439","1279873","0.0-4.0-8.161","true","162","3.0500000000000016","","",""
"3538.2000000476837","3","confid","","","html-slider-response","1441","1283915","0.0-4.0-10.161-0.161","","","","Rate your confidence","1",""
"122.70000004768372","i","choice","right","i","experimental","1448","1285856","0.0-4.0-8.162","true","163","3.0500000000000016","","",""
"2459.2000000476837","3","confid","","","html-slider-response","1450","1288825","0.0-4.0-10.162-0.162","","","","Rate your confidence","1",""
"204.89999985694885","e","choice","left","e","experimental","1457","1290849","0.0-4.0-8.163","true","164","2.9500000000000015","","",""
"2968.9000000953674","3","confid","","","html-slider-response","1459","1294327","0.0-4.0-10.163-0.163","","","","Rate your confidence","1",""
"122.80000019073486","e","choice","left","e","experimental","1466","1296260","0.0-4.0-8.164","true","165","2.9500000000000015","","",""
"11710.700000047684","3","confid","","","html-slider-response","1468","1308478","0.0-4.0-10.164-0.164","","","","Rate your confidence","1",""
"0.6000001430511475","i","choice","right","i","experimental","1475","1310293","0.0-4.0-8.165","true","166","2.8500000000000014","","",""
"8498.799999952316","4","confid","","","html-slider-response","1477","1319309","0.0-4.0-10.165-0.165","","","","Rate your confidence","1",""
"499","i","choice","right","i","experimental","1484","1321643","0.0-4.0-8.166","true","167","2.8500000000000014","","",""
"3305.800000190735","3","confid","","","html-slider-response","1486","1325467","0.0-4.0-10.166-0.166","","","","Rate your confidence","1",""
"199","e","choice","left","e","experimental","1493","1327498","0.0-4.0-8.167","true","168","2.7500000000000013","","",""
"4575.100000143051","3","confid","","","html-slider-response","1495","1332585","0.0-4.0-10.167-0.167","","","","Rate your confidence","1",""
"195.70000004768372","e","choice","left","e","experimental","1502","1334592","0.0-4.0-8.168","true","169","2.7500000000000013","","",""
"2968.399999856949","3","confid","","","html-slider-response","1504","1338069","0.0-4.0-10.168-0.168","","","","Rate your confidence","1",""
"109.89999985694885","i","choice","right","i","experimental","1511","1339985","0.0-4.0-8.169","true","170","2.6500000000000012","","",""
"3376.600000143051","3","confid","","","html-slider-response","1513","1343867","0.0-4.0-10.169-0.169","","","","Rate your confidence","1",""
"140.5","i","choice","left","e","experimental","1520","1345823","0.0-4.0-8.170","false","171","2.6500000000000012","","",""
"5083.099999904633","3","confid","","","html-slider-response","1522","1351415","0.0-4.0-10.170-0.170","","","","Rate your confidence","1",""
"175.40000009536743","i","choice","right","i","experimental","1529","1353406","0.0-4.0-8.171","true","172","2.7500000000000013","","",""
"3954.5","3","confid","","","html-slider-response","1531","1357870","0.0-4.0-10.171-0.171","","","","Rate your confidence","1",""
"38.60000014305115","i","choice","right","i","experimental","1538","1359726","0.0-4.0-8.172","true","173","2.7500000000000013","","",""
"3328.399999856949","3","confid","","","html-slider-response","1540","1363563","0.0-4.0-10.172-0.172","","","","Rate your confidence","1",""
"62.90000009536743","e","choice","left","e","experimental","1547","1365450","0.0-4.0-8.173","true","174","2.6500000000000012","","",""
"2559.7999999523163","3","confid","","","html-slider-response","1549","1368522","0.0-4.0-10.173-0.173","","","","Rate your confidence","1",""
"170.40000009536743","i","choice","right","i","experimental","1556","1370508","0.0-4.0-8.174","true","175","2.6500000000000012","","",""
"3081.5","4","confid","","","html-slider-response","1558","1374095","0.0-4.0-10.174-0.174","","","","Rate your confidence","1",""
"423.2999999523163","e","choice","left","e","experimental","1565","1376340","0.0-4.0-8.175","true","176","2.550000000000001","","",""
"2395.2999999523163","3","confid","","","html-slider-response","1567","1379246","0.0-4.0-10.175-0.175","","","","Rate your confidence","1",""
"7.299999952316284","i","choice","right","i","experimental","1574","1381058","0.0-4.0-8.176","true","177","2.550000000000001","","",""
"2805.600000143051","4","confid","","","html-slider-response","1576","1384381","0.0-4.0-10.176-0.176","","","","Rate your confidence","1",""
"301.89999985694885","i","choice","left","e","experimental","1583","1386510","0.0-4.0-8.177","false","178","2.450000000000001","","",""
"3374","2","confid","","","html-slider-response","1585","1390400","0.0-4.0-10.177-0.177","","","","Rate your confidence","1",""
"434.60000014305115","e","choice","right","i","experimental","1592","1392661","0.0-4.0-8.178","false","179","2.550000000000001","","",""
"2582","3","confid","","","html-slider-response","1594","1395746","0.0-4.0-10.178-0.178","","","","Rate your confidence","1",""
"627.7000000476837","e","choice","left","e","experimental","1601","1398188","0.0-4.0-8.179","true","180","2.6500000000000012","","",""
"4516.399999856949","3","confid","","","html-slider-response","1603","1403214","0.0-4.0-10.179-0.179","","","","Rate your confidence","1",""
"5.8999998569488525","i","choice","left","e","experimental","1610","1405021","0.0-4.0-8.180","false","181","2.6500000000000012","","",""
"2752.5","2","confid","","","html-slider-response","1612","1408283","0.0-4.0-10.180-0.180","","","","Rate your confidence","1",""
"739.2000000476837","e","choice","right","i","experimental","1619","1410836","0.0-4.0-8.181","false","182","2.7500000000000013","","",""
"7378.100000143051","2","confid","","","html-slider-response","1621","1418730","0.0-4.0-10.181-0.181","","","","Rate your confidence","1",""
"2.3999998569488525","i","choice","left","e","experimental","1628","1420546","0.0-4.0-8.182","false","183","2.8500000000000014","","",""
"3962.5999999046326","2","confid","","","html-slider-response","1630","1425015","0.0-4.0-10.182-0.182","","","","Rate your confidence","1",""
"78.80000019073486","i","choice","right","i","experimental","1637","1426908","0.0-4.0-8.183","true","184","2.9500000000000015","","",""
"5926.200000047684","2","confid","","","html-slider-response","1639","1433347","0.0-4.0-10.183-0.183","","","","Rate your confidence","1",""
"121","i","choice","left","e","experimental","1646","1435288","0.0-4.0-8.184","false","185","2.9500000000000015","","",""
"2997","2","confid","","","html-slider-response","1648","1438799","0.0-4.0-10.184-0.184","","","","Rate your confidence","1",""
"550.4000000953674","i","choice","right","i","experimental","1655","1441186","0.0-4.0-8.185","true","186","3.0500000000000016","","",""
"2779","3","confid","","","html-slider-response","1657","1444471","0.0-4.0-10.185-0.185","","","","Rate your confidence","1",""
"530","i","choice","right","i","experimental","1664","1446822","0.0-4.0-8.186","true","187","3.0500000000000016","","",""
"4601.5","3","confid","","","html-slider-response","1666","1451930","0.0-4.0-10.186-0.186","","","","Rate your confidence","1",""
"152.90000009536743","i","choice","left","e","experimental","1673","1453904","0.0-4.0-8.187","false","188","2.9500000000000015","","",""
"8581.100000143051","3","confid","","","html-slider-response","1675","1462995","0.0-4.0-10.187-0.187","","","","Rate your confidence","1",""
"242.40000009536743","i","choice","right","i","experimental","1682","1465052","0.0-4.0-8.188","true","189","3.0500000000000016","","",""
"3224.699999809265","3","confid","","","html-slider-response","1684","1468786","0.0-4.0-10.188-0.188","","","","Rate your confidence","1",""
"80","e","choice","left","e","experimental","1691","1470691","0.0-4.0-8.189","true","190","3.0500000000000016","","",""
"5765.5","3","confid","","","html-slider-response","1693","1476965","0.0-4.0-10.189-0.189","","","","Rate your confidence","1",""
"89.30000019073486","i","choice","right","i","experimental","1700","1478873","0.0-4.0-8.190","true","191","2.9500000000000015","","",""
"6272.699999809265","3","confid","","","html-slider-response","1702","1485653","0.0-4.0-10.190-0.190","","","","Rate your confidence","1",""
"227.5","e","choice","left","e","experimental","1709","1487698","0.0-4.0-8.191","true","192","2.9500000000000015","","",""
"4496.5","3","confid","","","html-slider-response","1711","1492706","0.0-4.0-10.191-0.191","","","","Rate your confidence","1",""
"128.10000014305115","i","choice","right","i","experimental","1718","1494652","0.0-4.0-8.192","true","193","2.8500000000000014","","",""
"3265.2999999523163","4","confid","","","html-slider-response","1720","1498433","0.0-4.0-10.192-0.192","","","","Rate your confidence","1",""
"50.30000019073486","e","choice","left","e","experimental","1727","1500312","0.0-4.0-8.193","true","194","2.8500000000000014","","",""
"3515.5999999046326","3","confid","","","html-slider-response","1729","1504346","0.0-4.0-10.193-0.193","","","","Rate your confidence","1","12194"
