"rt","response","task","target_side","correct_response","trial_type","trial_index","time_elapsed","internal_node_id","correct","trial_number","n_dots","stimulus","slider_start","participant"
"3009.60000000149","i","choice","right","i","practice","10","161131","0.0-4.0-8.0","true","1","4.25","","",""
"705.9000000003725","e","choice","left","e","practice","18","164145","0.0-4.0-8.1","true","2","4.25","","",""
"1131.4000000003725","i","choice","left","e","practice","26","167562","0.0-4.0-8.2","false","3","3.85","","",""
"1862.800000000745","e","choice","right","i","practice","34","171737","0.0-4.0-8.3","false","4","4.25","","",""
"601.0999999996275","i","choice","right","i","practice","42","174649","0.0-4.0-8.4","true","5","4.65","","",""
"532","e","choice","left","e","practice","50","177497","0.0-4.0-8.5","true","6","4.65","","",""
"1551.2000000011176","i","choice","right","i","practice","58","181361","0.0-4.0-8.6","true","7","4.45","","",""
"519.5","e","choice","left","e","practice","66","184158","0.0-4.0-8.7","true","8","4.45","","",""
"474.7000000011176","i","choice","right","i","practice","74","186935","0.0-4.0-8.8","true","9","4.25","","",""
"438.19999999925494","e","choice","left","e","practice","82","189694","0.0-4.0-8.9","true","10","4.25","","",""
"686.5","e","choice","left","e","practice","90","192674","0.0-4.0-8.10","true","11","4.05","","",""
"876.4000000003725","i","choice","right","i","practice","98","195836","0.0-4.0-8.11","true","12","4.05","","",""
"506.69999999925494","i","choice","right","i","practice","106","198654","0.0-4.0-8.12","true","13","3.9499999999999997","","",""
"1366.2000000011176","i","choice","left","e","practice","114","202336","0.0-4.0-8.13","false","14","3.9499999999999997","","",""
"683.6999999992549","e","choice","left","e","practice","122","205314","0.0-4.0-8.14","true","15","4.05","","",""
"912.1999999992549","i","choice","right","i","practice","130","208505","0.0-4.0-8.15","true","16","4.05","","",""
"396.59999999962747","e","choice","left","e","practice","138","211186","0.0-4.0-8.16","true","17","3.9499999999999997","","",""
"363.09999999962747","i","choice","right","i","practice","146","213844","0.0-4.0-8.17","true","18","3.9499999999999997","","",""
"522.5","e","choice","right","i","practice","154","216688","0.0-4.0-8.18","false","19","3.8499999999999996","","",""
"229.59999999962747","e","choice","left","e","practice","162","219201","0.0-4.0-8.19","true","20","3.9499999999999997","","",""
"341.59999999962747","e","choice","left","e","practice","170","221873","0.0-4.0-8.20","true","21","3.9499999999999997","","",""
"914.6999999992549","i","choice","right","i","practice","178","225098","0.0-4.0-8.21","true","22","3.8499999999999996","","",""
"795.4000000003725","e","choice","right","i","practice","186","228183","0.0-4.0-8.22","false","23","3.8499999999999996","","",""
"270.59999999962747","e","choice","left","e","practice","194","230736","0.0-4.0-8.23","true","24","3.9499999999999997","","",""
"432.40000000037253","i","choice","right","i","practice","202","233482","0.0-4.0-8.24","true","25","3.9499999999999997","","",""
"302.59999999962747","e","choice","left","e","practice","210","236070","0.0-4.0-8.25","true","26","3.8499999999999996","","",""
"339.30000000074506","i","choice","right","i","experimental","221","306764","0.0-4.0-8.26","true","27","3.8499999999999996","","",""
"5217.10000000149","5","confid","","","html-slider-response","223","312487","0.0-4.0-10.26-0.26","","","","Rate your confidence","1",""
"363.5","e","choice","left","e","experimental","230","314635","0.0-4.0-8.27","true","28","3.7499999999999996","","",""
"5614.0999999996275","5","confid","","","html-slider-response","232","320755","0.0-4.0-10.27-0.27","","","","Rate your confidence","1",""
"489.59999999962747","e","choice","left","e","experimental","239","323066","0.0-4.0-8.28","true","29","3.7499999999999996","","",""
"3645.199999999255","4","confid","","","html-slider-response","241","327215","0.0-4.0-10.28-0.28","","","","Rate your confidence","1",""
"3678.2000000011176","e","choice","right","i","experimental","248","332676","0.0-4.0-8.29","false","30","3.6499999999999995","","",""
"4277.199999999255","3","confid","","","html-slider-response","250","337458","0.0-4.0-10.29-0.29","","","","Rate your confidence","1",""
"815.3999999985099","e","choice","left","e","experimental","257","340060","0.0-4.0-8.30","true","31","3.7499999999999996","","",""
"3780.300000000745","3","confid","","","html-slider-response","259","344374","0.0-4.0-10.30-0.30","","","","Rate your confidence","1",""
"760","i","choice","right","i","experimental","266","346922","0.0-4.0-8.31","true","32","3.7499999999999996","","",""
"3791.199999999255","5","confid","","","html-slider-response","268","351218","0.0-4.0-10.31-0.31","","","","Rate your confidence","1",""
"635.1999999992549","e","choice","left","e","experimental","275","353668","0.0-4.0-8.32","true","33","3.6499999999999995","","",""
"3748.2999999988824","6","confid","","","html-slider-response","277","357923","0.0-4.0-10.32-0.32","","","","Rate your confidence","1",""
"700.3000000007451","e","choice","right","i","experimental","284","360415","0.0-4.0-8.33","false","34","3.6499999999999995","","",""
"3924.300000000745","3","confid","","","html-slider-response","286","364844","0.0-4.0-10.33-0.33","","","","Rate your confidence","1",""
"488.2999999988824","i","choice","right","i","experimental","293","367160","0.0-4.0-8.34","true","35","3.7499999999999996","","",""
"3143.800000000745","3","confid","","","html-slider-response","295","370813","0.0-4.0-10.34-0.34","","","","Rate your confidence","1",""
"830.9000000003725","e","choice","left","e","experimental","302","373434","0.0-4.0-8.35","true","36","3.7499999999999996","","",""
"3867","4","confid","","","html-slider-response","304","377806","0.0-4.0-10.35-0.35","","","","Rate your confidence","1",""
"736.2000000011176","i","choice","right","i","experimental","311","380331","0.0-4.0-8.36","true","37","3.6499999999999995","","",""
"3770.199999999255","3","confid","","","html-slider-response","313","384605","0.0-4.0-10.36-0.36","","","","Rate your confidence","1",""
"782.3000000007451","i","choice","left","e","experimental","320","387207","0.0-4.0-8.37","false","38","3.6499999999999995","","",""
"3064.699999999255","3","confid","","","html-slider-response","322","390778","0.0-4.0-10.37-0.37","","","","Rate your confidence","1",""
"626.8999999985099","i","choice","right","i","experimental","329","393219","0.0-4.0-8.38","true","39","3.7499999999999996","","",""
"2946.10000000149","3","confid","","","html-slider-response","331","396671","0.0-4.0-10.38-0.38","","","","Rate your confidence","1",""
"392.7999999988824","e","choice","left","e","experimental","338","398852","0.0-4.0-8.39","true","40","3.7499999999999996","","",""
"3059.699999999255","5","confid","","","html-slider-response","340","402447","0.0-4.0-10.39-0.39","","","","Rate your confidence","1",""
"322.8999999985099","e","choice","left","e","experimental","347","404552","0.0-4.0-8.40","true","41","3.6499999999999995","","",""
"3964.699999999255","6","confid","","","html-slider-response","349","409022","0.0-4.0-10.40-0.40","","","","Rate your confidence","1",""
"721.6999999992549","i","choice","right","i","experimental","356","411570","0.0-4.0-8.41","true","42","3.6499999999999995","","",""
"2823.9000000003725","3","confid","","","html-slider-response","358","414899","0.0-4.0-10.41-0.41","","","","Rate your confidence","1",""
"427.40000000037253","i","choice","right","i","experimental","365","417124","0.0-4.0-8.42","true","43","3.5499999999999994","","",""
"3913.0999999996275","6","confid","","","html-slider-response","367","421543","0.0-4.0-10.42-0.42","","","","Rate your confidence","1",""
"362.1000000014901","e","choice","left","e","experimental","374","423697","0.0-4.0-8.43","true","44","3.5499999999999994","","",""
"5562.5999999996275","4","confid","","","html-slider-response","376","429769","0.0-4.0-10.43-0.43","","","","Rate your confidence","1",""
"2060.39999999851","e","choice","left","e","experimental","383","433622","0.0-4.0-8.44","true","45","3.4499999999999993","","",""
"2516.0999999996275","2","confid","","","html-slider-response","385","436643","0.0-4.0-10.44-0.44","","","","Rate your confidence","1",""
"407.7000000011176","i","choice","right","i","experimental","392","438888","0.0-4.0-8.45","true","46","3.4499999999999993","","",""
"3804.699999999255","4","confid","","","html-slider-response","394","443196","0.0-4.0-10.45-0.45","","","","Rate your confidence","1",""
"106.5","e","choice","left","e","experimental","401","445113","0.0-4.0-8.46","true","47","3.349999999999999","","",""
"3424","4","confid","","","html-slider-response","403","449044","0.0-4.0-10.46-0.46","","","","Rate your confidence","1",""
"355.8999999985099","i","choice","right","i","experimental","410","451228","0.0-4.0-8.47","true","48","3.349999999999999","","",""
"2891.2999999988824","3","confid","","","html-slider-response","412","454624","0.0-4.0-10.47-0.47","","","","Rate your confidence","1",""
"44.5","e","choice","left","e","experimental","419","456456","0.0-4.0-8.48","true","49","3.249999999999999","","",""
"6311.5","4","confid","","","html-slider-response","421","463273","0.0-4.0-10.48-0.48","","","","Rate your confidence","1",""
"30.300000000745058","i","choice","right","i","experimental","428","465092","0.0-4.0-8.49","true","50","3.249999999999999","","",""
"4007.5","4","confid","","","html-slider-response","430","469605","0.0-4.0-10.49-0.49","","","","Rate your confidence","1",""
"650.7999999988824","i","choice","right","i","experimental","437","472074","0.0-4.0-8.50","true","51","3.149999999999999","","",""
"8093.5","4","confid","","","html-slider-response","439","480673","0.0-4.0-10.50-0.50","","","","Rate your confidence","1",""
"500","e","choice","left","e","experimental","446","482967","0.0-4.0-8.51","true","52","3.149999999999999","","",""
"6585.4000000003725","4","confid","","","html-slider-response","448","490059","0.0-4.0-10.51-0.51","","","","Rate your confidence","1",""
"271.59999999962747","e","choice","left","e","experimental","455","492144","0.0-4.0-8.52","true","53","3.049999999999999","","",""
"2944.2000000011176","4","confid","","","html-slider-response","457","495593","0.0-4.0-10.52-0.52","","","","Rate your confidence","1",""
"307","e","choice","right","i","experimental","464","497686","0.0-4.0-8.53","false","54","3.049999999999999","","",""
"3325.2999999988824","3","confid","","","html-slider-response","466","501517","0.0-4.0-10.53-0.53","","","","Rate your confidence","1",""
"354.90000000037253","e","choice","left","e","experimental","473","503664","0.0-4.0-8.54","true","55","3.149999999999999","","",""
"2640.199999999255","3","confid","","","html-slider-response","475","506810","0.0-4.0-10.54-0.54","","","","Rate your confidence","1",""
"795.5999999996275","i","choice","right","i","experimental","482","509434","0.0-4.0-8.55","true","56","3.149999999999999","","",""
"3259.7000000011176","2","confid","","","html-slider-response","484","513199","0.0-4.0-10.55-0.55","","","","Rate your confidence","1",""
"428.59999999962747","e","choice","left","e","experimental","491","515449","0.0-4.0-8.56","true","57","3.049999999999999","","",""
"2737.4000000003725","5","confid","","","html-slider-response","493","518693","0.0-4.0-10.56-0.56","","","","Rate your confidence","1",""
"358.40000000037253","e","choice","right","i","experimental","500","520844","0.0-4.0-8.57","false","58","3.049999999999999","","",""
"3091.60000000149","4","confid","","","html-slider-response","502","524473","0.0-4.0-10.57-0.57","","","","Rate your confidence","1",""
"416.69999999925494","e","choice","right","i","experimental","509","526682","0.0-4.0-8.58","false","59","3.149999999999999","","",""
"2637.5999999996275","3","confid","","","html-slider-response","511","529827","0.0-4.0-10.58-0.58","","","","Rate your confidence","1",""
"271.09999999962747","e","choice","left","e","experimental","518","531912","0.0-4.0-8.59","true","60","3.249999999999999","","",""
"3779.199999999255","6","confid","","","html-slider-response","520","536202","0.0-4.0-10.59-0.59","","","","Rate your confidence","1",""
"104","e","choice","left","e","experimental","527","538092","0.0-4.0-8.60","true","61","3.249999999999999","","",""
"4529.300000000745","6","confid","","","html-slider-response","529","543128","0.0-4.0-10.60-0.60","","","","Rate your confidence","1",""
"162.40000000037253","e","choice","right","i","experimental","536","545094","0.0-4.0-8.61","false","62","3.149999999999999","","",""
"3689.4000000003725","4","confid","","","html-slider-response","538","549288","0.0-4.0-10.61-0.61","","","","Rate your confidence","1",""
"315.80000000074506","e","choice","right","i","experimental","545","551392","0.0-4.0-8.62","false","63","3.249999999999999","","",""
"2922.7000000011176","6","confid","","","html-slider-response","547","554821","0.0-4.0-10.62-0.62","","","","Rate your confidence","1",""
"295.7000000011176","e","choice","left","e","experimental","554","556899","0.0-4.0-8.63","true","64","3.349999999999999","","",""
"4031.9000000003725","5","confid","","","html-slider-response","556","561437","0.0-4.0-10.63-0.63","","","","Rate your confidence","1",""
"385.09999999962747","e","choice","left","e","experimental","563","563610","0.0-4.0-8.64","true","65","3.349999999999999","","",""
"4225.89999999851","5","confid","","","html-slider-response","565","568343","0.0-4.0-10.64-0.64","","","","Rate your confidence","1",""
"470.3999999985099","e","choice","right","i","experimental","572","570625","0.0-4.0-8.65","false","66","3.249999999999999","","",""
"3214.9000000003725","5","confid","","","html-slider-response","574","574343","0.0-4.0-10.65-0.65","","","","Rate your confidence","1",""
"504.69999999925494","e","choice","right","i","experimental","581","576661","0.0-4.0-8.66","false","67","3.349999999999999","","",""
"3086.10000000149","5","confid","","","html-slider-response","583","580250","0.0-4.0-10.66-0.66","","","","Rate your confidence","1",""
"435.6000000014901","e","choice","left","e","experimental","590","582469","0.0-4.0-8.67","true","68","3.4499999999999993","","",""
"3322.199999999255","6","confid","","","html-slider-response","592","586297","0.0-4.0-10.67-0.67","","","","Rate your confidence","1",""
"265.40000000037253","i","choice","right","i","experimental","600","709216","0.0-4.0-8.68","true","69","3.4499999999999993","","",""
"3285.699999999255","3","confid","","","html-slider-response","602","713006","0.0-4.0-10.68-0.68","","","","Rate your confidence","1",""
"353.3999999985099","e","choice","left","e","experimental","609","715153","0.0-4.0-8.69","true","70","3.349999999999999","","",""
"2827.9000000003725","5","confid","","","html-slider-response","611","718485","0.0-4.0-10.69-0.69","","","","Rate your confidence","1",""
"238.30000000074506","e","choice","right","i","experimental","618","720517","0.0-4.0-8.70","false","71","3.349999999999999","","",""
"2955.0999999996275","2","confid","","","html-slider-response","620","723977","0.0-4.0-10.70-0.70","","","","Rate your confidence","1",""
"348.90000000037253","e","choice","left","e","experimental","627","726108","0.0-4.0-8.71","true","72","3.4499999999999993","","",""
"2747.7000000011176","5","confid","","","html-slider-response","629","729363","0.0-4.0-10.71-0.71","","","","Rate your confidence","1",""
"2739.39999999851","i","choice","right","i","experimental","636","733883","0.0-4.0-8.72","true","73","3.4499999999999993","","",""
"2477.39999999851","1","confid","","","html-slider-response","638","736867","0.0-4.0-10.72-0.72","","","","Rate your confidence","1",""
"354.09999999962747","e","choice","left","e","experimental","645","739019","0.0-4.0-8.73","true","74","3.349999999999999","","",""
"4491.5999999996275","3","confid","","","html-slider-response","647","744015","0.0-4.0-10.73-0.73","","","","Rate your confidence","1",""
"547.6000000014901","e","choice","right","i","experimental","654","746349","0.0-4.0-8.74","false","75","3.349999999999999","","",""
"2760.2000000011176","3","confid","","","html-slider-response","656","749613","0.0-4.0-10.74-0.74","","","","Rate your confidence","1",""
"313.30000000074506","e","choice","left","e","experimental","663","751718","0.0-4.0-8.75","true","76","3.4499999999999993","","",""
"2855.5","3","confid","","","html-slider-response","665","755077","0.0-4.0-10.75-0.75","","","","Rate your confidence","1",""
"371.80000000074506","i","choice","right","i","experimental","672","757239","0.0-4.0-8.76","true","77","3.4499999999999993","","",""
"3665.0999999996275","2","confid","","","html-slider-response","674","761411","0.0-4.0-10.76-0.76","","","","Rate your confidence","1",""
"270","e","choice","left","e","experimental","681","763474","0.0-4.0-8.77","true","78","3.349999999999999","","",""
"2767.4000000003725","6","confid","","","html-slider-response","683","766746","0.0-4.0-10.77-0.77","","","","Rate your confidence","1",""
"258.59999999962747","e","choice","left","e","experimental","690","768824","0.0-4.0-8.78","true","79","3.349999999999999","","",""
"2811.300000000745","6","confid","","","html-slider-response","692","772142","0.0-4.0-10.78-0.78","","","","Rate your confidence","1",""
"97.89999999850988","e","choice","right","i","experimental","699","774065","0.0-4.0-8.79","false","80","3.249999999999999","","",""
"3718.699999999255","6","confid","","","html-slider-response","701","778290","0.0-4.0-10.79-0.79","","","","Rate your confidence","1",""
"120.90000000037253","e","choice","right","i","experimental","708","780195","0.0-4.0-8.80","false","81","3.349999999999999","","",""
"2935.4000000003725","5","confid","","","html-slider-response","710","783637","0.0-4.0-10.80-0.80","","","","Rate your confidence","1",""
"22.40000000037253","e","choice","left","e","experimental","717","785446","0.0-4.0-8.81","true","82","3.4499999999999993","","",""
"3246.300000000745","6","confid","","","html-slider-response","719","789197","0.0-4.0-10.81-0.81","","","","Rate your confidence","1",""
"612.5","i","choice","right","i","experimental","726","791607","0.0-4.0-8.82","true","83","3.4499999999999993","","",""
"3195.699999999255","3","confid","","","html-slider-response","728","795308","0.0-4.0-10.82-0.82","","","","Rate your confidence","1",""
"264.69999999925494","e","choice","left","e","experimental","735","797375","0.0-4.0-8.83","true","84","3.349999999999999","","",""
"2775.7999999988824","5","confid","","","html-slider-response","737","800655","0.0-4.0-10.83-0.83","","","","Rate your confidence","1",""
"1008.3000000007451","i","choice","right","i","experimental","744","803496","0.0-4.0-8.84","true","85","3.349999999999999","","",""
"3685.9000000003725","1","confid","","","html-slider-response","746","807689","0.0-4.0-10.84-0.84","","","","Rate your confidence","1",""
"75.40000000037253","e","choice","left","e","experimental","753","809567","0.0-4.0-8.85","true","86","3.249999999999999","","",""
"3413.5999999996275","4","confid","","","html-slider-response","755","813487","0.0-4.0-10.85-0.85","","","","Rate your confidence","1",""
"377.8999999985099","e","choice","left","e","experimental","762","815657","0.0-4.0-8.86","true","87","3.249999999999999","","",""
"2566.800000000745","4","confid","","","html-slider-response","764","818731","0.0-4.0-10.86-0.86","","","","Rate your confidence","1",""
"350.3999999985099","i","choice","right","i","experimental","771","820867","0.0-4.0-8.87","true","88","3.149999999999999","","",""
"2910.9000000003725","3","confid","","","html-slider-response","773","824281","0.0-4.0-10.87-0.87","","","","Rate your confidence","1",""
"282.90000000037253","e","choice","right","i","experimental","780","826356","0.0-4.0-8.88","false","89","3.149999999999999","","",""
"3090.300000000745","4","confid","","","html-slider-response","782","829951","0.0-4.0-10.88-0.88","","","","Rate your confidence","1",""
"273.40000000037253","e","choice","left","e","experimental","789","832012","0.0-4.0-8.89","true","90","3.249999999999999","","",""
"2640.7999999988824","3","confid","","","html-slider-response","791","835162","0.0-4.0-10.89-0.89","","","","Rate your confidence","1",""
"190.09999999962747","e","choice","left","e","experimental","798","837141","0.0-4.0-8.90","true","91","3.249999999999999","","",""
"2363.10000000149","2","confid","","","html-slider-response","800","840008","0.0-4.0-10.90-0.90","","","","Rate your confidence","1",""
"853.3000000007451","e","choice","right","i","experimental","807","842627","0.0-4.0-8.91","false","92","3.149999999999999","","",""
"2849.4000000003725","2","confid","","","html-slider-response","809","845981","0.0-4.0-10.91-0.91","","","","Rate your confidence","1",""
"346","e","choice","left","e","experimental","816","848120","0.0-4.0-8.92","true","93","3.249999999999999","","",""
"2386.5","4","confid","","","html-slider-response","818","851012","0.0-4.0-10.92-0.92","","","","Rate your confidence","1",""
"316.5","i","choice","right","i","experimental","825","853136","0.0-4.0-8.93","true","94","3.249999999999999","","",""
"5477.60000000149","5","confid","","","html-slider-response","827","859118","0.0-4.0-10.93-0.93","","","","Rate your confidence","1",""
"375.69999999925494","e","choice","left","e","experimental","834","861280","0.0-4.0-8.94","true","95","3.149999999999999","","",""
"2388.4000000003725","4","confid","","","html-slider-response","836","864199","0.0-4.0-10.94-0.94","","","","Rate your confidence","1",""
"184.30000000074506","i","choice","right","i","experimental","843","866171","0.0-4.0-8.95","true","96","3.149999999999999","","",""
"2993.5999999996275","5","confid","","","html-slider-response","845","869668","0.0-4.0-10.95-0.95","","","","Rate your confidence","1",""
"349.6000000014901","i","choice","right","i","experimental","852","871843","0.0-4.0-8.96","true","97","3.049999999999999","","",""
"3379.300000000745","6","confid","","","html-slider-response","854","875728","0.0-4.0-10.96-0.96","","","","Rate your confidence","1",""
"562.9000000003725","i","choice","left","e","experimental","861","878079","0.0-4.0-8.97","false","98","3.049999999999999","","",""
"3894.2000000011176","3","confid","","","html-slider-response","863","882477","0.0-4.0-10.97-0.97","","","","Rate your confidence","1",""
"2350","e","choice","right","i","experimental","870","886618","0.0-4.0-8.98","false","99","3.149999999999999","","",""
"2564.800000000745","2","confid","","","html-slider-response","872","889718","0.0-4.0-10.98-0.98","","","","Rate your confidence","1",""
"4101.799999998882","e","choice","left","e","experimental","879","895607","0.0-4.0-8.99","true","100","3.249999999999999","","",""
"8710.10000000149","1","confid","","","html-slider-response","881","904823","0.0-4.0-10.99-0.99","","","","Rate your confidence","1",""
"267.6000000014901","e","choice","right","i","experimental","888","906910","0.0-4.0-8.100","false","101","3.249999999999999","","",""
"4451.5999999996275","3","confid","","","html-slider-response","890","911869","0.0-4.0-10.100-0.100","","","","Rate your confidence","1",""
"25.800000000745058","e","choice","left","e","experimental","897","913711","0.0-4.0-8.101","true","102","3.349999999999999","","",""
"3123.7000000011176","6","confid","","","html-slider-response","899","917338","0.0-4.0-10.101-0.101","","","","Rate your confidence","1",""
"1679.5999999996275","i","choice","right","i","experimental","906","920840","0.0-4.0-8.102","true","103","3.349999999999999","","",""
"4048.4000000003725","2","confid","","","html-slider-response","908","925394","0.0-4.0-10.102-0.102","","","","Rate your confidence","1",""
"317.5","e","choice","left","e","experimental","915","927506","0.0-4.0-8.103","true","104","3.249999999999999","","",""
"3383","4","confid","","","html-slider-response","917","931396","0.0-4.0-10.103-0.103","","","","Rate your confidence","1",""
"35.19999999925494","i","choice","right","i","experimental","924","933236","0.0-4.0-8.104","true","105","3.249999999999999","","",""
"3697.9000000003725","5","confid","","","html-slider-response","926","937439","0.0-4.0-10.104-0.104","","","","Rate your confidence","1",""
"278.40000000037253","e","choice","left","e","experimental","933","939502","0.0-4.0-8.105","true","106","3.149999999999999","","",""
"2878.699999999255","6","confid","","","html-slider-response","935","942888","0.0-4.0-10.105-0.105","","","","Rate your confidence","1",""
"588.3999999985099","i","choice","right","i","experimental","942","945285","0.0-4.0-8.106","true","107","3.149999999999999","","",""
"3160.0999999996275","4","confid","","","html-slider-response","944","948951","0.0-4.0-10.106-0.106","","","","Rate your confidence","1",""
"301.3999999985099","e","choice","left","e","experimental","951","951076","0.0-4.0-8.107","true","108","3.049999999999999","","",""
"3004.7999999988824","3","confid","","","html-slider-response","953","954586","0.0-4.0-10.107-0.107","","","","Rate your confidence","1",""
"263.2000000011176","i","choice","right","i","experimental","960","956649","0.0-4.0-8.108","true","109","3.049999999999999","","",""
"2602.5999999996275","3","confid","","","html-slider-response","962","959757","0.0-4.0-10.108-0.108","","","","Rate your confidence","1",""
"77.80000000074506","e","choice","left","e","experimental","969","961623","0.0-4.0-8.109","true","110","2.949999999999999","","",""
"4298.5999999996275","4","confid","","","html-slider-response","971","966429","0.0-4.0-10.109-0.109","","","","Rate your confidence","1",""
"330.59999999962747","e","choice","right","i","experimental","979","972682","0.0-4.0-8.110","false","111","2.949999999999999","","",""
"2892.39999999851","3","confid","","","html-slider-response","981","976078","0.0-4.0-10.110-0.110","","","","Rate your confidence","1",""
"359.2000000011176","e","choice","left","e","experimental","988","978260","0.0-4.0-8.111","true","112","3.049999999999999","","",""
"2702.300000000745","3","confid","","","html-slider-response","990","981466","0.0-4.0-10.111-0.111","","","","Rate your confidence","1",""
"276.09999999962747","i","choice","right","i","experimental","997","983573","0.0-4.0-8.112","true","113","3.049999999999999","","",""
"4248.0999999996275","1","confid","","","html-slider-response","999","988325","0.0-4.0-10.112-0.112","","","","Rate your confidence","1",""
"258.2999999988824","e","choice","left","e","experimental","1006","990375","0.0-4.0-8.113","true","114","2.949999999999999","","",""
"2622.199999999255","4","confid","","","html-slider-response","1008","993502","0.0-4.0-10.113-0.113","","","","Rate your confidence","1",""
"338.8999999985099","e","choice","right","i","experimental","1015","995631","0.0-4.0-8.114","false","115","2.949999999999999","","",""
"2705.699999999255","5","confid","","","html-slider-response","1017","998860","0.0-4.0-10.114-0.114","","","","Rate your confidence","1",""
"287.5","e","choice","left","e","experimental","1024","1000932","0.0-4.0-8.115","true","116","3.049999999999999","","",""
"2450.4000000003725","6","confid","","","html-slider-response","1026","1003887","0.0-4.0-10.115-0.115","","","","Rate your confidence","1",""
"198.09999999962747","e","choice","left","e","experimental","1033","1005887","0.0-4.0-8.116","true","117","3.049999999999999","","",""
"3872.7999999988824","5","confid","","","html-slider-response","1035","1010264","0.0-4.0-10.116-0.116","","","","Rate your confidence","1",""
"311.69999999925494","i","choice","right","i","experimental","1042","1012400","0.0-4.0-8.117","true","118","2.949999999999999","","",""
"2681.0999999996275","6","confid","","","html-slider-response","1044","1015589","0.0-4.0-10.117-0.117","","","","Rate your confidence","1",""
"2633.39999999851","e","choice","left","e","experimental","1051","1020018","0.0-4.0-8.118","true","119","2.949999999999999","","",""
"2803.800000000745","2","confid","","","html-slider-response","1053","1023329","0.0-4.0-10.118-0.118","","","","Rate your confidence","1",""
"229.40000000037253","i","choice","right","i","experimental","1060","1025357","0.0-4.0-8.119","true","120","2.8499999999999988","","",""
"2348.39999999851","3","confid","","","html-slider-response","1062","1028214","0.0-4.0-10.119-0.119","","","","Rate your confidence","1",""
"255.7999999988824","e","choice","right","i","experimental","1069","1030303","0.0-4.0-8.120","false","121","2.8499999999999988","","",""
"3271.199999999255","2","confid","","","html-slider-response","1071","1034081","0.0-4.0-10.120-0.120","","","","Rate your confidence","1",""
"236.09999999962747","e","choice","left","e","experimental","1078","1036145","0.0-4.0-8.121","true","122","2.949999999999999","","",""
"4212.200000001118","2","confid","","","html-slider-response","1080","1040862","0.0-4.0-10.121-0.121","","","","Rate your confidence","1",""
"447.40000000037253","i","choice","left","e","experimental","1087","1043099","0.0-4.0-8.122","false","123","2.949999999999999","","",""
"3983","3","confid","","","html-slider-response","1089","1047587","0.0-4.0-10.122-0.122","","","","Rate your confidence","1",""
"4846.800000000745","e","choice","right","i","experimental","1096","1054208","0.0-4.0-8.123","false","124","3.049999999999999","","",""
"3315.5999999996275","2","confid","","","html-slider-response","1098","1058032","0.0-4.0-10.123-0.123","","","","Rate your confidence","1",""
"913.4000000003725","i","choice","right","i","experimental","1105","1060720","0.0-4.0-8.124","true","125","3.149999999999999","","",""
"3492.5","2","confid","","","html-slider-response","1107","1064721","0.0-4.0-10.124-0.124","","","","Rate your confidence","1",""
"435.5","i","choice","left","e","experimental","1114","1066979","0.0-4.0-8.125","false","126","3.149999999999999","","",""
"2987.5","2","confid","","","html-slider-response","1116","1070474","0.0-4.0-10.125-0.125","","","","Rate your confidence","1",""
"312.90000000037253","i","choice","right","i","experimental","1123","1072585","0.0-4.0-8.126","true","127","3.249999999999999","","",""
"3084.300000000745","6","confid","","","html-slider-response","1125","1076174","0.0-4.0-10.126-0.126","","","","Rate your confidence","1",""
"558.2999999988824","e","choice","left","e","experimental","1132","1078553","0.0-4.0-8.127","true","128","3.249999999999999","","",""
"2981.0999999996275","5","confid","","","html-slider-response","1134","1082041","0.0-4.0-10.127-0.127","","","","Rate your confidence","1",""
"859","e","choice","left","e","experimental","1141","1084689","0.0-4.0-8.128","true","129","3.149999999999999","","",""
"2704.300000000745","4","confid","","","html-slider-response","1143","1087901","0.0-4.0-10.128-0.128","","","","Rate your confidence","1",""
"255.40000000037253","e","choice","right","i","experimental","1150","1089953","0.0-4.0-8.129","false","130","3.149999999999999","","",""
"3388.5999999996275","4","confid","","","html-slider-response","1152","1093846","0.0-4.0-10.129-0.129","","","","Rate your confidence","1",""
"204.59999999962747","i","choice","right","i","experimental","1159","1095850","0.0-4.0-8.130","true","131","3.249999999999999","","",""
"2213.60000000149","2","confid","","","html-slider-response","1161","1098567","0.0-4.0-10.130-0.130","","","","Rate your confidence","1",""
"199.40000000037253","e","choice","left","e","experimental","1168","1100587","0.0-4.0-8.131","true","132","3.249999999999999","","",""
"2696.699999999255","5","confid","","","html-slider-response","1170","1103786","0.0-4.0-10.131-0.131","","","","Rate your confidence","1",""
"125.80000000074506","e","choice","left","e","experimental","1177","1105713","0.0-4.0-8.132","true","133","3.149999999999999","","",""
"3232","5","confid","","","html-slider-response","1179","1109452","0.0-4.0-10.132-0.132","","","","Rate your confidence","1",""
"171.10000000149012","e","choice","right","i","experimental","1186","1111422","0.0-4.0-8.133","false","134","3.149999999999999","","",""
"3156.800000000745","3","confid","","","html-slider-response","1188","1115085","0.0-4.0-10.133-0.133","","","","Rate your confidence","1",""
"30.40000000037253","i","choice","right","i","experimental","1195","1116910","0.0-4.0-8.134","true","135","3.249999999999999","","",""
"3269.699999999255","5","confid","","","html-slider-response","1197","1120685","0.0-4.0-10.134-0.134","","","","Rate your confidence","1",""
"46.899999998509884","e","choice","left","e","experimental","1204","1122551","0.0-4.0-8.135","true","136","3.249999999999999","","",""
"2576","4","confid","","","html-slider-response","1206","1125634","0.0-4.0-10.135-0.135","","","","Rate your confidence","1",""
"353.40000000037253","i","choice","right","i","experimental","1213","1127767","0.0-4.0-8.136","true","137","3.149999999999999","","",""
"3169.699999999255","5","confid","","","html-slider-response","1215","1131443","0.0-4.0-10.136-0.136","","","","Rate your confidence","1",""
"401","e","choice","left","e","experimental","1222","1133636","0.0-4.0-8.137","true","138","3.149999999999999","","",""
"2848.4000000003725","3","confid","","","html-slider-response","1224","1136991","0.0-4.0-10.137-0.137","","","","Rate your confidence","1",""
"279.7000000011176","e","choice","left","e","experimental","1231","1139064","0.0-4.0-8.138","true","139","3.049999999999999","","",""
"3369.0999999996275","5","confid","","","html-slider-response","1233","1142937","0.0-4.0-10.138-0.138","","","","Rate your confidence","1",""
"380.40000000037253","i","choice","right","i","experimental","1240","1145154","0.0-4.0-8.139","true","140","3.049999999999999","","",""
"2711.5","3","confid","","","html-slider-response","1242","1148372","0.0-4.0-10.139-0.139","","","","Rate your confidence","1",""
"183.09999999962747","e","choice","right","i","experimental","1249","1150386","0.0-4.0-8.140","false","141","2.949999999999999","","",""
"3301.7999999988824","1","confid","","","html-slider-response","1251","1154195","0.0-4.0-10.140-0.140","","","","Rate your confidence","1",""
"333.5","e","choice","left","e","experimental","1258","1156331","0.0-4.0-8.141","true","142","3.049999999999999","","",""
"5164.5999999996275","2","confid","","","html-slider-response","1260","1162000","0.0-4.0-10.141-0.141","","","","Rate your confidence","1",""
"162.59999999962747","i","choice","right","i","experimental","1267","1163946","0.0-4.0-8.142","true","143","3.049999999999999","","",""
"2617.7999999988824","2","confid","","","html-slider-response","1269","1167068","0.0-4.0-10.142-0.142","","","","Rate your confidence","1",""
"567","e","choice","left","e","experimental","1276","1169450","0.0-4.0-8.143","true","144","2.949999999999999","","",""
"4134.9000000003725","3","confid","","","html-slider-response","1278","1174091","0.0-4.0-10.143-0.143","","","","Rate your confidence","1",""
"1436.2999999988824","e","choice","left","e","experimental","1285","1177366","0.0-4.0-8.144","true","145","2.949999999999999","","",""
"2801.0999999996275","2","confid","","","html-slider-response","1287","1180673","0.0-4.0-10.144-0.144","","","","Rate your confidence","1",""
"1785.0999999996275","i","choice","right","i","experimental","1294","1184283","0.0-4.0-8.145","true","146","2.8499999999999988","","",""
"4851.800000000745","2","confid","","","html-slider-response","1296","1189640","0.0-4.0-10.145-0.145","","","","Rate your confidence","1",""
"346.90000000037253","e","choice","right","i","experimental","1303","1191784","0.0-4.0-8.146","false","147","2.8499999999999988","","",""
"2595.9000000003725","1","confid","","","html-slider-response","1305","1194887","0.0-4.0-10.146-0.146","","","","Rate your confidence","1",""
"821.0999999996275","i","choice","left","e","experimental","1312","1197498","0.0-4.0-8.147","false","148","2.949999999999999","","",""
"3790.9000000003725","3","confid","","","html-slider-response","1314","1201798","0.0-4.0-10.147-0.147","","","","Rate your confidence","1",""
"291.59999999962747","e","choice","right","i","experimental","1321","1203919","0.0-4.0-8.148","false","149","3.049999999999999","","",""
"3534.699999999255","2","confid","","","html-slider-response","1323","1207960","0.0-4.0-10.148-0.148","","","","Rate your confidence","1",""
"694.9000000003725","e","choice","left","e","experimental","1330","1210468","0.0-4.0-8.149","true","150","3.149999999999999","","",""
"3121.4000000003725","3","confid","","","html-slider-response","1332","1214099","0.0-4.0-10.149-0.149","","","","Rate your confidence","1",""
"243.5","e","choice","right","i","experimental","1339","1216160","0.0-4.0-8.150","false","151","3.149999999999999","","",""
"2591.5","3","confid","","","html-slider-response","1341","1219256","0.0-4.0-10.150-0.150","","","","Rate your confidence","1",""
"357.80000000074506","i","choice","left","e","experimental","1348","1221403","0.0-4.0-8.151","false","152","3.249999999999999","","",""
"3233","4","confid","","","html-slider-response","1350","1225143","0.0-4.0-10.151-0.151","","","","Rate your confidence","1",""
"291.09999999962747","i","choice","right","i","experimental","1358","1448201","0.0-4.0-8.152","true","153","3.349999999999999","","",""
"2978.199999999255","3","confid","","","html-slider-response","1360","1451686","0.0-4.0-10.152-0.152","","","","Rate your confidence","1",""
"280","e","choice","left","e","experimental","1367","1453756","0.0-4.0-8.153","true","154","3.349999999999999","","",""
"2512.0999999996275","2","confid","","","html-slider-response","1369","1456775","0.0-4.0-10.153-0.153","","","","Rate your confidence","1",""
"136.40000000037253","i","choice","right","i","experimental","1376","1458695","0.0-4.0-8.154","true","155","3.249999999999999","","",""
"2547.7999999988824","4","confid","","","html-slider-response","1378","1461749","0.0-4.0-10.154-0.154","","","","Rate your confidence","1",""
"260.2999999988824","e","choice","left","e","experimental","1385","1463798","0.0-4.0-8.155","true","156","3.249999999999999","","",""
"2578.5","3","confid","","","html-slider-response","1387","1466886","0.0-4.0-10.155-0.155","","","","Rate your confidence","1",""
"721.0999999996275","e","choice","left","e","experimental","1394","1469408","0.0-4.0-8.156","true","157","3.149999999999999","","",""
"3658.0999999996275","2","confid","","","html-slider-response","1396","1473574","0.0-4.0-10.156-0.156","","","","Rate your confidence","1",""
"234.30000000074506","i","choice","right","i","experimental","1403","1475601","0.0-4.0-8.157","true","158","3.149999999999999","","",""
"1931.699999999255","2","confid","","","html-slider-response","1405","1478038","0.0-4.0-10.157-0.157","","","","Rate your confidence","1",""
"59.20000000111759","e","choice","left","e","experimental","1412","1479897","0.0-4.0-8.158","true","159","3.049999999999999","","",""
"3193.9000000003725","4","confid","","","html-slider-response","1414","1483597","0.0-4.0-10.158-0.158","","","","Rate your confidence","1",""
"208.09999999962747","e","choice","right","i","experimental","1421","1485601","0.0-4.0-8.159","false","160","3.049999999999999","","",""
"4021.699999999255","2","confid","","","html-slider-response","1423","1490130","0.0-4.0-10.159-0.159","","","","Rate your confidence","1",""
"2260.7999999988824","i","choice","right","i","experimental","1430","1494201","0.0-4.0-8.160","true","161","3.149999999999999","","",""
"3325.4000000003725","1","confid","","","html-slider-response","1432","1498029","0.0-4.0-10.160-0.160","","","","Rate your confidence","1",""
"461.90000000037253","e","choice","left","e","experimental","1439","1500279","0.0-4.0-8.161","true","162","3.149999999999999","","",""
"2097.2999999988824","2","confid","","","html-slider-response","1441","1502880","0.0-4.0-10.161-0.161","","","","Rate your confidence","1",""
"881.5","i","choice","left","e","experimental","1448","1505543","0.0-4.0-8.162","false","163","3.049999999999999","","",""
"2760.300000000745","2","confid","","","html-slider-response","1450","1508809","0.0-4.0-10.162-0.162","","","","Rate your confidence","1",""
"683","i","choice","right","i","experimental","1457","1511288","0.0-4.0-8.163","true","164","3.149999999999999","","",""
"2701.800000000745","2","confid","","","html-slider-response","1459","1514531","0.0-4.0-10.163-0.163","","","","Rate your confidence","1",""
"936.2999999988824","e","choice","left","e","experimental","1466","1517258","0.0-4.0-8.164","true","165","3.149999999999999","","",""
"4084.7000000011176","2","confid","","","html-slider-response","1468","1521847","0.0-4.0-10.164-0.164","","","","Rate your confidence","1",""
"1254.6000000014901","i","choice","right","i","experimental","1475","1524929","0.0-4.0-8.165","true","166","3.049999999999999","","",""
"6982.5","2","confid","","","html-slider-response","1477","1532418","0.0-4.0-10.165-0.165","","","","Rate your confidence","1",""
"5104.199999999255","e","choice","left","e","experimental","1484","1539347","0.0-4.0-8.166","true","167","3.049999999999999","","",""
"3146.800000000745","1","confid","","","html-slider-response","1486","1542999","0.0-4.0-10.166-0.166","","","","Rate your confidence","1",""
"298.6000000014901","e","choice","right","i","experimental","1493","1545122","0.0-4.0-8.167","false","168","2.949999999999999","","",""
"3035.4000000003725","1","confid","","","html-slider-response","1495","1548661","0.0-4.0-10.167-0.167","","","","Rate your confidence","1",""
"155.5","i","choice","left","e","experimental","1502","1550610","0.0-4.0-8.168","false","169","3.049999999999999","","",""
"2288.9000000003725","2","confid","","","html-slider-response","1504","1553406","0.0-4.0-10.168-0.168","","","","Rate your confidence","1",""
"1464","e","choice","right","i","experimental","1511","1556665","0.0-4.0-8.169","false","170","3.149999999999999","","",""
"3336.7000000011176","2","confid","","","html-slider-response","1513","1560507","0.0-4.0-10.169-0.169","","","","Rate your confidence","1",""
"248.7999999988824","i","choice","right","i","experimental","1520","1562555","0.0-4.0-8.170","true","171","3.249999999999999","","",""
"2979.5","3","confid","","","html-slider-response","1522","1566041","0.0-4.0-10.170-0.170","","","","Rate your confidence","1",""
"72.30000000074506","e","choice","left","e","experimental","1529","1567936","0.0-4.0-8.171","true","172","3.249999999999999","","",""
"2559.5","4","confid","","","html-slider-response","1531","1571003","0.0-4.0-10.171-0.171","","","","Rate your confidence","1",""
"242","i","choice","left","e","experimental","1538","1573123","0.0-4.0-8.172","false","173","3.149999999999999","","",""
"2898.9000000003725","4","confid","","","html-slider-response","1540","1576528","0.0-4.0-10.172-0.172","","","","Rate your confidence","1",""
"2096.2000000011176","i","choice","right","i","experimental","1547","1580418","0.0-4.0-8.173","true","174","3.249999999999999","","",""
"5587.60000000149","3","confid","","","html-slider-response","1549","1586510","0.0-4.0-10.173-0.173","","","","Rate your confidence","1",""
"487.19999999925494","e","choice","left","e","experimental","1556","1588796","0.0-4.0-8.174","true","175","3.249999999999999","","",""
"2816.2000000011176","3","confid","","","html-slider-response","1558","1592120","0.0-4.0-10.174-0.174","","","","Rate your confidence","1",""
"584.1999999992549","e","choice","right","i","experimental","1565","1594501","0.0-4.0-8.175","false","176","3.149999999999999","","",""
"4597.10000000149","2","confid","","","html-slider-response","1567","1599607","0.0-4.0-10.175-0.175","","","","Rate your confidence","1",""
"2597.5999999996275","i","choice","right","i","experimental","1574","1604012","0.0-4.0-8.176","true","177","3.249999999999999","","",""
"4445.0999999996275","2","confid","","","html-slider-response","1576","1608964","0.0-4.0-10.176-0.176","","","","Rate your confidence","1",""
"870.5","e","choice","left","e","experimental","1583","1611629","0.0-4.0-8.177","true","178","3.249999999999999","","",""
"3010.5999999996275","3","confid","","","html-slider-response","1585","1615144","0.0-4.0-10.177-0.177","","","","Rate your confidence","1",""
"784","e","choice","left","e","experimental","1592","1617755","0.0-4.0-8.178","true","179","3.149999999999999","","",""
"4965","2","confid","","","html-slider-response","1594","1623226","0.0-4.0-10.178-0.178","","","","Rate your confidence","1",""
"298.5","i","choice","right","i","experimental","1601","1625317","0.0-4.0-8.179","true","180","3.149999999999999","","",""
"4892.4000000003725","2","confid","","","html-slider-response","1603","1630718","0.0-4.0-10.179-0.179","","","","Rate your confidence","1",""
"1226.5","i","choice","right","i","experimental","1610","1633741","0.0-4.0-8.180","true","181","3.049999999999999","","",""
"4399.199999999255","2","confid","","","html-slider-response","1612","1638647","0.0-4.0-10.180-0.180","","","","Rate your confidence","1",""
"360.5","i","choice","left","e","experimental","1619","1640808","0.0-4.0-8.181","false","182","3.049999999999999","","",""
"4163.300000000745","1","confid","","","html-slider-response","1621","1645478","0.0-4.0-10.181-0.181","","","","Rate your confidence","1",""
"315.40000000037253","e","choice","left","e","experimental","1628","1647625","0.0-4.0-8.182","true","183","3.149999999999999","","",""
"2197.4000000003725","2","confid","","","html-slider-response","1630","1650328","0.0-4.0-10.182-0.182","","","","Rate your confidence","1",""
"559.6999999992549","e","choice","right","i","experimental","1637","1652713","0.0-4.0-8.183","false","184","3.149999999999999","","",""
"2550.89999999851","3","confid","","","html-slider-response","1639","1655769","0.0-4.0-10.183-0.183","","","","Rate your confidence","1",""
"62.09999999962747","i","choice","right","i","experimental","1646","1657617","0.0-4.0-8.184","true","185","3.249999999999999","","",""
"2787.800000000745","3","confid","","","html-slider-response","1648","1660910","0.0-4.0-10.184-0.184","","","","Rate your confidence","1",""
"186.90000000037253","e","choice","left","e","experimental","1655","1662883","0.0-4.0-8.185","true","186","3.249999999999999","","",""
"2323.300000000745","4","confid","","","html-slider-response","1657","1665712","0.0-4.0-10.185-0.185","","","","Rate your confidence","1",""
"244.5","i","choice","right","i","experimental","1664","1667777","0.0-4.0-8.186","true","187","3.149999999999999","","",""
"3160.10000000149","2","confid","","","html-slider-response","1666","1671444","0.0-4.0-10.186-0.186","","","","Rate your confidence","1",""
"145.69999999925494","e","choice","left","e","experimental","1673","1673402","0.0-4.0-8.187","true","188","3.149999999999999","","",""
"2643.5","4","confid","","","html-slider-response","1675","1676551","0.0-4.0-10.187-0.187","","","","Rate your confidence","1",""
"19.40000000037253","e","choice","left","e","experimental","1682","1678351","0.0-4.0-8.188","true","189","3.049999999999999","","",""
"3283.300000000745","4","confid","","","html-slider-response","1684","1682140","0.0-4.0-10.188-0.188","","","","Rate your confidence","1",""
"570.5999999996275","e","choice","right","i","experimental","1691","1684491","0.0-4.0-8.189","false","190","3.049999999999999","","",""
"3796.300000000745","3","confid","","","html-slider-response","1693","1688794","0.0-4.0-10.189-0.189","","","","Rate your confidence","1",""
"261.09999999962747","e","choice","left","e","experimental","1700","1690880","0.0-4.0-8.190","true","191","3.149999999999999","","",""
"3089.699999999255","4","confid","","","html-slider-response","1702","1694474","0.0-4.0-10.190-0.190","","","","Rate your confidence","1",""
"36.09999999962747","e","choice","right","i","experimental","1709","1696341","0.0-4.0-8.191","false","192","3.149999999999999","","",""
"3288","5","confid","","","html-slider-response","1711","1700133","0.0-4.0-10.191-0.191","","","","Rate your confidence","1",""
"265.2000000011176","e","choice","right","i","experimental","1718","1702229","0.0-4.0-8.192","false","193","3.249999999999999","","",""
"2365.800000000745","4","confid","","","html-slider-response","1720","1705100","0.0-4.0-10.192-0.192","","","","Rate your confidence","1",""
"251.19999999925494","e","choice","left","e","experimental","1727","1707147","0.0-4.0-8.193","true","194","3.349999999999999","","",""
"2984.4000000003725","4","confid","","","html-slider-response","1729","1710639","0.0-4.0-10.193-0.193","","","","Rate your confidence","1","18100"
