"rt","response","task","target_side","correct_response","trial_type","trial_index","time_elapsed","internal_node_id","correct","trial_number","n_dots","stimulus","slider_start","participant"
"1434.8999999761581","i","choice","right","i","practice","10","127339","0.0-4.0-8.0","true","1","4.25","","",""
"374.39999997615814","e","choice","left","e","practice","18","130054","0.0-4.0-8.1","true","2","4.25","","",""
"396","e","choice","left","e","practice","26","132794","0.0-4.0-8.2","true","3","3.85","","",""
"383.19999998807907","i","choice","right","i","practice","34","135498","0.0-4.0-8.3","true","4","3.85","","",""
"896.5","e","choice","right","i","practice","42","138737","0.0-4.0-8.4","false","5","3.45","","",""
"2333.9000000059605","i","choice","left","e","practice","50","143438","0.0-4.0-8.5","false","6","3.85","","",""
"765.5","e","choice","left","e","practice","58","146533","0.0-4.0-8.6","true","7","4.05","","",""
"266.59999999403954","i","choice","right","i","practice","66","149147","0.0-4.0-8.7","true","8","4.05","","",""
"282.7000000178814","i","choice","right","i","practice","74","151766","0.0-4.0-8.8","true","9","3.8499999999999996","","",""
"605.3999999761581","e","choice","left","e","practice","82","154705","0.0-4.0-8.9","true","10","3.8499999999999996","","",""
"664.3000000119209","i","choice","right","i","practice","90","157710","0.0-4.0-8.10","true","11","3.6499999999999995","","",""
"384.59999999403954","e","choice","left","e","practice","98","160423","0.0-4.0-8.11","true","12","3.6499999999999995","","",""
"226.59999999403954","e","choice","left","e","practice","106","162977","0.0-4.0-8.12","true","13","3.5499999999999994","","",""
"70.5","i","choice","right","i","practice","114","165376","0.0-4.0-8.13","true","14","3.5499999999999994","","",""
"292.30000001192093","i","choice","right","i","practice","122","167995","0.0-4.0-8.14","true","15","3.4499999999999993","","",""
"110.5","e","choice","left","e","practice","130","170464","0.0-4.0-8.15","true","16","3.4499999999999993","","",""
"421.40000000596046","e","choice","right","i","practice","138","173232","0.0-4.0-8.16","false","17","3.349999999999999","","",""
"812.9000000059605","e","choice","left","e","practice","146","176388","0.0-4.0-8.17","true","18","3.4499999999999993","","",""
"322.59999999403954","i","choice","right","i","practice","154","179032","0.0-4.0-8.18","true","19","3.4499999999999993","","",""
"909.1999999880791","e","choice","left","e","practice","162","182292","0.0-4.0-8.19","true","20","3.349999999999999","","",""
"729.4000000059605","e","choice","left","e","practice","170","185355","0.0-4.0-8.20","true","21","3.349999999999999","","",""
"383.19999998807907","i","choice","right","i","practice","178","188100","0.0-4.0-8.21","true","22","3.249999999999999","","",""
"661.5","i","choice","right","i","practice","186","191134","0.0-4.0-8.22","true","23","3.249999999999999","","",""
"310.59999999403954","e","choice","left","e","practice","194","193794","0.0-4.0-8.23","true","24","3.149999999999999","","",""
"474.5","e","choice","right","i","practice","202","196632","0.0-4.0-8.24","false","25","3.149999999999999","","",""
"510.2000000178814","e","choice","left","e","practice","210","199482","0.0-4.0-8.25","true","26","3.249999999999999","","",""
"273.30000001192093","i","choice","right","i","experimental","221","263794","0.0-4.0-8.26","true","27","3.249999999999999","","",""
"4694","3","confid","","","html-slider-response","223","269014","0.0-4.0-10.26-0.26","","","","Rate your confidence","1",""
"289.30000001192093","e","choice","left","e","experimental","230","271128","0.0-4.0-8.27","true","28","3.149999999999999","","",""
"3455.5","6","confid","","","html-slider-response","232","275098","0.0-4.0-10.27-0.27","","","","Rate your confidence","1",""
"265.7000000178814","e","choice","left","e","experimental","239","277201","0.0-4.0-8.28","true","29","3.149999999999999","","",""
"5377.9000000059605","5","confid","","","html-slider-response","241","283096","0.0-4.0-10.28-0.28","","","","Rate your confidence","1",""
"747.7999999821186","i","choice","right","i","experimental","248","285651","0.0-4.0-8.29","true","30","3.049999999999999","","",""
"5052.800000011921","4","confid","","","html-slider-response","250","291209","0.0-4.0-10.29-0.29","","","","Rate your confidence","1",""
"801.4000000059605","i","choice","left","e","experimental","257","293850","0.0-4.0-8.30","false","31","3.049999999999999","","",""
"4217","3","confid","","","html-slider-response","259","298576","0.0-4.0-10.30-0.30","","","","Rate your confidence","1",""
"558.6999999880791","i","choice","right","i","experimental","266","300966","0.0-4.0-8.31","true","32","3.149999999999999","","",""
"10658.40000000596","5","confid","","","html-slider-response","268","312134","0.0-4.0-10.31-0.31","","","","Rate your confidence","1",""
"390.09999999403954","e","choice","right","i","experimental","275","314331","0.0-4.0-8.32","false","33","3.149999999999999","","",""
"7262.300000011921","4","confid","","","html-slider-response","277","322106","0.0-4.0-10.32-0.32","","","","Rate your confidence","1",""
"2024.800000011921","e","choice","left","e","experimental","284","325983","0.0-4.0-8.33","true","34","3.249999999999999","","",""
"3884.4000000059605","5","confid","","","html-slider-response","286","330379","0.0-4.0-10.33-0.33","","","","Rate your confidence","1",""
"285.90000000596046","i","choice","right","i","experimental","293","332487","0.0-4.0-8.34","true","35","3.249999999999999","","",""
"6344.9000000059605","5","confid","","","html-slider-response","295","339342","0.0-4.0-10.34-0.34","","","","Rate your confidence","1",""
"993.9000000059605","i","choice","left","e","experimental","302","342162","0.0-4.0-8.35","false","36","3.149999999999999","","",""
"5207","4","confid","","","html-slider-response","304","347884","0.0-4.0-10.35-0.35","","","","Rate your confidence","1",""
"1612.699999988079","i","choice","right","i","experimental","311","351313","0.0-4.0-8.36","true","37","3.249999999999999","","",""
"4453","2","confid","","","html-slider-response","313","356278","0.0-4.0-10.36-0.36","","","","Rate your confidence","1",""
"254","e","choice","left","e","experimental","320","358352","0.0-4.0-8.37","true","38","3.249999999999999","","",""
"3025.0999999940395","4","confid","","","html-slider-response","322","361887","0.0-4.0-10.37-0.37","","","","Rate your confidence","1",""
"564.5999999940395","e","choice","left","e","experimental","329","364265","0.0-4.0-8.38","true","39","3.149999999999999","","",""
"2807.4000000059605","4","confid","","","html-slider-response","331","367581","0.0-4.0-10.38-0.38","","","","Rate your confidence","1",""
"734.4000000059605","i","choice","right","i","experimental","338","370141","0.0-4.0-8.39","true","40","3.149999999999999","","",""
"2481","3","confid","","","html-slider-response","340","373138","0.0-4.0-10.39-0.39","","","","Rate your confidence","1",""
"596","i","choice","right","i","experimental","347","375579","0.0-4.0-8.40","true","41","3.049999999999999","","",""
"1892.300000011921","4","confid","","","html-slider-response","349","377983","0.0-4.0-10.40-0.40","","","","Rate your confidence","1",""
"298.2999999821186","e","choice","left","e","experimental","356","380108","0.0-4.0-8.41","true","42","3.049999999999999","","",""
"2931.300000011921","5","confid","","","html-slider-response","358","383558","0.0-4.0-10.41-0.41","","","","Rate your confidence","1",""
"241.19999998807907","e","choice","right","i","experimental","365","385615","0.0-4.0-8.42","false","43","2.949999999999999","","",""
"2952.0999999940395","3","confid","","","html-slider-response","367","389074","0.0-4.0-10.42-0.42","","","","Rate your confidence","1",""
"588.5999999940395","i","choice","left","e","experimental","374","391506","0.0-4.0-8.43","false","44","3.049999999999999","","",""
"3642.7000000178814","3","confid","","","html-slider-response","376","395663","0.0-4.0-10.43-0.43","","","","Rate your confidence","1",""
"496.5","e","choice","left","e","experimental","383","397984","0.0-4.0-8.44","true","45","3.149999999999999","","",""
"2432.2999999821186","4","confid","","","html-slider-response","385","400933","0.0-4.0-10.44-0.44","","","","Rate your confidence","1",""
"242.59999999403954","e","choice","right","i","experimental","392","402991","0.0-4.0-8.45","false","46","3.149999999999999","","",""
"5679","4","confid","","","html-slider-response","394","409195","0.0-4.0-10.45-0.45","","","","Rate your confidence","1",""
"866.4000000059605","i","choice","right","i","experimental","401","411899","0.0-4.0-8.46","true","47","3.249999999999999","","",""
"4195.700000017881","4","confid","","","html-slider-response","403","416607","0.0-4.0-10.46-0.46","","","","Rate your confidence","1",""
"79670.89999997616","i","choice","left","e","experimental","410","498140","0.0-4.0-8.47","false","48","3.249999999999999","","",""
"3263.800000011921","3","confid","","","html-slider-response","412","501915","0.0-4.0-10.47-0.47","","","","Rate your confidence","1",""
"0.5999999940395355","e","choice","left","e","experimental","419","503748","0.0-4.0-8.48","true","49","3.349999999999999","","",""
"2111.5999999940395","4","confid","","","html-slider-response","421","506366","0.0-4.0-10.48-0.48","","","","Rate your confidence","1",""
"568.4000000059605","i","choice","right","i","experimental","428","508744","0.0-4.0-8.49","true","50","3.349999999999999","","",""
"2696.2999999821186","6","confid","","","html-slider-response","430","511945","0.0-4.0-10.49-0.49","","","","Rate your confidence","1",""
"24.69999998807907","e","choice","left","e","experimental","437","513814","0.0-4.0-8.50","true","51","3.249999999999999","","",""
"2293.5","3","confid","","","html-slider-response","439","516621","0.0-4.0-10.50-0.50","","","","Rate your confidence","1",""
"353.60000002384186","i","choice","right","i","experimental","446","518804","0.0-4.0-8.51","true","52","3.249999999999999","","",""
"4156.799999982119","4","confid","","","html-slider-response","448","523465","0.0-4.0-10.51-0.51","","","","Rate your confidence","1",""
"1176.199999988079","i","choice","right","i","experimental","455","526472","0.0-4.0-8.52","true","53","3.149999999999999","","",""
"2340.100000023842","2","confid","","","html-slider-response","457","529322","0.0-4.0-10.52-0.52","","","","Rate your confidence","1",""
"515.8000000119209","e","choice","left","e","experimental","464","531676","0.0-4.0-8.53","true","54","3.149999999999999","","",""
"3945","5","confid","","","html-slider-response","466","536137","0.0-4.0-10.53-0.53","","","","Rate your confidence","1",""
"400.89999997615814","e","choice","left","e","experimental","473","538364","0.0-4.0-8.54","true","55","3.049999999999999","","",""
"3209.2000000178814","4","confid","","","html-slider-response","475","542098","0.0-4.0-10.54-0.54","","","","Rate your confidence","1",""
"482.40000000596046","i","choice","right","i","experimental","482","544433","0.0-4.0-8.55","true","56","3.049999999999999","","",""
"3719.2000000178814","3","confid","","","html-slider-response","484","548658","0.0-4.0-10.55-0.55","","","","Rate your confidence","1",""
"416.2999999821186","e","choice","left","e","experimental","491","550899","0.0-4.0-8.56","true","57","2.949999999999999","","",""
"3277.5","5","confid","","","html-slider-response","493","554684","0.0-4.0-10.56-0.56","","","","Rate your confidence","1",""
"242.90000000596046","e","choice","right","i","experimental","500","556778","0.0-4.0-8.57","false","58","2.949999999999999","","",""
"2789.2999999821186","4","confid","","","html-slider-response","502","560074","0.0-4.0-10.57-0.57","","","","Rate your confidence","1",""
"404.89999997615814","e","choice","right","i","experimental","509","562289","0.0-4.0-8.58","false","59","3.049999999999999","","",""
"2760.4000000059605","4","confid","","","html-slider-response","511","565561","0.0-4.0-10.58-0.58","","","","Rate your confidence","1",""
"334","e","choice","left","e","experimental","518","567712","0.0-4.0-8.59","true","60","3.149999999999999","","",""
"3254","3","confid","","","html-slider-response","520","571493","0.0-4.0-10.59-0.59","","","","Rate your confidence","1",""
"374.40000000596046","e","choice","right","i","experimental","527","573681","0.0-4.0-8.60","false","61","3.149999999999999","","",""
"2161.199999988079","4","confid","","","html-slider-response","529","576355","0.0-4.0-10.60-0.60","","","","Rate your confidence","1",""
"113.2000000178814","e","choice","left","e","experimental","536","578277","0.0-4.0-8.61","true","62","3.249999999999999","","",""
"3019.199999988079","3","confid","","","html-slider-response","538","581811","0.0-4.0-10.61-0.61","","","","Rate your confidence","1",""
"198.59999999403954","i","choice","right","i","experimental","545","583855","0.0-4.0-8.62","true","63","3.249999999999999","","",""
"2103.5","4","confid","","","html-slider-response","547","586462","0.0-4.0-10.62-0.62","","","","Rate your confidence","1",""
"312.80000001192093","e","choice","left","e","experimental","554","588591","0.0-4.0-8.63","true","64","3.149999999999999","","",""
"1890","4","confid","","","html-slider-response","556","590985","0.0-4.0-10.63-0.63","","","","Rate your confidence","1",""
"302.09999999403954","e","choice","left","e","experimental","563","593107","0.0-4.0-8.64","true","65","3.149999999999999","","",""
"3761.5","4","confid","","","html-slider-response","565","597377","0.0-4.0-10.64-0.64","","","","Rate your confidence","1",""
"427","e","choice","right","i","experimental","572","599645","0.0-4.0-8.65","false","66","3.049999999999999","","",""
"7620.9000000059605","3","confid","","","html-slider-response","574","607776","0.0-4.0-10.65-0.65","","","","Rate your confidence","1",""
"269.2999999821186","e","choice","left","e","experimental","581","609879","0.0-4.0-8.66","true","67","3.149999999999999","","",""
"2651.300000011921","3","confid","","","html-slider-response","583","613048","0.0-4.0-10.66-0.66","","","","Rate your confidence","1",""
"693","i","choice","right","i","experimental","590","615577","0.0-4.0-8.67","true","68","3.149999999999999","","",""
"2067.7999999821186","4","confid","","","html-slider-response","592","618154","0.0-4.0-10.67-0.67","","","","Rate your confidence","1",""
"845.3000000119209","e","choice","left","e","experimental","600","36677675","0.0-4.0-8.68","true","69","3.049999999999999","","",""
"4399.199999988079","6","confid","","","html-slider-response","602","36682586","0.0-4.0-10.68-0.68","","","","Rate your confidence","1",""
"44574.40000000596","e","choice","right","i","experimental","609","36729014","0.0-4.0-8.69","false","70","3.049999999999999","","",""
"37708","1","confid","","","html-slider-response","611","36767230","0.0-4.0-10.69-0.69","","","","Rate your confidence","1",""
"1049.300000011921","i","choice","left","e","experimental","618","36770101","0.0-4.0-8.70","false","71","3.149999999999999","","",""
"3563.5999999940395","5","confid","","","html-slider-response","620","36774172","0.0-4.0-10.70-0.70","","","","Rate your confidence","1",""
"697.7999999821186","i","choice","right","i","experimental","627","36776719","0.0-4.0-8.71","true","72","3.249999999999999","","",""
"3366.0999999940395","5","confid","","","html-slider-response","629","36780588","0.0-4.0-10.71-0.71","","","","Rate your confidence","1",""
"1680.9000000059605","i","choice","right","i","experimental","636","36784107","0.0-4.0-8.72","true","73","3.249999999999999","","",""
"5075.600000023842","1","confid","","","html-slider-response","638","36789698","0.0-4.0-10.72-0.72","","","","Rate your confidence","1",""
"513.8999999761581","e","choice","left","e","experimental","645","36792032","0.0-4.0-8.73","true","74","3.149999999999999","","",""
"2095.5","4","confid","","","html-slider-response","647","36794642","0.0-4.0-10.73-0.73","","","","Rate your confidence","1",""
"1385.800000011921","e","choice","left","e","experimental","654","36797864","0.0-4.0-8.74","true","75","3.149999999999999","","",""
"5396.4000000059605","2","confid","","","html-slider-response","656","36803768","0.0-4.0-10.74-0.74","","","","Rate your confidence","1",""
"823.7000000178814","i","choice","right","i","experimental","663","36806451","0.0-4.0-8.75","true","76","3.049999999999999","","",""
"4896.300000011921","4","confid","","","html-slider-response","665","36811852","0.0-4.0-10.75-0.75","","","","Rate your confidence","1",""
"717.6999999880791","i","choice","right","i","experimental","672","36814413","0.0-4.0-8.76","true","77","3.049999999999999","","",""
"53895.69999998808","2","confid","","","html-slider-response","674","36868830","0.0-4.0-10.76-0.76","","","","Rate your confidence","1",""
"1783.699999988079","e","choice","left","e","experimental","681","36872454","0.0-4.0-8.77","true","78","2.949999999999999","","",""
"3469.099999964237","6","confid","","","html-slider-response","683","36876444","0.0-4.0-10.77-0.77","","","","Rate your confidence","1",""
"275.39999997615814","i","choice","right","i","experimental","690","36878538","0.0-4.0-8.78","true","79","2.949999999999999","","",""
"3117.400000035763","4","confid","","","html-slider-response","692","36882161","0.0-4.0-10.78-0.78","","","","Rate your confidence","1",""
"1561.8999999761581","e","choice","left","e","experimental","699","36885558","0.0-4.0-8.79","true","80","2.8499999999999988","","",""
"6470.399999976158","3","confid","","","html-slider-response","701","36892537","0.0-4.0-10.79-0.79","","","","Rate your confidence","1",""
"1208.800000011921","e","choice","right","i","experimental","708","36895592","0.0-4.0-8.80","false","81","2.8499999999999988","","",""
"6742.5","3","confid","","","html-slider-response","710","36902843","0.0-4.0-10.80-0.80","","","","Rate your confidence","1",""
"2242.400000035763","e","choice","left","e","experimental","717","36906938","0.0-4.0-8.81","true","82","2.949999999999999","","",""
"7065.300000011921","4","confid","","","html-slider-response","719","36914516","0.0-4.0-10.81-0.81","","","","Rate your confidence","1",""
"894.6000000238419","i","choice","left","e","experimental","726","36917248","0.0-4.0-8.82","false","83","2.949999999999999","","",""
"4054.900000035763","4","confid","","","html-slider-response","728","36921831","0.0-4.0-10.82-0.82","","","","Rate your confidence","1",""
"571.8999999761581","i","choice","right","i","experimental","735","36924223","0.0-4.0-8.83","true","84","3.049999999999999","","",""
"2581.199999988079","3","confid","","","html-slider-response","737","36927313","0.0-4.0-10.83-0.83","","","","Rate your confidence","1",""
"670.1000000238419","i","choice","left","e","experimental","744","36929832","0.0-4.0-8.84","false","85","3.049999999999999","","",""
"3168.5","4","confid","","","html-slider-response","746","36933509","0.0-4.0-10.84-0.84","","","","Rate your confidence","1",""
"435.39999997615814","i","choice","right","i","experimental","753","36935795","0.0-4.0-8.85","true","86","3.149999999999999","","",""
"4877.599999964237","5","confid","","","html-slider-response","755","36941182","0.0-4.0-10.85-0.85","","","","Rate your confidence","1",""
"1367.6000000238419","i","choice","left","e","experimental","762","36944366","0.0-4.0-8.86","false","87","3.149999999999999","","",""
"2525.399999976158","4","confid","","","html-slider-response","764","36947418","0.0-4.0-10.86-0.86","","","","Rate your confidence","1",""
"557.3000000119209","i","choice","right","i","experimental","771","36949789","0.0-4.0-8.87","true","88","3.249999999999999","","",""
"3006.2999999523163","4","confid","","","html-slider-response","773","36953305","0.0-4.0-10.87-0.87","","","","Rate your confidence","1",""
"1369.800000011921","e","choice","left","e","experimental","780","36956514","0.0-4.0-8.88","true","89","3.249999999999999","","",""
"2609.899999976158","3","confid","","","html-slider-response","782","36959632","0.0-4.0-10.88-0.88","","","","Rate your confidence","1",""
"429.30000001192093","i","choice","right","i","experimental","789","36961902","0.0-4.0-8.89","true","90","3.149999999999999","","",""
"2696.300000011921","3","confid","","","html-slider-response","791","36965106","0.0-4.0-10.89-0.89","","","","Rate your confidence","1",""
"1005","i","choice","left","e","experimental","798","36967930","0.0-4.0-8.90","false","91","3.149999999999999","","",""
"3883.699999988079","1","confid","","","html-slider-response","800","36972325","0.0-4.0-10.90-0.90","","","","Rate your confidence","1",""
"513.3999999761581","i","choice","right","i","experimental","807","36974673","0.0-4.0-8.91","true","92","3.249999999999999","","",""
"3537.600000023842","4","confid","","","html-slider-response","809","36978722","0.0-4.0-10.91-0.91","","","","Rate your confidence","1",""
"311.89999997615814","i","choice","right","i","experimental","816","36980878","0.0-4.0-8.92","true","93","3.249999999999999","","",""
"2153.199999988079","4","confid","","","html-slider-response","818","36983541","0.0-4.0-10.92-0.92","","","","Rate your confidence","1",""
"830.4000000357628","e","choice","left","e","experimental","825","36986221","0.0-4.0-8.93","true","94","3.149999999999999","","",""
"2052.5","3","confid","","","html-slider-response","827","36988789","0.0-4.0-10.93-0.93","","","","Rate your confidence","1",""
"390.80000001192093","i","choice","right","i","experimental","834","36991021","0.0-4.0-8.94","true","95","3.149999999999999","","",""
"2547","4","confid","","","html-slider-response","836","36994080","0.0-4.0-10.94-0.94","","","","Rate your confidence","1",""
"939.8000000119209","e","choice","left","e","experimental","843","36996850","0.0-4.0-8.95","true","96","3.049999999999999","","",""
"3119.300000011921","3","confid","","","html-slider-response","845","37000486","0.0-4.0-10.95-0.95","","","","Rate your confidence","1",""
"471.69999998807907","i","choice","right","i","experimental","852","37002818","0.0-4.0-8.96","true","97","3.049999999999999","","",""
"2808.100000023842","3","confid","","","html-slider-response","854","37006141","0.0-4.0-10.96-0.96","","","","Rate your confidence","1",""
"464.80000001192093","e","choice","left","e","experimental","861","37008431","0.0-4.0-8.97","true","98","2.949999999999999","","",""
"2153.100000023842","6","confid","","","html-slider-response","863","37011100","0.0-4.0-10.97-0.97","","","","Rate your confidence","1",""
"6626","i","choice","right","i","experimental","870","37019546","0.0-4.0-8.98","true","99","2.949999999999999","","",""
"13849.600000023842","1","confid","","","html-slider-response","872","37033907","0.0-4.0-10.98-0.98","","","","Rate your confidence","1",""
"18094.80000001192","e","choice","left","e","experimental","879","37053823","0.0-4.0-8.99","true","100","2.8499999999999988","","",""
"3140.399999976158","4","confid","","","html-slider-response","881","37057469","0.0-4.0-10.99-0.99","","","","Rate your confidence","1",""
"369.4000000357628","i","choice","left","e","experimental","888","37059700","0.0-4.0-8.100","false","101","2.8499999999999988","","",""
"19018.600000023842","3","confid","","","html-slider-response","890","37079225","0.0-4.0-10.100-0.100","","","","Rate your confidence","1",""
"768.1999999880791","e","choice","right","i","experimental","897","37081831","0.0-4.0-8.101","false","102","2.949999999999999","","",""
"2665.399999976158","3","confid","","","html-slider-response","899","37085009","0.0-4.0-10.101-0.101","","","","Rate your confidence","1",""
"380","i","choice","right","i","experimental","906","37087214","0.0-4.0-8.102","true","103","3.049999999999999","","",""
"2582.699999988079","4","confid","","","html-slider-response","908","37090303","0.0-4.0-10.102-0.102","","","","Rate your confidence","1",""
"147417.30000001192","e","choice","left","e","experimental","915","37239561","0.0-4.0-8.103","true","104","3.049999999999999","","",""
"6377.599999964237","1","confid","","","html-slider-response","917","37246445","0.0-4.0-10.103-0.103","","","","Rate your confidence","1",""
"694.8999999761581","e","choice","right","i","experimental","924","37248957","0.0-4.0-8.104","false","105","2.949999999999999","","",""
"5867","2","confid","","","html-slider-response","926","37255337","0.0-4.0-10.104-0.104","","","","Rate your confidence","1",""
"873.2999999523163","i","choice","left","e","experimental","933","37258060","0.0-4.0-8.105","false","106","3.049999999999999","","",""
"3283.100000023842","3","confid","","","html-slider-response","935","37261855","0.0-4.0-10.105-0.105","","","","Rate your confidence","1",""
"1827.300000011921","e","choice","right","i","experimental","942","37265511","0.0-4.0-8.106","false","107","3.149999999999999","","",""
"4888.5","3","confid","","","html-slider-response","944","37270912","0.0-4.0-10.106-0.106","","","","Rate your confidence","1",""
"1000","e","choice","left","e","experimental","951","37273727","0.0-4.0-8.107","true","108","3.249999999999999","","",""
"4331.900000035763","6","confid","","","html-slider-response","953","37278565","0.0-4.0-10.107-0.107","","","","Rate your confidence","1",""
"417.30000001192093","e","choice","left","e","experimental","960","37280807","0.0-4.0-8.108","true","109","3.249999999999999","","",""
"2145","4","confid","","","html-slider-response","962","37283463","0.0-4.0-10.108-0.108","","","","Rate your confidence","1",""
"1046.5","i","choice","right","i","experimental","969","37286365","0.0-4.0-8.109","true","110","3.149999999999999","","",""
"3124.100000023842","3","confid","","","html-slider-response","971","37290006","0.0-4.0-10.109-0.109","","","","Rate your confidence","1",""
"574.9000000357628","e","choice","left","e","experimental","979","37317003","0.0-4.0-8.110","true","111","3.149999999999999","","",""
"3573.2999999523163","3","confid","","","html-slider-response","981","37321082","0.0-4.0-10.110-0.110","","","","Rate your confidence","1",""
"467.5","i","choice","right","i","experimental","988","37323368","0.0-4.0-8.111","true","112","3.049999999999999","","",""
"2043.199999988079","4","confid","","","html-slider-response","990","37325918","0.0-4.0-10.111-0.111","","","","Rate your confidence","1",""
"664.6999999880791","e","choice","left","e","experimental","997","37328414","0.0-4.0-8.112","true","113","3.049999999999999","","",""
"3174.600000023842","2","confid","","","html-slider-response","999","37332110","0.0-4.0-10.112-0.112","","","","Rate your confidence","1",""
"1629.8999999761581","e","choice","right","i","experimental","1006","37335569","0.0-4.0-8.113","false","114","2.949999999999999","","",""
"3874.199999988079","3","confid","","","html-slider-response","1008","37339956","0.0-4.0-10.113-0.113","","","","Rate your confidence","1",""
"655.1999999880791","i","choice","right","i","experimental","1015","37342455","0.0-4.0-8.114","true","115","3.049999999999999","","",""
"2817","4","confid","","","html-slider-response","1017","37345787","0.0-4.0-10.114-0.114","","","","Rate your confidence","1",""
"1888.699999988079","e","choice","left","e","experimental","1024","37349510","0.0-4.0-8.115","true","116","3.049999999999999","","",""
"1980.1000000238419","3","confid","","","html-slider-response","1026","37352007","0.0-4.0-10.115-0.115","","","","Rate your confidence","1",""
"1224.8999999761581","i","choice","left","e","experimental","1033","37355077","0.0-4.0-8.116","false","117","2.949999999999999","","",""
"2905.899999976158","2","confid","","","html-slider-response","1035","37358503","0.0-4.0-10.116-0.116","","","","Rate your confidence","1",""
"6160.600000023842","i","choice","right","i","experimental","1042","37366499","0.0-4.0-8.117","true","118","3.049999999999999","","",""
"13413.700000047684","2","confid","","","html-slider-response","1044","37380420","0.0-4.0-10.117-0.117","","","","Rate your confidence","1",""
"532.7000000476837","i","choice","left","e","experimental","1051","37382779","0.0-4.0-8.118","false","119","3.049999999999999","","",""
"2826.800000011921","2","confid","","","html-slider-response","1053","37386128","0.0-4.0-10.118-0.118","","","","Rate your confidence","1",""
"5079.800000011921","i","choice","right","i","experimental","1060","37393039","0.0-4.0-8.119","true","120","3.149999999999999","","",""
"2830.5","2","confid","","","html-slider-response","1062","37396378","0.0-4.0-10.119-0.119","","","","Rate your confidence","1",""
"573.8999999761581","i","choice","right","i","experimental","1069","37398766","0.0-4.0-8.120","true","121","3.149999999999999","","",""
"1746.800000011921","3","confid","","","html-slider-response","1071","37401023","0.0-4.0-10.120-0.120","","","","Rate your confidence","1",""
"672.1000000238419","i","choice","left","e","experimental","1078","37403535","0.0-4.0-8.121","false","122","3.049999999999999","","",""
"2775.199999988079","4","confid","","","html-slider-response","1080","37406823","0.0-4.0-10.121-0.121","","","","Rate your confidence","1",""
"836.2000000476837","e","choice","left","e","experimental","1087","37409522","0.0-4.0-8.122","true","123","3.149999999999999","","",""
"5193","5","confid","","","html-slider-response","1089","37415226","0.0-4.0-10.122-0.122","","","","Rate your confidence","1",""
"2646","i","choice","right","i","experimental","1096","37419697","0.0-4.0-8.123","true","124","3.149999999999999","","",""
"2333.100000023842","3","confid","","","html-slider-response","1098","37422550","0.0-4.0-10.123-0.123","","","","Rate your confidence","1",""
"5670.900000035763","i","choice","left","e","experimental","1105","37430057","0.0-4.0-8.124","false","125","3.049999999999999","","",""
"3483.600000023842","3","confid","","","html-slider-response","1107","37434054","0.0-4.0-10.124-0.124","","","","Rate your confidence","1",""
"657.5999999642372","i","choice","right","i","experimental","1114","37436532","0.0-4.0-8.125","true","126","3.149999999999999","","",""
"28447.80000001192","3","confid","","","html-slider-response","1116","37465491","0.0-4.0-10.125-0.125","","","","Rate your confidence","1",""
"946.6999999880791","i","choice","right","i","experimental","1123","37468254","0.0-4.0-8.126","true","127","3.149999999999999","","",""
"9345.699999988079","4","confid","","","html-slider-response","1125","37478112","0.0-4.0-10.126-0.126","","","","Rate your confidence","1",""
"583.4000000357628","e","choice","left","e","experimental","1132","37480512","0.0-4.0-8.127","true","128","3.049999999999999","","",""
"9554.599999964237","5","confid","","","html-slider-response","1134","37490577","0.0-4.0-10.127-0.127","","","","Rate your confidence","1",""
"2498.300000011921","e","choice","left","e","experimental","1141","37494910","0.0-4.0-8.128","true","129","3.049999999999999","","",""
"4612.600000023842","1","confid","","","html-slider-response","1143","37500028","0.0-4.0-10.128-0.128","","","","Rate your confidence","1",""
"967.5","e","choice","right","i","experimental","1150","37502816","0.0-4.0-8.129","false","130","2.949999999999999","","",""
"9503","4","confid","","","html-slider-response","1152","37512831","0.0-4.0-10.129-0.129","","","","Rate your confidence","1",""
"666.3999999761581","e","choice","right","i","experimental","1159","37515355","0.0-4.0-8.130","false","131","3.049999999999999","","",""
"1860.3999999761581","3","confid","","","html-slider-response","1161","37517729","0.0-4.0-10.130-0.130","","","","Rate your confidence","1",""
"85407.5","i","choice","left","e","experimental","1168","37604951","0.0-4.0-8.131","false","132","3.149999999999999","","",""
"2919.5","3","confid","","","html-slider-response","1170","37608396","0.0-4.0-10.131-0.131","","","","Rate your confidence","1",""
"940.5","e","choice","left","e","experimental","1177","37611169","0.0-4.0-8.132","true","133","3.249999999999999","","",""
"5015.100000023842","2","confid","","","html-slider-response","1179","37616701","0.0-4.0-10.132-0.132","","","","Rate your confidence","1",""
"821.6000000238419","e","choice","right","i","experimental","1186","37619362","0.0-4.0-8.133","false","134","3.249999999999999","","",""
"3934","3","confid","","","html-slider-response","1188","37623802","0.0-4.0-10.133-0.133","","","","Rate your confidence","1",""
"751.3999999761581","e","choice","left","e","experimental","1195","37626396","0.0-4.0-8.134","true","135","3.349999999999999","","",""
"2963.099999964237","5","confid","","","html-slider-response","1197","37629865","0.0-4.0-10.134-0.134","","","","Rate your confidence","1",""
"2085.899999976158","i","choice","right","i","experimental","1204","37633783","0.0-4.0-8.135","true","136","3.349999999999999","","",""
"3270.599999964237","3","confid","","","html-slider-response","1206","37637586","0.0-4.0-10.135-0.135","","","","Rate your confidence","1",""
"1391.199999988079","i","choice","right","i","experimental","1213","37640844","0.0-4.0-8.136","true","137","3.249999999999999","","",""
"1854.3999999761581","2","confid","","","html-slider-response","1215","37643205","0.0-4.0-10.136-0.136","","","","Rate your confidence","1",""
"1700.699999988079","e","choice","left","e","experimental","1222","37646723","0.0-4.0-8.137","true","138","3.249999999999999","","",""
"4533.900000035763","4","confid","","","html-slider-response","1224","37651775","0.0-4.0-10.137-0.137","","","","Rate your confidence","1",""
"752.8000000119209","e","choice","left","e","experimental","1231","37654378","0.0-4.0-8.138","true","139","3.149999999999999","","",""
"4037.300000011921","5","confid","","","html-slider-response","1233","37658937","0.0-4.0-10.138-0.138","","","","Rate your confidence","1",""
"1137.8999999761581","i","choice","right","i","experimental","1240","37661916","0.0-4.0-8.139","true","140","3.149999999999999","","",""
"87433","3","confid","","","html-slider-response","1242","37749848","0.0-4.0-10.139-0.139","","","","Rate your confidence","1",""
"922.8999999761581","i","choice","right","i","experimental","1249","37752589","0.0-4.0-8.140","true","141","3.049999999999999","","",""
"2661.199999988079","4","confid","","","html-slider-response","1251","37755762","0.0-4.0-10.140-0.140","","","","Rate your confidence","1",""
"137543.40000003576","e","choice","left","e","experimental","1258","37895143","0.0-4.0-8.141","true","142","3.049999999999999","","",""
"12781.700000047684","4","confid","","","html-slider-response","1260","37908436","0.0-4.0-10.141-0.141","","","","Rate your confidence","1",""
"725.4000000357628","i","choice","right","i","experimental","1267","37910990","0.0-4.0-8.142","true","143","2.949999999999999","","",""
"2319","4","confid","","","html-slider-response","1269","37913819","0.0-4.0-10.142-0.142","","","","Rate your confidence","1",""
"16382.200000047684","e","choice","left","e","experimental","1276","37932018","0.0-4.0-8.143","true","144","2.949999999999999","","",""
"3549.2999999523163","4","confid","","","html-slider-response","1278","37936073","0.0-4.0-10.143-0.143","","","","Rate your confidence","1",""
"611.5999999642372","e","choice","right","i","experimental","1285","37938501","0.0-4.0-8.144","false","145","2.8499999999999988","","",""
"2339.199999988079","3","confid","","","html-slider-response","1287","37941352","0.0-4.0-10.144-0.144","","","","Rate your confidence","1",""
"673.1000000238419","e","choice","left","e","experimental","1294","37943856","0.0-4.0-8.145","true","146","2.949999999999999","","",""
"1598.199999988079","3","confid","","","html-slider-response","1296","37945961","0.0-4.0-10.145-0.145","","","","Rate your confidence","1",""
"737.1000000238419","i","choice","right","i","experimental","1303","37948542","0.0-4.0-8.146","true","147","2.949999999999999","","",""
"2970.100000023842","5","confid","","","html-slider-response","1305","37952023","0.0-4.0-10.146-0.146","","","","Rate your confidence","1",""
"488.4000000357628","i","choice","left","e","experimental","1312","37954331","0.0-4.0-8.147","false","148","2.8499999999999988","","",""
"2293.7999999523163","4","confid","","","html-slider-response","1314","37957132","0.0-4.0-10.147-0.147","","","","Rate your confidence","1",""
"626","e","choice","left","e","experimental","1321","37959607","0.0-4.0-8.148","true","149","2.949999999999999","","",""
"2509.399999976158","6","confid","","","html-slider-response","1323","37962628","0.0-4.0-10.148-0.148","","","","Rate your confidence","1",""
"847.7999999523163","i","choice","right","i","experimental","1330","37965312","0.0-4.0-8.149","true","150","2.949999999999999","","",""
"21073.099999964237","3","confid","","","html-slider-response","1332","37986892","0.0-4.0-10.149-0.149","","","","Rate your confidence","1",""
"898.9000000357628","e","choice","left","e","experimental","1339","37989623","0.0-4.0-8.150","true","151","2.8499999999999988","","",""
"4769.800000011921","4","confid","","","html-slider-response","1341","37994897","0.0-4.0-10.150-0.150","","","","Rate your confidence","1",""
"7100.400000035763","e","choice","right","i","experimental","1348","38003841","0.0-4.0-8.151","false","152","2.8499999999999988","","",""
"106702.10000002384","4","confid","","","html-slider-response","1350","38111037","0.0-4.0-10.151-0.151","","","","Rate your confidence","1",""
"1362.2999999523163","i","choice","right","i","experimental","1358","38115501","0.0-4.0-8.152","true","153","2.949999999999999","","",""
"4011.199999988079","3","confid","","","html-slider-response","1360","38120027","0.0-4.0-10.152-0.152","","","","Rate your confidence","1",""
"594.5999999642372","e","choice","left","e","experimental","1367","38122436","0.0-4.0-8.153","true","154","2.949999999999999","","",""
"3192.7000000476837","3","confid","","","html-slider-response","1369","38126138","0.0-4.0-10.153-0.153","","","","Rate your confidence","1",""
"39392.5","e","choice","left","e","experimental","1376","38167365","0.0-4.0-8.154","true","155","2.8499999999999988","","",""
"4297.700000047684","4","confid","","","html-slider-response","1378","38172174","0.0-4.0-10.154-0.154","","","","Rate your confidence","1",""
"1288","i","choice","right","i","experimental","1385","38175276","0.0-4.0-8.155","true","156","2.8499999999999988","","",""
"4748.5","3","confid","","","html-slider-response","1387","38180538","0.0-4.0-10.155-0.155","","","","Rate your confidence","1",""
"1230.800000011921","i","choice","right","i","experimental","1394","38183591","0.0-4.0-8.156","true","157","2.7499999999999987","","",""
"5369.899999976158","4","confid","","","html-slider-response","1396","38189475","0.0-4.0-10.156-0.156","","","","Rate your confidence","1",""
"1221.199999988079","e","choice","left","e","experimental","1403","38192538","0.0-4.0-8.157","true","158","2.7499999999999987","","",""
"4343.199999988079","5","confid","","","html-slider-response","1405","38197392","0.0-4.0-10.157-0.157","","","","Rate your confidence","1",""
"1576.9000000357628","e","choice","left","e","experimental","1412","38200796","0.0-4.0-8.158","true","159","2.6499999999999986","","",""
"4707.300000011921","4","confid","","","html-slider-response","1414","38206008","0.0-4.0-10.158-0.158","","","","Rate your confidence","1",""
"461.69999998807907","i","choice","right","i","experimental","1421","38208317","0.0-4.0-8.159","true","160","2.6499999999999986","","",""
"3375.699999988079","4","confid","","","html-slider-response","1423","38212209","0.0-4.0-10.159-0.159","","","","Rate your confidence","1",""
"1597.2000000476837","e","choice","right","i","experimental","1430","38215668","0.0-4.0-8.160","false","161","2.5499999999999985","","",""
"2469.5","3","confid","","","html-slider-response","1432","38218644","0.0-4.0-10.160-0.160","","","","Rate your confidence","1",""
"1037.6000000238419","e","choice","left","e","experimental","1439","38221522","0.0-4.0-8.161","true","162","2.6499999999999986","","",""
"3878.199999988079","4","confid","","","html-slider-response","1441","38225919","0.0-4.0-10.161-0.161","","","","Rate your confidence","1",""
"541.1000000238419","i","choice","right","i","experimental","1448","38228284","0.0-4.0-8.162","true","163","2.6499999999999986","","",""
"2684.5","3","confid","","","html-slider-response","1450","38231482","0.0-4.0-10.162-0.162","","","","Rate your confidence","1",""
"1080.0999999642372","e","choice","left","e","experimental","1457","38234404","0.0-4.0-8.163","true","164","2.5499999999999985","","",""
"3142.699999988079","4","confid","","","html-slider-response","1459","38238059","0.0-4.0-10.163-0.163","","","","Rate your confidence","1",""
"1670.199999988079","e","choice","right","i","experimental","1466","38241575","0.0-4.0-8.164","false","165","2.5499999999999985","","",""
"3515.300000011921","3","confid","","","html-slider-response","1468","38245594","0.0-4.0-10.164-0.164","","","","Rate your confidence","1",""
"716.3000000119209","e","choice","left","e","experimental","1475","38248135","0.0-4.0-8.165","true","166","2.6499999999999986","","",""
"3145.099999964237","2","confid","","","html-slider-response","1477","38251791","0.0-4.0-10.165-0.165","","","","Rate your confidence","1",""
"484.7000000476837","i","choice","right","i","experimental","1484","38254099","0.0-4.0-8.166","true","167","2.6499999999999986","","",""
"55883.5","5","confid","","","html-slider-response","1486","38310492","0.0-4.0-10.166-0.166","","","","Rate your confidence","1",""
"548.8000000119209","e","choice","left","e","experimental","1493","38312890","0.0-4.0-8.167","true","168","2.5499999999999985","","",""
"2711.699999988079","4","confid","","","html-slider-response","1495","38316112","0.0-4.0-10.167-0.167","","","","Rate your confidence","1",""
"2647.800000011921","e","choice","right","i","experimental","1502","38320623","0.0-4.0-8.168","false","169","2.5499999999999985","","",""
"4245.099999964237","4","confid","","","html-slider-response","1504","38325374","0.0-4.0-10.168-0.168","","","","Rate your confidence","1",""
"929.8999999761581","e","choice","left","e","experimental","1511","38328118","0.0-4.0-8.169","true","170","2.6499999999999986","","",""
"3416.899999976158","4","confid","","","html-slider-response","1513","38332050","0.0-4.0-10.169-0.169","","","","Rate your confidence","1",""
"1157.699999988079","e","choice","right","i","experimental","1520","38335024","0.0-4.0-8.170","false","171","2.6499999999999986","","",""
"6780.800000011921","3","confid","","","html-slider-response","1522","38342309","0.0-4.0-10.170-0.170","","","","Rate your confidence","1",""
"1430.5","e","choice","left","e","experimental","1529","38345547","0.0-4.0-8.171","true","172","2.7499999999999987","","",""
"3657.5","3","confid","","","html-slider-response","1531","38349711","0.0-4.0-10.171-0.171","","","","Rate your confidence","1",""
"1320.7000000476837","e","choice","left","e","experimental","1538","38352867","0.0-4.0-8.172","true","173","2.7499999999999987","","",""
"4600.800000011921","3","confid","","","html-slider-response","1540","38357976","0.0-4.0-10.172-0.172","","","","Rate your confidence","1",""
"647.8000000119209","e","choice","right","i","experimental","1547","38360458","0.0-4.0-8.173","false","174","2.6499999999999986","","",""
"11460.799999952316","4","confid","","","html-slider-response","1549","38372429","0.0-4.0-10.173-0.173","","","","Rate your confidence","1",""
"2138.300000011921","i","choice","right","i","experimental","1556","38376409","0.0-4.0-8.174","true","175","2.7499999999999987","","",""
"8292.300000011921","3","confid","","","html-slider-response","1558","38385221","0.0-4.0-10.174-0.174","","","","Rate your confidence","1",""
"1504.5999999642372","e","choice","left","e","experimental","1565","38388547","0.0-4.0-8.175","true","176","2.7499999999999987","","",""
"3187.300000011921","3","confid","","","html-slider-response","1567","38392244","0.0-4.0-10.175-0.175","","","","Rate your confidence","1",""
"1325.699999988079","e","choice","right","i","experimental","1574","38395418","0.0-4.0-8.176","false","177","2.6499999999999986","","",""
"2645","3","confid","","","html-slider-response","1576","38398577","0.0-4.0-10.176-0.176","","","","Rate your confidence","1",""
"1127.800000011921","i","choice","left","e","experimental","1583","38401542","0.0-4.0-8.177","false","178","2.7499999999999987","","",""
"3579.800000011921","5","confid","","","html-slider-response","1585","38405638","0.0-4.0-10.177-0.177","","","","Rate your confidence","1",""
"717","e","choice","left","e","experimental","1592","38408202","0.0-4.0-8.178","true","179","2.8499999999999988","","",""
"3467.899999976158","4","confid","","","html-slider-response","1594","38412176","0.0-4.0-10.178-0.178","","","","Rate your confidence","1",""
"706.9000000357628","i","choice","right","i","experimental","1601","38414707","0.0-4.0-8.179","true","180","2.8499999999999988","","",""
"2581","4","confid","","","html-slider-response","1603","38417794","0.0-4.0-10.179-0.179","","","","Rate your confidence","1",""
"310.69999998807907","i","choice","right","i","experimental","1610","38419913","0.0-4.0-8.180","true","181","2.7499999999999987","","",""
"2723.900000035763","4","confid","","","html-slider-response","1612","38423147","0.0-4.0-10.180-0.180","","","","Rate your confidence","1",""
"2961.2000000476837","e","choice","left","e","experimental","1619","38427934","0.0-4.0-8.181","true","182","2.7499999999999987","","",""
"4649.5","3","confid","","","html-slider-response","1621","38433087","0.0-4.0-10.181-0.181","","","","Rate your confidence","1",""
"1209.3999999761581","i","choice","right","i","experimental","1628","38436150","0.0-4.0-8.182","true","183","2.6499999999999986","","",""
"2927.899999976158","4","confid","","","html-slider-response","1630","38439590","0.0-4.0-10.182-0.182","","","","Rate your confidence","1",""
"728.6000000238419","e","choice","left","e","experimental","1637","38442174","0.0-4.0-8.183","true","184","2.6499999999999986","","",""
"2878.300000011921","3","confid","","","html-slider-response","1639","38445571","0.0-4.0-10.183-0.183","","","","Rate your confidence","1",""
"2984.099999964237","i","choice","right","i","experimental","1646","38450396","0.0-4.0-8.184","true","185","2.5499999999999985","","",""
"3241.300000011921","4","confid","","","html-slider-response","1648","38454146","0.0-4.0-10.184-0.184","","","","Rate your confidence","1",""
"2408.199999988079","e","choice","left","e","experimental","1655","38458392","0.0-4.0-8.185","true","186","2.5499999999999985","","",""
"497674.3000000119","4","confid","","","html-slider-response","1657","38956538","0.0-4.0-10.185-0.185","","","","Rate your confidence","1",""
"252.19999998807907","i","choice","left","e","experimental","1664","38958635","0.0-4.0-8.186","false","187","2.4499999999999984","","",""
"2727.800000011921","5","confid","","","html-slider-response","1666","38961867","0.0-4.0-10.186-0.186","","","","Rate your confidence","1",""
"2148.300000011921","i","choice","right","i","experimental","1673","38965866","0.0-4.0-8.187","true","188","2.5499999999999985","","",""
"4362.599999964237","1","confid","","","html-slider-response","1675","38970740","0.0-4.0-10.187-0.187","","","","Rate your confidence","1",""
"765.6000000238419","e","choice","right","i","experimental","1682","38973313","0.0-4.0-8.188","false","189","2.5499999999999985","","",""
"1995","3","confid","","","html-slider-response","1684","38975818","0.0-4.0-10.188-0.188","","","","Rate your confidence","1",""
"475.19999998807907","e","choice","left","e","experimental","1691","38978114","0.0-4.0-8.189","true","190","2.6499999999999986","","",""
"2142.900000035763","3","confid","","","html-slider-response","1693","38980791","0.0-4.0-10.189-0.189","","","","Rate your confidence","1",""
"539.2000000476837","e","choice","left","e","experimental","1700","38983162","0.0-4.0-8.190","true","191","2.6499999999999986","","",""
"23621.5","3","confid","","","html-slider-response","1702","39007289","0.0-4.0-10.190-0.190","","","","Rate your confidence","1",""
"791.6000000238419","i","choice","right","i","experimental","1709","39009896","0.0-4.0-8.191","true","192","2.5499999999999985","","",""
"4471.600000023842","4","confid","","","html-slider-response","1711","39014876","0.0-4.0-10.191-0.191","","","","Rate your confidence","1",""
"463.39999997615814","i","choice","right","i","experimental","1718","39017148","0.0-4.0-8.192","true","193","2.5499999999999985","","",""
"2306.199999988079","3","confid","","","html-slider-response","1720","39019963","0.0-4.0-10.192-0.192","","","","Rate your confidence","1",""
"1006.4000000357628","e","choice","left","e","experimental","1727","39022817","0.0-4.0-8.193","true","194","2.4499999999999984","","",""
"2081.400000035763","5","confid","","","html-slider-response","1729","39025409","0.0-4.0-10.193-0.193","","","","Rate your confidence","1","96622"
