"rt","response","task","target_side","correct_response","trial_type","trial_index","time_elapsed","internal_node_id","correct","trial_number","n_dots","stimulus","slider_start","participant"
"1115.5999999999767","e","choice","right","i","practice","10","233432","0.0-4.0-8.0","false","1","4.25","","",""
"595.4000000000233","e","choice","left","e","practice","18","236320","0.0-4.0-8.1","true","2","4.65","","",""
"286.30000000004657","i","choice","right","i","practice","26","238928","0.0-4.0-8.2","true","3","4.65","","",""
"284.0999999999767","e","choice","left","e","practice","34","241495","0.0-4.0-8.3","true","4","4.25","","",""
"281","e","choice","left","e","practice","42","244095","0.0-4.0-8.4","true","5","4.25","","",""
"660.4000000000233","i","choice","right","i","practice","50","247031","0.0-4.0-8.5","true","6","3.85","","",""
"10.599999999976717","e","choice","left","e","practice","58","249335","0.0-4.0-8.6","true","7","3.85","","",""
"114.09999999997672","i","choice","right","i","practice","66","251743","0.0-4.0-8.7","true","8","3.65","","",""
"30558.5","e","choice","left","e","practice","74","284632","0.0-4.0-8.8","true","9","3.65","","",""
"1351.6000000000931","i","choice","right","i","practice","82","288335","0.0-4.0-8.9","true","10","3.4499999999999997","","",""
"327.69999999995343","i","choice","right","i","practice","90","290975","0.0-4.0-8.10","true","11","3.4499999999999997","","",""
"322.29999999993015","e","choice","left","e","practice","98","293582","0.0-4.0-8.11","true","12","3.3499999999999996","","",""
"507.39999999990687","i","choice","right","i","practice","106","296367","0.0-4.0-8.12","true","13","3.3499999999999996","","",""
"281.69999999995343","e","choice","left","e","practice","114","298937","0.0-4.0-8.13","true","14","3.2499999999999996","","",""
"447.30000000004657","e","choice","left","e","practice","122","301695","0.0-4.0-8.14","true","15","3.2499999999999996","","",""
"773","e","choice","right","i","practice","130","304801","0.0-4.0-8.15","false","16","3.1499999999999995","","",""
"332.4000000000233","i","choice","right","i","practice","138","307456","0.0-4.0-8.16","true","17","3.2499999999999996","","",""
"172.40000000002328","e","choice","left","e","practice","146","309951","0.0-4.0-8.17","true","18","3.2499999999999996","","",""
"280.29999999993015","i","choice","left","e","practice","154","312551","0.0-4.0-8.18","false","19","3.1499999999999995","","",""
"445.9000000000233","i","choice","right","i","practice","162","315297","0.0-4.0-8.19","true","20","3.2499999999999996","","",""
"627.1999999999534","e","choice","right","i","practice","170","318255","0.0-4.0-8.20","false","21","3.2499999999999996","","",""
"513.2000000000698","i","choice","left","e","practice","178","321111","0.0-4.0-8.21","false","22","3.3499999999999996","","",""
"595.5999999999767","e","choice","left","e","practice","186","324026","0.0-4.0-8.22","true","23","3.4499999999999997","","",""
"467.69999999995343","i","choice","right","i","practice","194","326782","0.0-4.0-8.23","true","24","3.4499999999999997","","",""
"1297.7999999999302","e","choice","left","e","practice","202","330376","0.0-4.0-8.24","true","25","3.3499999999999996","","",""
"212.40000000002328","i","choice","right","i","practice","210","332895","0.0-4.0-8.25","true","26","3.3499999999999996","","",""
"866.8000000000466","e","choice","right","i","experimental","221","507783","0.0-4.0-8.26","false","27","3.2499999999999996","","",""
"6186","4","confid","","","html-slider-response","223","514479","0.0-4.0-10.26-0.26","","","","Rate your confidence","1",""
"947.5","e","choice","left","e","experimental","230","517223","0.0-4.0-8.27","true","28","3.3499999999999996","","",""
"5352.700000000186","5","confid","","","html-slider-response","232","523080","0.0-4.0-10.27-0.27","","","","Rate your confidence","1",""
"5180.899999999907","e","choice","left","e","experimental","239","530064","0.0-4.0-8.28","true","29","3.3499999999999996","","",""
"12794","2","confid","","","html-slider-response","241","543363","0.0-4.0-10.28-0.28","","","","Rate your confidence","1",""
"532.5","i","choice","right","i","experimental","248","545704","0.0-4.0-8.29","true","30","3.2499999999999996","","",""
"8109.300000000047","5","confid","","","html-slider-response","250","554319","0.0-4.0-10.29-0.29","","","","Rate your confidence","1",""
"876.8999999999069","e","choice","right","i","experimental","257","556983","0.0-4.0-8.30","false","31","3.2499999999999996","","",""
"4721.90000000014","4","confid","","","html-slider-response","259","562207","0.0-4.0-10.30-0.30","","","","Rate your confidence","1",""
"1974.6000000000931","i","choice","left","e","experimental","266","565974","0.0-4.0-8.31","false","32","3.3499999999999996","","",""
"3226.4000000001397","3","confid","","","html-slider-response","268","569702","0.0-4.0-10.31-0.31","","","","Rate your confidence","1",""
"652.8999999999069","e","choice","left","e","experimental","275","572142","0.0-4.0-8.32","true","33","3.4499999999999997","","",""
"12804.199999999953","5","confid","","","html-slider-response","277","585451","0.0-4.0-10.32-0.32","","","","Rate your confidence","1",""
"665.1999999999534","i","choice","right","i","experimental","284","587927","0.0-4.0-8.33","true","34","3.4499999999999997","","",""
"3798.5","3","confid","","","html-slider-response","286","592231","0.0-4.0-10.33-0.33","","","","Rate your confidence","1",""
"1364.8000000000466","e","choice","left","e","experimental","293","595382","0.0-4.0-8.34","true","35","3.3499999999999996","","",""
"6396.899999999907","4","confid","","","html-slider-response","295","602283","0.0-4.0-10.34-0.34","","","","Rate your confidence","1",""
"396.5","i","choice","right","i","experimental","302","604487","0.0-4.0-8.35","true","36","3.3499999999999996","","",""
"3656.8000000000466","6","confid","","","html-slider-response","304","608651","0.0-4.0-10.35-0.35","","","","Rate your confidence","1",""
"1181.1000000000931","i","choice","right","i","experimental","311","611623","0.0-4.0-8.36","true","37","3.2499999999999996","","",""
"22305.90000000014","3","confid","","","html-slider-response","313","634434","0.0-4.0-10.36-0.36","","","","Rate your confidence","1",""
"581.8000000000466","i","choice","left","e","experimental","320","636807","0.0-4.0-8.37","false","38","3.2499999999999996","","",""
"4938.699999999953","4","confid","","","html-slider-response","322","642250","0.0-4.0-10.37-0.37","","","","Rate your confidence","1",""
"423.80000000004657","e","choice","left","e","experimental","329","644478","0.0-4.0-8.38","true","39","3.3499999999999996","","",""
"4125.200000000186","5","confid","","","html-slider-response","331","649106","0.0-4.0-10.38-0.38","","","","Rate your confidence","1",""
"430.39999999990687","i","choice","right","i","experimental","338","651359","0.0-4.0-8.39","true","40","3.3499999999999996","","",""
"11939.09999999986","4","confid","","","html-slider-response","340","663803","0.0-4.0-10.39-0.39","","","","Rate your confidence","1",""
"1408.2000000001863","i","choice","left","e","experimental","347","666999","0.0-4.0-8.40","false","41","3.2499999999999996","","",""
"3887.9000000001397","3","confid","","","html-slider-response","349","671394","0.0-4.0-10.40-0.40","","","","Rate your confidence","1",""
"1579.8000000000466","e","choice","right","i","experimental","356","674798","0.0-4.0-8.41","false","42","3.3499999999999996","","",""
"2931.7000000001863","3","confid","","","html-slider-response","358","678235","0.0-4.0-10.41-0.41","","","","Rate your confidence","1",""
"2546.100000000093","e","choice","left","e","experimental","365","682561","0.0-4.0-8.42","true","43","3.4499999999999997","","",""
"3466.1999999999534","2","confid","","","html-slider-response","367","686546","0.0-4.0-10.42-0.42","","","","Rate your confidence","1",""
"884","i","choice","right","i","experimental","374","689225","0.0-4.0-8.43","true","44","3.4499999999999997","","",""
"3819.5999999998603","5","confid","","","html-slider-response","376","693555","0.0-4.0-10.43-0.43","","","","Rate your confidence","1",""
"1412.1000000000931","i","choice","left","e","experimental","383","696791","0.0-4.0-8.44","false","45","3.3499999999999996","","",""
"3731.1999999999534","3","confid","","","html-slider-response","385","701026","0.0-4.0-10.44-0.44","","","","Rate your confidence","1",""
"331.39999999990687","i","choice","right","i","experimental","392","703185","0.0-4.0-8.45","true","46","3.4499999999999997","","",""
"3395.399999999907","6","confid","","","html-slider-response","394","707099","0.0-4.0-10.45-0.45","","","","Rate your confidence","1",""
"257.80000000004657","i","choice","right","i","experimental","401","709143","0.0-4.0-8.46","true","47","3.4499999999999997","","",""
"4184.300000000047","5","confid","","","html-slider-response","403","713838","0.0-4.0-10.46-0.46","","","","Rate your confidence","1",""
"8312.5","e","choice","left","e","experimental","410","723950","0.0-4.0-8.47","true","48","3.3499999999999996","","",""
"4370.09999999986","2","confid","","","html-slider-response","412","728822","0.0-4.0-10.47-0.47","","","","Rate your confidence","1",""
"7493.800000000047","i","choice","right","i","experimental","419","738095","0.0-4.0-8.48","true","49","3.3499999999999996","","",""
"24346.5","2","confid","","","html-slider-response","421","762946","0.0-4.0-10.48-0.48","","","","Rate your confidence","1",""
"1231.5","e","choice","left","e","experimental","428","765951","0.0-4.0-8.49","true","50","3.2499999999999996","","",""
"6749.899999999907","4","confid","","","html-slider-response","430","773206","0.0-4.0-10.49-0.49","","","","Rate your confidence","1",""
"667.3999999999069","i","choice","right","i","experimental","437","775663","0.0-4.0-8.50","true","51","3.2499999999999996","","",""
"4579.100000000093","5","confid","","","html-slider-response","439","780750","0.0-4.0-10.50-0.50","","","","Rate your confidence","1",""
"1883","e","choice","left","e","experimental","446","784439","0.0-4.0-8.51","true","52","3.1499999999999995","","",""
"2540.0999999998603","3","confid","","","html-slider-response","448","787496","0.0-4.0-10.51-0.51","","","","Rate your confidence","1",""
"792.3000000000466","e","choice","left","e","experimental","455","790087","0.0-4.0-8.52","true","53","3.1499999999999995","","",""
"2494.9000000001397","4","confid","","","html-slider-response","457","793086","0.0-4.0-10.52-0.52","","","","Rate your confidence","1",""
"522","i","choice","right","i","experimental","464","795399","0.0-4.0-8.53","true","54","3.0499999999999994","","",""
"4662.09999999986","4","confid","","","html-slider-response","466","800566","0.0-4.0-10.53-0.53","","","","Rate your confidence","1",""
"666.0999999998603","e","choice","left","e","experimental","473","803054","0.0-4.0-8.54","true","55","3.0499999999999994","","",""
"2400.899999999907","4","confid","","","html-slider-response","475","805958","0.0-4.0-10.54-0.54","","","","Rate your confidence","1",""
"330","i","choice","right","i","experimental","482","808078","0.0-4.0-8.55","true","56","2.9499999999999993","","",""
"531824.6","4","confid","","","html-slider-response","484","1310004","0.0-4.0-10.55-0.55","","","","Rate your confidence","1",""
"278","e","choice","left","e","experimental","491","1312076","0.0-4.0-8.56","true","57","2.9499999999999993","","",""
"2912.1999999997206","5","confid","","","html-slider-response","493","1315493","0.0-4.0-10.56-0.56","","","","Rate your confidence","1",""
"312.5","i","choice","right","i","experimental","500","1317591","0.0-4.0-8.57","true","58","2.849999999999999","","",""
"9108.5","6","confid","","","html-slider-response","502","1327209","0.0-4.0-10.57-0.57","","","","Rate your confidence","1",""
"304.5","i","choice","right","i","experimental","509","1329324","0.0-4.0-8.58","true","59","2.849999999999999","","",""
"3088.2000000001863","4","confid","","","html-slider-response","511","1332924","0.0-4.0-10.58-0.58","","","","Rate your confidence","1",""
"336.70000000018626","e","choice","left","e","experimental","518","1335076","0.0-4.0-8.59","true","60","2.749999999999999","","",""
"3216.100000000093","4","confid","","","html-slider-response","520","1338796","0.0-4.0-10.59-0.59","","","","Rate your confidence","1",""
"202.60000000009313","i","choice","right","i","experimental","527","1340780","0.0-4.0-8.60","true","61","2.749999999999999","","",""
"4736","5","confid","","","html-slider-response","529","1346020","0.0-4.0-10.60-0.60","","","","Rate your confidence","1",""
"754.2000000001863","e","choice","left","e","experimental","536","1348564","0.0-4.0-8.61","true","62","2.649999999999999","","",""
"2547.399999999907","4","confid","","","html-slider-response","538","1351616","0.0-4.0-10.61-0.61","","","","Rate your confidence","1",""
"880.3999999999069","e","choice","right","i","experimental","545","1354301","0.0-4.0-8.62","false","63","2.649999999999999","","",""
"2390.600000000093","3","confid","","","html-slider-response","547","1357196","0.0-4.0-10.62-0.62","","","","Rate your confidence","1",""
"337.29999999981374","e","choice","left","e","experimental","554","1359333","0.0-4.0-8.63","true","64","2.749999999999999","","",""
"3800.7000000001863","6","confid","","","html-slider-response","556","1363644","0.0-4.0-10.63-0.63","","","","Rate your confidence","1",""
"412.89999999990687","e","choice","right","i","experimental","563","1365868","0.0-4.0-8.64","false","65","2.749999999999999","","",""
"4146","5","confid","","","html-slider-response","565","1370515","0.0-4.0-10.64-0.64","","","","Rate your confidence","1",""
"1663.3999999999069","e","choice","left","e","experimental","572","1373964","0.0-4.0-8.65","true","66","2.849999999999999","","",""
"13193.5","4","confid","","","html-slider-response","574","1387661","0.0-4.0-10.65-0.65","","","","Rate your confidence","1",""
"312.8000000002794","i","choice","right","i","experimental","581","1389764","0.0-4.0-8.66","true","67","2.849999999999999","","",""
"5815.799999999814","5","confid","","","html-slider-response","583","1396112","0.0-4.0-10.66-0.66","","","","Rate your confidence","1",""
"348.79999999981374","e","choice","left","e","experimental","590","1398284","0.0-4.0-8.67","true","68","2.749999999999999","","",""
"3795.600000000093","6","confid","","","html-slider-response","592","1402584","0.0-4.0-10.67-0.67","","","","Rate your confidence","1",""
"702.7000000001863","e","choice","right","i","experimental","600","2269427","0.0-4.0-8.68","false","69","2.749999999999999","","",""
"5574.899999999907","3","confid","","","html-slider-response","602","2275506","0.0-4.0-10.68-0.68","","","","Rate your confidence","1",""
"282.29999999981374","i","choice","left","e","experimental","609","2277611","0.0-4.0-8.69","false","70","2.849999999999999","","",""
"3968.399999999907","6","confid","","","html-slider-response","611","2282090","0.0-4.0-10.69-0.69","","","","Rate your confidence","1",""
"355.8000000002794","e","choice","right","i","experimental","618","2284258","0.0-4.0-8.70","false","71","2.9499999999999993","","",""
"3395.5","5","confid","","","html-slider-response","620","2288158","0.0-4.0-10.70-0.70","","","","Rate your confidence","1",""
"394.1999999997206","e","choice","left","e","experimental","627","2290354","0.0-4.0-8.71","true","72","3.0499999999999994","","",""
"4992.600000000093","4","confid","","","html-slider-response","629","2295858","0.0-4.0-10.71-0.71","","","","Rate your confidence","1",""
"357.39999999990687","e","choice","left","e","experimental","636","2298011","0.0-4.0-8.72","true","73","3.0499999999999994","","",""
"2563.6999999997206","5","confid","","","html-slider-response","638","2301078","0.0-4.0-10.72-0.72","","","","Rate your confidence","1",""
"1574.5","e","choice","right","i","experimental","645","2304466","0.0-4.0-8.73","false","74","2.9499999999999993","","",""
"6911.399999999907","5","confid","","","html-slider-response","647","2311882","0.0-4.0-10.73-0.73","","","","Rate your confidence","1",""
"415.20000000018626","e","choice","left","e","experimental","654","2314093","0.0-4.0-8.74","true","75","3.0499999999999994","","",""
"14639.19999999972","5","confid","","","html-slider-response","656","2329238","0.0-4.0-10.74-0.74","","","","Rate your confidence","1",""
"1918.3000000002794","i","choice","right","i","experimental","663","2332947","0.0-4.0-8.75","true","76","3.0499999999999994","","",""
"2671.600000000093","3","confid","","","html-slider-response","665","2336171","0.0-4.0-10.75-0.75","","","","Rate your confidence","1",""
"300","e","choice","right","i","experimental","672","2338307","0.0-4.0-8.76","false","77","2.9499999999999993","","",""
"2130.100000000093","5","confid","","","html-slider-response","674","2340942","0.0-4.0-10.76-0.76","","","","Rate your confidence","1",""
"295.70000000018626","e","choice","left","e","experimental","681","2343053","0.0-4.0-8.77","true","78","3.0499999999999994","","",""
"3393.9000000003725","5","confid","","","html-slider-response","683","2346951","0.0-4.0-10.77-0.77","","","","Rate your confidence","1",""
"349","e","choice","left","e","experimental","690","2349099","0.0-4.0-8.78","true","79","3.0499999999999994","","",""
"6027.5","4","confid","","","html-slider-response","692","2355630","0.0-4.0-10.78-0.78","","","","Rate your confidence","1",""
"401.79999999981374","e","choice","right","i","experimental","699","2357851","0.0-4.0-8.79","false","80","2.9499999999999993","","",""
"2426.9000000003725","3","confid","","","html-slider-response","701","2360782","0.0-4.0-10.79-0.79","","","","Rate your confidence","1",""
"696.2999999998137","i","choice","right","i","experimental","708","2363291","0.0-4.0-8.80","true","81","3.0499999999999994","","",""
"2888.3000000002794","3","confid","","","html-slider-response","710","2366694","0.0-4.0-10.80-0.80","","","","Rate your confidence","1",""
"441.60000000009313","e","choice","left","e","experimental","717","2368955","0.0-4.0-8.81","true","82","3.0499999999999994","","",""
"2162.8000000002794","4","confid","","","html-slider-response","719","2371622","0.0-4.0-10.81-0.81","","","","Rate your confidence","1",""
"400.3000000002794","e","choice","right","i","experimental","726","2373843","0.0-4.0-8.82","false","83","2.9499999999999993","","",""
"3578.5","3","confid","","","html-slider-response","728","2377926","0.0-4.0-10.82-0.82","","","","Rate your confidence","1",""
"1370.8999999999069","i","choice","left","e","experimental","735","2381099","0.0-4.0-8.83","false","84","3.0499999999999994","","",""
"3490.4000000003725","4","confid","","","html-slider-response","737","2385094","0.0-4.0-10.83-0.83","","","","Rate your confidence","1",""
"1702.3000000002794","e","choice","left","e","experimental","744","2388587","0.0-4.0-8.84","true","85","3.1499999999999995","","",""
"3390.5","4","confid","","","html-slider-response","746","2392482","0.0-4.0-10.84-0.84","","","","Rate your confidence","1",""
"701.1000000000931","e","choice","right","i","experimental","753","2394979","0.0-4.0-8.85","false","86","3.1499999999999995","","",""
"2163","3","confid","","","html-slider-response","755","2397646","0.0-4.0-10.85-0.85","","","","Rate your confidence","1",""
"1162.1999999997206","e","choice","left","e","experimental","762","2400619","0.0-4.0-8.86","true","87","3.2499999999999996","","",""
"41542.5","4","confid","","","html-slider-response","764","2442666","0.0-4.0-10.86-0.86","","","","Rate your confidence","1",""
"271.3000000002794","i","choice","right","i","experimental","771","2444722","0.0-4.0-8.87","true","88","3.2499999999999996","","",""
"7751.200000000186","5","confid","","","html-slider-response","773","2452978","0.0-4.0-10.87-0.87","","","","Rate your confidence","1",""
"694.2000000001863","e","choice","left","e","experimental","780","2455467","0.0-4.0-8.88","true","89","3.1499999999999995","","",""
"3256.2999999998137","3","confid","","","html-slider-response","782","2459226","0.0-4.0-10.88-0.88","","","","Rate your confidence","1",""
"539.3000000002794","i","choice","right","i","experimental","789","2461554","0.0-4.0-8.89","true","90","3.1499999999999995","","",""
"3774.899999999907","4","confid","","","html-slider-response","791","2465834","0.0-4.0-10.89-0.89","","","","Rate your confidence","1",""
"315.8000000002794","i","choice","right","i","experimental","798","2467938","0.0-4.0-8.90","true","91","3.0499999999999994","","",""
"3607.2000000001863","5","confid","","","html-slider-response","800","2472050","0.0-4.0-10.90-0.90","","","","Rate your confidence","1",""
"323.5","e","choice","left","e","experimental","807","2474178","0.0-4.0-8.91","true","92","3.0499999999999994","","",""
"4465","5","confid","","","html-slider-response","809","2479147","0.0-4.0-10.91-0.91","","","","Rate your confidence","1",""
"225.89999999990687","i","choice","right","i","experimental","816","2481146","0.0-4.0-8.92","true","93","2.9499999999999993","","",""
"2242.100000000093","5","confid","","","html-slider-response","818","2483890","0.0-4.0-10.92-0.92","","","","Rate your confidence","1",""
"717.1000000000931","e","choice","left","e","experimental","825","2486402","0.0-4.0-8.93","true","94","2.9499999999999993","","",""
"4569.899999999907","5","confid","","","html-slider-response","827","2491475","0.0-4.0-10.93-0.93","","","","Rate your confidence","1",""
"1285.8000000002794","e","choice","left","e","experimental","834","2494563","0.0-4.0-8.94","true","95","2.849999999999999","","",""
"4123.800000000279","4","confid","","","html-slider-response","836","2499194","0.0-4.0-10.94-0.94","","","","Rate your confidence","1",""
"379.10000000009313","i","choice","right","i","experimental","843","2501371","0.0-4.0-8.95","true","96","2.849999999999999","","",""
"4406","5","confid","","","html-slider-response","845","2506282","0.0-4.0-10.95-0.95","","","","Rate your confidence","1",""
"842.7000000001863","e","choice","left","e","experimental","852","2508963","0.0-4.0-8.96","true","97","2.749999999999999","","",""
"2902.1999999997206","3","confid","","","html-slider-response","854","2512374","0.0-4.0-10.96-0.96","","","","Rate your confidence","1",""
"235.5","i","choice","right","i","experimental","861","2514435","0.0-4.0-8.97","true","98","2.749999999999999","","",""
"5405.399999999907","5","confid","","","html-slider-response","863","2520346","0.0-4.0-10.97-0.97","","","","Rate your confidence","1",""
"437.89999999990687","e","choice","right","i","experimental","870","2522570","0.0-4.0-8.98","false","99","2.649999999999999","","",""
"27064.600000000093","4","confid","","","html-slider-response","872","2550138","0.0-4.0-10.98-0.98","","","","Rate your confidence","1",""
"513.3999999999069","e","choice","left","e","experimental","879","2552482","0.0-4.0-8.99","true","100","2.749999999999999","","",""
"3884.6999999997206","4","confid","","","html-slider-response","881","2556878","0.0-4.0-10.99-0.99","","","","Rate your confidence","1",""
"1019.1000000000931","i","choice","left","e","experimental","888","2559714","0.0-4.0-8.100","false","101","2.749999999999999","","",""
"4604.699999999721","3","confid","","","html-slider-response","890","2564823","0.0-4.0-10.100-0.100","","","","Rate your confidence","1",""
"670","e","choice","right","i","experimental","897","2567323","0.0-4.0-8.101","false","102","2.849999999999999","","",""
"3141.7999999998137","3","confid","","","html-slider-response","899","2570974","0.0-4.0-10.101-0.101","","","","Rate your confidence","1",""
"2019.8999999999069","i","choice","left","e","experimental","906","2574779","0.0-4.0-8.102","false","103","2.9499999999999993","","",""
"3022.2999999998137","3","confid","","","html-slider-response","908","2578327","0.0-4.0-10.102-0.102","","","","Rate your confidence","1",""
"1258.6999999997206","e","choice","right","i","experimental","915","2581402","0.0-4.0-8.103","false","104","3.0499999999999994","","",""
"3497.7000000001863","2","confid","","","html-slider-response","917","2585406","0.0-4.0-10.103-0.103","","","","Rate your confidence","1",""
"2535.4000000003725","e","choice","left","e","experimental","924","2589793","0.0-4.0-8.104","true","105","3.1499999999999995","","",""
"3489.100000000093","3","confid","","","html-slider-response","926","2593791","0.0-4.0-10.104-0.104","","","","Rate your confidence","1",""
"38327.59999999963","e","choice","right","i","experimental","933","2633971","0.0-4.0-8.105","false","106","3.1499999999999995","","",""
"2973.899999999907","2","confid","","","html-slider-response","935","2637458","0.0-4.0-10.105-0.105","","","","Rate your confidence","1",""
"469.10000000009313","e","choice","right","i","experimental","942","2639716","0.0-4.0-8.106","false","107","3.2499999999999996","","",""
"2631.2999999998137","5","confid","","","html-slider-response","944","2642878","0.0-4.0-10.106-0.106","","","","Rate your confidence","1",""
"348.5","i","choice","left","e","experimental","951","2645027","0.0-4.0-8.107","false","108","3.3499999999999996","","",""
"3764.100000000093","4","confid","","","html-slider-response","953","2649306","0.0-4.0-10.107-0.107","","","","Rate your confidence","1",""
"273.60000000009313","i","choice","right","i","experimental","960","2651394","0.0-4.0-8.108","true","109","3.4499999999999997","","",""
"3401.100000000093","5","confid","","","html-slider-response","962","2655298","0.0-4.0-10.108-0.108","","","","Rate your confidence","1",""
"818.1000000000931","e","choice","left","e","experimental","969","2657931","0.0-4.0-8.109","true","110","3.4499999999999997","","",""
"2882.2999999998137","3","confid","","","html-slider-response","971","2661330","0.0-4.0-10.109-0.109","","","","Rate your confidence","1",""
"563.1999999997206","e","choice","left","e","experimental","979","2670555","0.0-4.0-8.110","true","111","3.3499999999999996","","",""
"4209.200000000186","5","confid","","","html-slider-response","981","2675274","0.0-4.0-10.110-0.110","","","","Rate your confidence","1",""
"439","i","choice","right","i","experimental","988","2677514","0.0-4.0-8.111","true","112","3.3499999999999996","","",""
"3398.4000000003725","4","confid","","","html-slider-response","990","2681418","0.0-4.0-10.111-0.111","","","","Rate your confidence","1",""
"1020.3999999999069","i","choice","right","i","experimental","997","2684243","0.0-4.0-8.112","true","113","3.2499999999999996","","",""
"3534.100000000093","5","confid","","","html-slider-response","999","2688282","0.0-4.0-10.112-0.112","","","","Rate your confidence","1",""
"368.8000000002794","e","choice","left","e","experimental","1006","2690491","0.0-4.0-8.113","true","114","3.2499999999999996","","",""
"3397.4000000003725","3","confid","","","html-slider-response","1008","2694401","0.0-4.0-10.113-0.113","","","","Rate your confidence","1",""
"668.2000000001863","e","choice","left","e","experimental","1015","2696874","0.0-4.0-8.114","true","115","3.1499999999999995","","",""
"3624","3","confid","","","html-slider-response","1017","2701002","0.0-4.0-10.114-0.114","","","","Rate your confidence","1",""
"291.10000000009313","i","choice","right","i","experimental","1024","2703130","0.0-4.0-8.115","true","116","3.1499999999999995","","",""
"3364.7999999998137","4","confid","","","html-slider-response","1026","2707005","0.0-4.0-10.115-0.115","","","","Rate your confidence","1",""
"407","e","choice","left","e","experimental","1033","2709252","0.0-4.0-8.116","true","117","3.0499999999999994","","",""
"3847.5","4","confid","","","html-slider-response","1035","2713605","0.0-4.0-10.116-0.116","","","","Rate your confidence","1",""
"17.5","i","choice","right","i","experimental","1042","2715409","0.0-4.0-8.117","true","118","3.0499999999999994","","",""
"4204.200000000186","5","confid","","","html-slider-response","1044","2720129","0.0-4.0-10.117-0.117","","","","Rate your confidence","1",""
"378.70000000018626","i","choice","right","i","experimental","1051","2722330","0.0-4.0-8.118","true","119","2.9499999999999993","","",""
"9731.100000000093","5","confid","","","html-slider-response","1053","2732565","0.0-4.0-10.118-0.118","","","","Rate your confidence","1",""
"373.89999999990687","e","choice","left","e","experimental","1060","2734730","0.0-4.0-8.119","true","120","2.9499999999999993","","",""
"5763.899999999907","4","confid","","","html-slider-response","1062","2740997","0.0-4.0-10.119-0.119","","","","Rate your confidence","1",""
"445.40000000037253","e","choice","left","e","experimental","1069","2743275","0.0-4.0-8.120","true","121","2.849999999999999","","",""
"4194.200000000186","5","confid","","","html-slider-response","1071","2747973","0.0-4.0-10.120-0.120","","","","Rate your confidence","1",""
"859.3000000002794","e","choice","right","i","experimental","1078","2750641","0.0-4.0-8.121","false","122","2.849999999999999","","",""
"2548.2000000001863","3","confid","","","html-slider-response","1080","2753694","0.0-4.0-10.121-0.121","","","","Rate your confidence","1",""
"753.7999999998137","e","choice","left","e","experimental","1087","2756234","0.0-4.0-8.122","true","123","2.9499999999999993","","",""
"3166.2999999998137","3","confid","","","html-slider-response","1089","2759906","0.0-4.0-10.122-0.122","","","","Rate your confidence","1",""
"885.1000000000931","i","choice","right","i","experimental","1096","2762610","0.0-4.0-8.123","true","124","2.9499999999999993","","",""
"3394.6999999997206","6","confid","","","html-slider-response","1098","2766509","0.0-4.0-10.123-0.123","","","","Rate your confidence","1",""
"709.3000000002794","e","choice","left","e","experimental","1105","2769050","0.0-4.0-8.124","true","125","2.849999999999999","","",""
"2985.5","5","confid","","","html-slider-response","1107","2772542","0.0-4.0-10.124-0.124","","","","Rate your confidence","1",""
"351.40000000037253","i","choice","right","i","experimental","1114","2774707","0.0-4.0-8.125","true","126","2.849999999999999","","",""
"2156.7999999998137","5","confid","","","html-slider-response","1116","2777370","0.0-4.0-10.125-0.125","","","","Rate your confidence","1",""
"378.3000000002794","e","choice","left","e","experimental","1123","2779538","0.0-4.0-8.126","true","127","2.749999999999999","","",""
"3010.600000000093","5","confid","","","html-slider-response","1125","2783054","0.0-4.0-10.126-0.126","","","","Rate your confidence","1",""
"344.6999999997206","e","choice","right","i","experimental","1132","2785186","0.0-4.0-8.127","false","128","2.749999999999999","","",""
"2154.6999999997206","5","confid","","","html-slider-response","1134","2787846","0.0-4.0-10.127-0.127","","","","Rate your confidence","1",""
"329.79999999981374","e","choice","left","e","experimental","1141","2789995","0.0-4.0-8.128","true","129","2.849999999999999","","",""
"5802","5","confid","","","html-slider-response","1143","2796302","0.0-4.0-10.128-0.128","","","","Rate your confidence","1",""
"1670.6000000000931","e","choice","right","i","experimental","1150","2799794","0.0-4.0-8.129","false","130","2.849999999999999","","",""
"4745","3","confid","","","html-slider-response","1152","2805054","0.0-4.0-10.129-0.129","","","","Rate your confidence","1",""
"282.6999999997206","i","choice","right","i","experimental","1159","2807187","0.0-4.0-8.130","true","131","2.9499999999999993","","",""
"2913.899999999907","5","confid","","","html-slider-response","1161","2810605","0.0-4.0-10.130-0.130","","","","Rate your confidence","1",""
"2473.600000000093","e","choice","left","e","experimental","1168","2814866","0.0-4.0-8.131","true","132","2.9499999999999993","","",""
"17489.299999999814","2","confid","","","html-slider-response","1170","2832861","0.0-4.0-10.131-0.131","","","","Rate your confidence","1",""
"467.10000000009313","e","choice","right","i","experimental","1177","2835138","0.0-4.0-8.132","false","133","2.849999999999999","","",""
"2393.4000000003725","4","confid","","","html-slider-response","1179","2838037","0.0-4.0-10.132-0.132","","","","Rate your confidence","1",""
"298","i","choice","left","e","experimental","1186","2840138","0.0-4.0-8.133","false","134","2.9499999999999993","","",""
"3749.7999999998137","5","confid","","","html-slider-response","1188","2844397","0.0-4.0-10.133-0.133","","","","Rate your confidence","1",""
"298.1999999997206","e","choice","left","e","experimental","1195","2846490","0.0-4.0-8.134","true","135","3.0499999999999994","","",""
"3136.1999999997206","6","confid","","","html-slider-response","1197","2850137","0.0-4.0-10.134-0.134","","","","Rate your confidence","1",""
"497.10000000009313","i","choice","right","i","experimental","1204","2852473","0.0-4.0-8.135","true","136","3.0499999999999994","","",""
"3359.6999999997206","4","confid","","","html-slider-response","1206","2856337","0.0-4.0-10.135-0.135","","","","Rate your confidence","1",""
"1142.8999999999069","e","choice","left","e","experimental","1213","2859283","0.0-4.0-8.136","true","137","2.9499999999999993","","",""
"1989.2999999998137","3","confid","","","html-slider-response","1215","2861777","0.0-4.0-10.136-0.136","","","","Rate your confidence","1",""
"627.5","e","choice","right","i","experimental","1222","2864202","0.0-4.0-8.137","false","138","2.9499999999999993","","",""
"4670.5999999996275","4","confid","","","html-slider-response","1224","2869377","0.0-4.0-10.137-0.137","","","","Rate your confidence","1",""
"423.29999999981374","e","choice","right","i","experimental","1231","2871586","0.0-4.0-8.138","false","139","3.0499999999999994","","",""
"3659.6999999997206","5","confid","","","html-slider-response","1233","2875777","0.0-4.0-10.138-0.138","","","","Rate your confidence","1",""
"351.29999999981374","e","choice","left","e","experimental","1240","2877923","0.0-4.0-8.139","true","140","3.1499999999999995","","",""
"3270.5999999996275","4","confid","","","html-slider-response","1242","2881697","0.0-4.0-10.139-0.139","","","","Rate your confidence","1",""
"341.40000000037253","e","choice","left","e","experimental","1249","2883874","0.0-4.0-8.140","true","141","3.1499999999999995","","",""
"3568.0999999996275","5","confid","","","html-slider-response","1251","2887953","0.0-4.0-10.140-0.140","","","","Rate your confidence","1",""
"509.09999999962747","i","choice","right","i","experimental","1258","2890306","0.0-4.0-8.141","true","142","3.0499999999999994","","",""
"3006.600000000093","4","confid","","","html-slider-response","1260","2893825","0.0-4.0-10.141-0.141","","","","Rate your confidence","1",""
"421.39999999990687","e","choice","left","e","experimental","1267","2896058","0.0-4.0-8.142","true","143","3.0499999999999994","","",""
"3292.6999999997206","3","confid","","","html-slider-response","1269","2899857","0.0-4.0-10.142-0.142","","","","Rate your confidence","1",""
"3165.899999999907","i","choice","right","i","experimental","1276","2904817","0.0-4.0-8.143","true","144","2.9499999999999993","","",""
"4782.5","5","confid","","","html-slider-response","1278","2910101","0.0-4.0-10.143-0.143","","","","Rate your confidence","1",""
"664.4000000003725","i","choice","right","i","experimental","1285","2912569","0.0-4.0-8.144","true","145","2.9499999999999993","","",""
"4790.899999999907","3","confid","","","html-slider-response","1287","2917865","0.0-4.0-10.144-0.144","","","","Rate your confidence","1",""
"490.70000000018626","e","choice","left","e","experimental","1294","2920137","0.0-4.0-8.145","true","146","2.849999999999999","","",""
"5301.699999999721","4","confid","","","html-slider-response","1296","2925945","0.0-4.0-10.145-0.145","","","","Rate your confidence","1",""
"1016.1999999997206","e","choice","right","i","experimental","1303","2928795","0.0-4.0-8.146","false","147","2.849999999999999","","",""
"4716.5","3","confid","","","html-slider-response","1305","2934017","0.0-4.0-10.146-0.146","","","","Rate your confidence","1",""
"490","e","choice","left","e","experimental","1312","2936298","0.0-4.0-8.147","true","148","2.9499999999999993","","",""
"189992","5","confid","","","html-slider-response","1314","3126793","0.0-4.0-10.147-0.147","","","","Rate your confidence","1",""
"797.6000000000931","e","choice","left","e","experimental","1321","3129386","0.0-4.0-8.148","true","149","2.9499999999999993","","",""
"2862.399999999907","5","confid","","","html-slider-response","1323","3132753","0.0-4.0-10.148-0.148","","","","Rate your confidence","1",""
"285.39999999990687","i","choice","right","i","experimental","1330","3134833","0.0-4.0-8.149","true","150","2.849999999999999","","",""
"3827.5","5","confid","","","html-slider-response","1332","3139165","0.0-4.0-10.149-0.149","","","","Rate your confidence","1",""
"648.5","i","choice","right","i","experimental","1339","3141649","0.0-4.0-8.150","true","151","2.849999999999999","","",""
"5220.299999999814","4","confid","","","html-slider-response","1341","3147373","0.0-4.0-10.150-0.150","","","","Rate your confidence","1",""
"333.8000000002794","e","choice","left","e","experimental","1348","3149505","0.0-4.0-8.151","true","152","2.749999999999999","","",""
"3876","5","confid","","","html-slider-response","1350","3153889","0.0-4.0-10.151-0.151","","","","Rate your confidence","1",""
"800.7000000001863","e","choice","right","i","experimental","1358","3167433","0.0-4.0-8.152","false","153","2.749999999999999","","",""
"284700.7999999998","5","confid","","","html-slider-response","1360","3452637","0.0-4.0-10.152-0.152","","","","Rate your confidence","1",""
"3128.2000000001863","e","choice","left","e","experimental","1367","3457554","0.0-4.0-8.153","true","154","2.849999999999999","","",""
"2823.399999999907","3","confid","","","html-slider-response","1369","3460884","0.0-4.0-10.153-0.153","","","","Rate your confidence","1",""
"563.7000000001863","i","choice","right","i","experimental","1376","3463256","0.0-4.0-8.154","true","155","2.849999999999999","","",""
"4681.5","5","confid","","","html-slider-response","1378","3468440","0.0-4.0-10.154-0.154","","","","Rate your confidence","1",""
"375.20000000018626","e","choice","left","e","experimental","1385","3470617","0.0-4.0-8.155","true","156","2.749999999999999","","",""
"3378.2999999998137","6","confid","","","html-slider-response","1387","3474500","0.0-4.0-10.155-0.155","","","","Rate your confidence","1",""
"1214.6000000005588","i","choice","right","i","experimental","1394","3477537","0.0-4.0-8.156","true","157","2.749999999999999","","",""
"3146.600000000559","5","confid","","","html-slider-response","1396","3481188","0.0-4.0-10.156-0.156","","","","Rate your confidence","1",""
"351.1000000005588","e","choice","left","e","experimental","1403","3483369","0.0-4.0-8.157","true","158","2.649999999999999","","",""
"65359","5","confid","","","html-slider-response","1405","3549232","0.0-4.0-10.157-0.157","","","","Rate your confidence","1",""
"1053.2000000001863","i","choice","left","e","experimental","1412","3552056","0.0-4.0-8.158","false","159","2.649999999999999","","",""
"4165.5999999996275","5","confid","","","html-slider-response","1414","3556729","0.0-4.0-10.158-0.158","","","","Rate your confidence","1",""
"399.59999999962747","i","choice","right","i","experimental","1421","3558929","0.0-4.0-8.159","true","160","2.749999999999999","","",""
"3128.7000000001863","5","confid","","","html-slider-response","1423","3562564","0.0-4.0-10.159-0.159","","","","Rate your confidence","1",""
"478.09999999962747","i","choice","right","i","experimental","1430","3564856","0.0-4.0-8.160","true","161","2.749999999999999","","",""
"2265.5","3","confid","","","html-slider-response","1432","3567632","0.0-4.0-10.160-0.160","","","","Rate your confidence","1",""
"490.29999999981374","e","choice","left","e","experimental","1439","3569928","0.0-4.0-8.161","true","162","2.649999999999999","","",""
"2775.2999999998137","3","confid","","","html-slider-response","1441","3573208","0.0-4.0-10.161-0.161","","","","Rate your confidence","1",""
"427.3999999994412","i","choice","left","e","experimental","1448","3575489","0.0-4.0-8.162","false","163","2.649999999999999","","",""
"3614.2999999998137","3","confid","","","html-slider-response","1450","3579608","0.0-4.0-10.162-0.162","","","","Rate your confidence","1",""
"549.7000000001863","e","choice","right","i","experimental","1457","3581961","0.0-4.0-8.163","false","164","2.749999999999999","","",""
"5441.0999999996275","5","confid","","","html-slider-response","1459","3587908","0.0-4.0-10.163-0.163","","","","Rate your confidence","1",""
"1901.4000000003725","e","choice","left","e","experimental","1466","3591593","0.0-4.0-8.164","true","165","2.849999999999999","","",""
"4025.100000000559","4","confid","","","html-slider-response","1468","3596124","0.0-4.0-10.164-0.164","","","","Rate your confidence","1",""
"2536.100000000559","e","choice","right","i","experimental","1475","3600464","0.0-4.0-8.165","false","166","2.849999999999999","","",""
"2322.2000000001863","4","confid","","","html-slider-response","1477","3603292","0.0-4.0-10.165-0.165","","","","Rate your confidence","1",""
"1705.9000000003725","e","choice","left","e","experimental","1484","3606785","0.0-4.0-8.166","true","167","2.9499999999999993","","",""
"2160.4000000003725","4","confid","","","html-slider-response","1486","3609452","0.0-4.0-10.166-0.166","","","","Rate your confidence","1",""
"1388.6000000005588","e","choice","right","i","experimental","1493","3612656","0.0-4.0-8.167","false","168","2.9499999999999993","","",""
"2222.9000000003725","4","confid","","","html-slider-response","1495","3615396","0.0-4.0-10.167-0.167","","","","Rate your confidence","1",""
"1576.7999999998137","i","choice","left","e","experimental","1502","3618761","0.0-4.0-8.168","false","169","3.0499999999999994","","",""
"2245.699999999255","4","confid","","","html-slider-response","1504","3621540","0.0-4.0-10.168-0.168","","","","Rate your confidence","1",""
"2403.4000000003725","e","choice","right","i","experimental","1511","3625752","0.0-4.0-8.169","false","170","3.1499999999999995","","",""
"2233.199999999255","4","confid","","","html-slider-response","1513","3628492","0.0-4.0-10.169-0.169","","","","Rate your confidence","1",""
"2395.9000000003725","e","choice","left","e","experimental","1520","3632696","0.0-4.0-8.170","true","171","3.2499999999999996","","",""
"2250.5999999996275","3","confid","","","html-slider-response","1522","3635452","0.0-4.0-10.170-0.170","","","","Rate your confidence","1",""
"1559.8999999994412","e","choice","right","i","experimental","1529","3638856","0.0-4.0-8.171","false","172","3.2499999999999996","","",""
"4123.5","3","confid","","","html-slider-response","1531","3643484","0.0-4.0-10.171-0.171","","","","Rate your confidence","1",""
"1205.3999999994412","i","choice","right","i","experimental","1538","3646480","0.0-4.0-8.172","true","173","3.3499999999999996","","",""
"3562.2000000001863","4","confid","","","html-slider-response","1540","3650548","0.0-4.0-10.172-0.172","","","","Rate your confidence","1",""
"1629.5","i","choice","left","e","experimental","1547","3653977","0.0-4.0-8.173","false","174","3.3499999999999996","","",""
"3857.2999999998137","4","confid","","","html-slider-response","1549","3658340","0.0-4.0-10.173-0.173","","","","Rate your confidence","1",""
"1231.6000000005588","e","choice","left","e","experimental","1556","3661368","0.0-4.0-8.174","true","175","3.4499999999999997","","",""
"3295.5","5","confid","","","html-slider-response","1558","3665196","0.0-4.0-10.174-0.174","","","","Rate your confidence","1",""
"1374.7999999998137","i","choice","right","i","experimental","1565","3668352","0.0-4.0-8.175","true","176","3.4499999999999997","","",""
"3123.800000000745","5","confid","","","html-slider-response","1567","3671979","0.0-4.0-10.175-0.175","","","","Rate your confidence","1",""
"1270.9000000003725","i","choice","right","i","experimental","1574","3675063","0.0-4.0-8.176","true","177","3.3499999999999996","","",""
"2733.399999999441","4","confid","","","html-slider-response","1576","3678300","0.0-4.0-10.176-0.176","","","","Rate your confidence","1",""
"900.1999999992549","e","choice","left","e","experimental","1583","3681024","0.0-4.0-8.177","true","178","3.3499999999999996","","",""
"4063.0999999996275","5","confid","","","html-slider-response","1585","3685591","0.0-4.0-10.177-0.177","","","","Rate your confidence","1",""
"1398.699999999255","e","choice","right","i","experimental","1592","3688800","0.0-4.0-8.178","false","179","3.2499999999999996","","",""
"3217","4","confid","","","html-slider-response","1594","3692523","0.0-4.0-10.178-0.178","","","","Rate your confidence","1",""
"1088.2999999998137","i","choice","left","e","experimental","1601","3695400","0.0-4.0-8.179","false","180","3.3499999999999996","","",""
"2330.9000000003725","4","confid","","","html-slider-response","1603","3698236","0.0-4.0-10.179-0.179","","","","Rate your confidence","1",""
"1228.5999999996275","i","choice","right","i","experimental","1610","3701272","0.0-4.0-8.180","true","181","3.4499999999999997","","",""
"3988.4000000003725","3","confid","","","html-slider-response","1612","3705767","0.0-4.0-10.180-0.180","","","","Rate your confidence","1",""
"980","e","choice","left","e","experimental","1619","3708568","0.0-4.0-8.181","true","182","3.4499999999999997","","",""
"3352.600000000559","3","confid","","","html-slider-response","1621","3712424","0.0-4.0-10.181-0.181","","","","Rate your confidence","1",""
"2123.9000000003725","i","choice","right","i","experimental","1628","3716376","0.0-4.0-8.182","true","183","3.3499999999999996","","",""
"2629.9000000003725","4","confid","","","html-slider-response","1630","3719511","0.0-4.0-10.182-0.182","","","","Rate your confidence","1",""
"988.5999999996275","e","choice","left","e","experimental","1637","3722312","0.0-4.0-8.183","true","184","3.3499999999999996","","",""
"2334.7999999998137","5","confid","","","html-slider-response","1639","3725152","0.0-4.0-10.183-0.183","","","","Rate your confidence","1",""
"1093.4000000003725","e","choice","left","e","experimental","1646","3728064","0.0-4.0-8.184","true","185","3.2499999999999996","","",""
"1838.7000000001863","5","confid","","","html-slider-response","1648","3730408","0.0-4.0-10.184-0.184","","","","Rate your confidence","1",""
"1255","i","choice","right","i","experimental","1655","3733472","0.0-4.0-8.185","true","186","3.2499999999999996","","",""
"2630.300000000745","5","confid","","","html-slider-response","1657","3736608","0.0-4.0-10.185-0.185","","","","Rate your confidence","1",""
"862.2000000001863","e","choice","left","e","experimental","1664","3739280","0.0-4.0-8.186","true","187","3.1499999999999995","","",""
"2680.2000000001863","4","confid","","","html-slider-response","1666","3742463","0.0-4.0-10.186-0.186","","","","Rate your confidence","1",""
"1713.4000000003725","i","choice","right","i","experimental","1673","3745994","0.0-4.0-8.187","true","188","3.1499999999999995","","",""
"2331.5","4","confid","","","html-slider-response","1675","3748832","0.0-4.0-10.187-0.187","","","","Rate your confidence","1",""
"866.1000000005588","e","choice","left","e","experimental","1682","3751505","0.0-4.0-8.188","true","189","3.0499999999999994","","",""
"2204.2000000001863","4","confid","","","html-slider-response","1684","3754223","0.0-4.0-10.188-0.188","","","","Rate your confidence","1",""
"884.4000000003725","e","choice","right","i","experimental","1691","3756895","0.0-4.0-8.189","false","190","3.0499999999999994","","",""
"1999.9000000003725","4","confid","","","html-slider-response","1693","3759400","0.0-4.0-10.189-0.189","","","","Rate your confidence","1",""
"874.5","e","choice","right","i","experimental","1700","3762089","0.0-4.0-8.190","false","191","3.1499999999999995","","",""
"3053.800000000745","4","confid","","","html-slider-response","1702","3765648","0.0-4.0-10.190-0.190","","","","Rate your confidence","1",""
"1041.7000000001863","e","choice","left","e","experimental","1709","3768488","0.0-4.0-8.191","true","192","3.2499999999999996","","",""
"2014.7000000001863","4","confid","","","html-slider-response","1711","3771008","0.0-4.0-10.191-0.191","","","","Rate your confidence","1",""
"1016","e","choice","left","e","experimental","1718","3773824","0.0-4.0-8.192","true","193","3.2499999999999996","","",""
"2817.7000000001863","4","confid","","","html-slider-response","1720","3777176","0.0-4.0-10.192-0.192","","","","Rate your confidence","1",""
"1217.2000000001863","i","choice","right","i","experimental","1727","3780200","0.0-4.0-8.193","true","194","3.1499999999999995","","",""
"2630.7999999998137","3","confid","","","html-slider-response","1729","3783335","0.0-4.0-10.193-0.193","","","","Rate your confidence","1","33722"
