"rt","response","task","target_side","correct_response","trial_type","trial_index","time_elapsed","internal_node_id","correct","trial_number","n_dots","stimulus","slider_start","participant"
"543.5","e","choice","left","e","practice","10","264071","0.0-4.0-8.0","true","1","4.25","","",""
"303.8999999910593","i","choice","right","i","practice","18","266674","0.0-4.0-8.1","true","2","4.25","","",""
"148.70000000298023","e","choice","left","e","practice","26","269124","0.0-4.0-8.2","true","3","3.85","","",""
"280.40000000596046","i","choice","right","i","practice","34","271700","0.0-4.0-8.3","true","4","3.85","","",""
"31","i","choice","left","e","practice","42","274018","0.0-4.0-8.4","false","5","3.45","","",""
"44.1000000089407","i","choice","right","i","practice","50","276340","0.0-4.0-8.5","true","6","3.85","","",""
"2810.4000000059605","e","choice","left","e","practice","58","281431","0.0-4.0-8.6","true","7","3.85","","",""
"488.40000000596046","i","choice","right","i","practice","66","284214","0.0-4.0-8.7","true","8","3.65","","",""
"345.20000000298023","i","choice","right","i","practice","74","286849","0.0-4.0-8.8","true","9","3.65","","",""
"647.7000000029802","i","choice","left","e","practice","82","289784","0.0-4.0-8.9","false","10","3.4499999999999997","","",""
"756.8999999910593","e","choice","right","i","practice","90","292824","0.0-4.0-8.10","false","11","3.65","","",""
"429.8999999910593","i","choice","left","e","practice","98","295537","0.0-4.0-8.11","false","12","3.75","","",""
"616.5999999940395","i","choice","left","e","practice","106","298449","0.0-4.0-8.12","false","13","3.85","","",""
"174.40000000596046","e","choice","right","i","practice","114","300913","0.0-4.0-8.13","false","14","3.95","","",""
"242.59999999403954","i","choice","right","i","practice","122","303434","0.0-4.0-8.14","true","15","4.05","","",""
"732.7000000029802","e","choice","left","e","practice","130","306448","0.0-4.0-8.15","true","16","4.05","","",""
"51.30000001192093","i","choice","left","e","practice","138","308795","0.0-4.0-8.16","false","17","3.9499999999999997","","",""
"0.4000000059604645","i","choice","right","i","practice","146","311088","0.0-4.0-8.17","true","18","4.05","","",""
"190.20000000298023","e","choice","left","e","practice","154","313569","0.0-4.0-8.18","true","19","4.05","","",""
"425.20000000298023","i","choice","right","i","practice","162","316274","0.0-4.0-8.19","true","20","3.9499999999999997","","",""
"10.900000005960464","i","choice","right","i","practice","170","318574","0.0-4.0-8.20","true","21","3.9499999999999997","","",""
"516.3000000119209","e","choice","left","e","practice","178","321389","0.0-4.0-8.21","true","22","3.8499999999999996","","",""
"670.8999999910593","i","choice","right","i","practice","186","324349","0.0-4.0-8.22","true","23","3.8499999999999996","","",""
"816.7000000029802","e","choice","left","e","practice","194","327444","0.0-4.0-8.23","true","24","3.7499999999999996","","",""
"135.70000000298023","e","choice","left","e","practice","202","329863","0.0-4.0-8.24","true","25","3.7499999999999996","","",""
"611.6000000089407","i","choice","right","i","practice","210","332764","0.0-4.0-8.25","true","26","3.6499999999999995","","",""
"646.8000000119209","i","choice","right","i","experimental","221","368636","0.0-4.0-8.26","true","27","3.6499999999999995","","",""
"8713.09999999404","5","confid","","","html-slider-response","223","377853","0.0-4.0-10.26-0.26","","","","Rate your confidence","1",""
"369.1000000089407","e","choice","left","e","experimental","230","380013","0.0-4.0-8.27","true","28","3.5499999999999994","","",""
"3597.5999999940395","5","confid","","","html-slider-response","232","384114","0.0-4.0-10.27-0.27","","","","Rate your confidence","1",""
"297","i","choice","right","i","experimental","239","386190","0.0-4.0-8.28","true","29","3.5499999999999994","","",""
"4295.70000000298","5","confid","","","html-slider-response","241","391001","0.0-4.0-10.28-0.28","","","","Rate your confidence","1",""
"603.2000000029802","e","choice","left","e","experimental","248","393387","0.0-4.0-8.29","true","30","3.4499999999999993","","",""
"4409.100000008941","5","confid","","","html-slider-response","250","398302","0.0-4.0-10.29-0.29","","","","Rate your confidence","1",""
"432","i","choice","right","i","experimental","257","400528","0.0-4.0-8.30","true","31","3.4499999999999993","","",""
"3595.800000011921","5","confid","","","html-slider-response","259","404630","0.0-4.0-10.30-0.30","","","","Rate your confidence","1",""
"857.2999999970198","i","choice","left","e","experimental","266","407268","0.0-4.0-8.31","false","32","3.349999999999999","","",""
"4066.1000000089407","4","confid","","","html-slider-response","268","411837","0.0-4.0-10.31-0.31","","","","Rate your confidence","1",""
"959.3999999910593","e","choice","left","e","experimental","275","414587","0.0-4.0-8.32","true","33","3.4499999999999993","","",""
"3201","4","confid","","","html-slider-response","277","418294","0.0-4.0-10.32-0.32","","","","Rate your confidence","1",""
"422.09999999403954","i","choice","right","i","experimental","284","420503","0.0-4.0-8.33","true","34","3.4499999999999993","","",""
"2865.6000000089407","5","confid","","","html-slider-response","286","423872","0.0-4.0-10.33-0.33","","","","Rate your confidence","1",""
"993.3999999910593","e","choice","left","e","experimental","293","426648","0.0-4.0-8.34","true","35","3.349999999999999","","",""
"2898.0999999940395","5","confid","","","html-slider-response","295","430049","0.0-4.0-10.34-0.34","","","","Rate your confidence","1",""
"636.7000000029802","i","choice","right","i","experimental","302","432467","0.0-4.0-8.35","true","36","3.349999999999999","","",""
"3470.7999999970198","4","confid","","","html-slider-response","304","436442","0.0-4.0-10.35-0.35","","","","Rate your confidence","1",""
"822.2999999970198","e","choice","left","e","experimental","311","439040","0.0-4.0-8.36","true","37","3.249999999999999","","",""
"2870.7000000029802","4","confid","","","html-slider-response","313","442414","0.0-4.0-10.36-0.36","","","","Rate your confidence","1",""
"509.19999998807907","i","choice","right","i","experimental","320","444724","0.0-4.0-8.37","true","38","3.249999999999999","","",""
"4610.70000000298","5","confid","","","html-slider-response","322","449838","0.0-4.0-10.37-0.37","","","","Rate your confidence","1",""
"404.09999999403954","i","choice","right","i","experimental","329","452027","0.0-4.0-8.38","true","39","3.149999999999999","","",""
"2902.0999999940395","5","confid","","","html-slider-response","331","455432","0.0-4.0-10.38-0.38","","","","Rate your confidence","1",""
"980.5999999940395","e","choice","left","e","experimental","338","458193","0.0-4.0-8.39","true","40","3.149999999999999","","",""
"3218.7000000029802","4","confid","","","html-slider-response","340","461915","0.0-4.0-10.39-0.39","","","","Rate your confidence","1",""
"858","i","choice","right","i","experimental","347","464560","0.0-4.0-8.40","true","41","3.049999999999999","","",""
"2601.2000000029802","4","confid","","","html-slider-response","349","467664","0.0-4.0-10.40-0.40","","","","Rate your confidence","1",""
"791.7000000029802","e","choice","left","e","experimental","356","470250","0.0-4.0-8.41","true","42","3.049999999999999","","",""
"3724.8999999910593","4","confid","","","html-slider-response","358","474477","0.0-4.0-10.41-0.41","","","","Rate your confidence","1",""
"778.5999999940395","i","choice","right","i","experimental","365","477047","0.0-4.0-8.42","true","43","2.949999999999999","","",""
"3560.2000000029802","5","confid","","","html-slider-response","367","481110","0.0-4.0-10.42-0.42","","","","Rate your confidence","1",""
"863.2999999970198","i","choice","left","e","experimental","374","483767","0.0-4.0-8.43","false","44","2.949999999999999","","",""
"2917.4000000059605","4","confid","","","html-slider-response","376","487190","0.0-4.0-10.43-0.43","","","","Rate your confidence","1",""
"808.7999999970198","i","choice","right","i","experimental","383","489779","0.0-4.0-8.44","true","45","3.049999999999999","","",""
"3191.2000000029802","5","confid","","","html-slider-response","385","493475","0.0-4.0-10.44-0.44","","","","Rate your confidence","1",""
"1214.2000000029802","i","choice","left","e","experimental","392","496471","0.0-4.0-8.45","false","46","3.049999999999999","","",""
"3146.7999999970198","5","confid","","","html-slider-response","394","500122","0.0-4.0-10.45-0.45","","","","Rate your confidence","1",""
"742.5","i","choice","left","e","experimental","401","502649","0.0-4.0-8.46","false","47","3.149999999999999","","",""
"2891.5","5","confid","","","html-slider-response","403","506044","0.0-4.0-10.46-0.46","","","","Rate your confidence","1",""
"769.2999999970198","i","choice","right","i","experimental","410","508607","0.0-4.0-8.47","true","48","3.249999999999999","","",""
"2657.5","5","confid","","","html-slider-response","412","511769","0.0-4.0-10.47-0.47","","","","Rate your confidence","1",""
"2122.4000000059605","e","choice","left","e","experimental","419","515689","0.0-4.0-8.48","true","49","3.249999999999999","","",""
"3217.9000000059605","4","confid","","","html-slider-response","421","519412","0.0-4.0-10.48-0.48","","","","Rate your confidence","1",""
"673.2999999970198","i","choice","right","i","experimental","428","521882","0.0-4.0-8.49","true","50","3.149999999999999","","",""
"2933","4","confid","","","html-slider-response","430","525318","0.0-4.0-10.49-0.49","","","","Rate your confidence","1",""
"388.40000000596046","e","choice","left","e","experimental","437","527490","0.0-4.0-8.50","true","51","3.149999999999999","","",""
"2719.5999999940395","4","confid","","","html-slider-response","439","530713","0.0-4.0-10.50-0.50","","","","Rate your confidence","1",""
"719.5999999940395","i","choice","right","i","experimental","446","533219","0.0-4.0-8.51","true","52","3.049999999999999","","",""
"4296.5999999940395","5","confid","","","html-slider-response","448","538021","0.0-4.0-10.51-0.51","","","","Rate your confidence","1",""
"414.8999999910593","i","choice","right","i","experimental","455","540226","0.0-4.0-8.52","true","53","3.049999999999999","","",""
"2613","5","confid","","","html-slider-response","457","543343","0.0-4.0-10.52-0.52","","","","Rate your confidence","1",""
"673.2000000029802","i","choice","left","e","experimental","464","545807","0.0-4.0-8.53","false","54","2.949999999999999","","",""
"3680.7999999970198","5","confid","","","html-slider-response","466","549991","0.0-4.0-10.53-0.53","","","","Rate your confidence","1",""
"801.6999999880791","i","choice","left","e","experimental","473","552586","0.0-4.0-8.54","false","55","3.049999999999999","","",""
"4811.0999999940395","4","confid","","","html-slider-response","475","557902","0.0-4.0-10.54-0.54","","","","Rate your confidence","1",""
"856.4000000059605","e","choice","right","i","experimental","482","560546","0.0-4.0-8.55","false","56","3.149999999999999","","",""
"3806.9000000059605","3","confid","","","html-slider-response","484","564856","0.0-4.0-10.55-0.55","","","","Rate your confidence","1",""
"782.2999999970198","i","choice","right","i","experimental","491","567421","0.0-4.0-8.56","true","57","3.249999999999999","","",""
"3340.8999999910593","5","confid","","","html-slider-response","493","571266","0.0-4.0-10.56-0.56","","","","Rate your confidence","1",""
"797.7999999970198","e","choice","left","e","experimental","500","573842","0.0-4.0-8.57","true","58","3.249999999999999","","",""
"2883.2999999970198","4","confid","","","html-slider-response","502","577228","0.0-4.0-10.57-0.57","","","","Rate your confidence","1",""
"411.29999999701977","e","choice","left","e","experimental","509","579434","0.0-4.0-8.58","true","59","3.149999999999999","","",""
"2535.2000000029802","5","confid","","","html-slider-response","511","582475","0.0-4.0-10.58-0.58","","","","Rate your confidence","1",""
"660.6999999880791","i","choice","right","i","experimental","518","584932","0.0-4.0-8.59","true","60","3.149999999999999","","",""
"2685.4000000059605","5","confid","","","html-slider-response","520","588124","0.0-4.0-10.59-0.59","","","","Rate your confidence","1",""
"585.5999999940395","e","choice","left","e","experimental","527","590494","0.0-4.0-8.60","true","61","3.049999999999999","","",""
"2982.0999999940395","4","confid","","","html-slider-response","529","593979","0.0-4.0-10.60-0.60","","","","Rate your confidence","1",""
"743.1000000089407","i","choice","right","i","experimental","536","596508","0.0-4.0-8.61","true","62","3.049999999999999","","",""
"2585.2000000029802","4","confid","","","html-slider-response","538","599597","0.0-4.0-10.61-0.61","","","","Rate your confidence","1",""
"512.8999999910593","e","choice","left","e","experimental","545","601888","0.0-4.0-8.62","true","63","2.949999999999999","","",""
"3525.1000000089407","5","confid","","","html-slider-response","547","605917","0.0-4.0-10.62-0.62","","","","Rate your confidence","1",""
"555.0999999940395","e","choice","right","i","experimental","554","608267","0.0-4.0-8.63","false","64","2.949999999999999","","",""
"3356.800000011921","4","confid","","","html-slider-response","556","612129","0.0-4.0-10.63-0.63","","","","Rate your confidence","1",""
"782.4000000059605","e","choice","left","e","experimental","563","614697","0.0-4.0-8.64","true","65","3.049999999999999","","",""
"4146.20000000298","4","confid","","","html-slider-response","565","619346","0.0-4.0-10.64-0.64","","","","Rate your confidence","1",""
"915.2000000029802","i","choice","right","i","experimental","572","622040","0.0-4.0-8.65","true","66","3.049999999999999","","",""
"2609","5","confid","","","html-slider-response","574","625152","0.0-4.0-10.65-0.65","","","","Rate your confidence","1",""
"510.20000000298023","e","choice","left","e","experimental","581","627444","0.0-4.0-8.66","true","67","2.949999999999999","","",""
"3202.7999999970198","5","confid","","","html-slider-response","583","631150","0.0-4.0-10.66-0.66","","","","Rate your confidence","1",""
"760.0999999940395","e","choice","right","i","experimental","590","633694","0.0-4.0-8.67","false","68","2.949999999999999","","",""
"2862.3999999910593","4","confid","","","html-slider-response","592","637072","0.0-4.0-10.67-0.67","","","","Rate your confidence","1",""
"247.19999998807907","e","choice","right","i","experimental","600","645026","0.0-4.0-8.68","false","69","3.049999999999999","","",""
"3588.0999999940395","5","confid","","","html-slider-response","602","649119","0.0-4.0-10.68-0.68","","","","Rate your confidence","1",""
"450.5","e","choice","left","e","experimental","609","651363","0.0-4.0-8.69","true","70","3.149999999999999","","",""
"2002.7999999970198","5","confid","","","html-slider-response","611","653870","0.0-4.0-10.69-0.69","","","","Rate your confidence","1",""
"819.4000000059605","i","choice","left","e","experimental","618","656479","0.0-4.0-8.70","false","71","3.149999999999999","","",""
"2671.1000000089407","4","confid","","","html-slider-response","620","659653","0.0-4.0-10.70-0.70","","","","Rate your confidence","1",""
"323.90000000596046","i","choice","right","i","experimental","627","661759","0.0-4.0-8.71","true","72","3.249999999999999","","",""
"3678.7999999970198","4","confid","","","html-slider-response","629","665941","0.0-4.0-10.71-0.71","","","","Rate your confidence","1",""
"427.70000000298023","e","choice","right","i","experimental","636","668151","0.0-4.0-8.72","false","73","3.249999999999999","","",""
"3021.0999999940395","4","confid","","","html-slider-response","638","671676","0.0-4.0-10.72-0.72","","","","Rate your confidence","1",""
"391.79999999701977","e","choice","left","e","experimental","645","673854","0.0-4.0-8.73","true","74","3.349999999999999","","",""
"2653.5","5","confid","","","html-slider-response","647","677011","0.0-4.0-10.73-0.73","","","","Rate your confidence","1",""
"628.9000000059605","i","choice","right","i","experimental","654","679425","0.0-4.0-8.74","true","75","3.349999999999999","","",""
"3658.1000000089407","5","confid","","","html-slider-response","656","683586","0.0-4.0-10.74-0.74","","","","Rate your confidence","1",""
"453.40000000596046","e","choice","left","e","experimental","663","685820","0.0-4.0-8.75","true","76","3.249999999999999","","",""
"2565.0999999940395","5","confid","","","html-slider-response","665","688891","0.0-4.0-10.75-0.75","","","","Rate your confidence","1",""
"453.6000000089407","e","choice","left","e","experimental","672","691122","0.0-4.0-8.76","true","77","3.249999999999999","","",""
"2600","5","confid","","","html-slider-response","674","694228","0.0-4.0-10.76-0.76","","","","Rate your confidence","1",""
"724.7999999970198","i","choice","right","i","experimental","681","696742","0.0-4.0-8.77","true","78","3.149999999999999","","",""
"1947.8999999910593","4","confid","","","html-slider-response","683","699193","0.0-4.0-10.77-0.77","","","","Rate your confidence","1",""
"287","e","choice","right","i","experimental","690","701276","0.0-4.0-8.78","false","79","3.149999999999999","","",""
"2683.2000000029802","5","confid","","","html-slider-response","692","704463","0.0-4.0-10.78-0.78","","","","Rate your confidence","1",""
"1245","e","choice","left","e","experimental","699","707503","0.0-4.0-8.79","true","80","3.249999999999999","","",""
"4326.5","4","confid","","","html-slider-response","701","712333","0.0-4.0-10.79-0.79","","","","Rate your confidence","1",""
"786.6999999880791","i","choice","left","e","experimental","708","714906","0.0-4.0-8.80","false","81","3.249999999999999","","",""
"2471.7999999970198","4","confid","","","html-slider-response","710","717893","0.0-4.0-10.80-0.80","","","","Rate your confidence","1",""
"782.3000000119209","i","choice","right","i","experimental","717","720453","0.0-4.0-8.81","true","82","3.349999999999999","","",""
"4093.0999999940395","4","confid","","","html-slider-response","719","725050","0.0-4.0-10.81-0.81","","","","Rate your confidence","1",""
"817","i","choice","right","i","experimental","726","727662","0.0-4.0-8.82","true","83","3.349999999999999","","",""
"3548.9000000059605","4","confid","","","html-slider-response","728","731716","0.0-4.0-10.82-0.82","","","","Rate your confidence","1",""
"3330.2999999970198","e","choice","left","e","experimental","735","736843","0.0-4.0-8.83","true","84","3.249999999999999","","",""
"6595.9000000059605","3","confid","","","html-slider-response","737","743943","0.0-4.0-10.83-0.83","","","","Rate your confidence","1",""
"982.5","e","choice","left","e","experimental","744","746719","0.0-4.0-8.84","true","85","3.249999999999999","","",""
"2642.5999999940395","4","confid","","","html-slider-response","746","749866","0.0-4.0-10.84-0.84","","","","Rate your confidence","1",""
"418.09999999403954","i","choice","right","i","experimental","753","752069","0.0-4.0-8.85","true","86","3.149999999999999","","",""
"6656.5","3","confid","","","html-slider-response","755","759229","0.0-4.0-10.85-0.85","","","","Rate your confidence","1",""
"273.40000000596046","i","choice","right","i","experimental","762","761284","0.0-4.0-8.86","true","87","3.149999999999999","","",""
"2341.0999999940395","4","confid","","","html-slider-response","764","764130","0.0-4.0-10.86-0.86","","","","Rate your confidence","1",""
"680.5999999940395","e","choice","left","e","experimental","771","766604","0.0-4.0-8.87","true","88","3.049999999999999","","",""
"14618.5","4","confid","","","html-slider-response","773","781726","0.0-4.0-10.87-0.87","","","","Rate your confidence","1",""
"539.1000000089407","e","choice","left","e","experimental","780","784052","0.0-4.0-8.88","true","89","3.049999999999999","","",""
"2629.7999999970198","4","confid","","","html-slider-response","782","787185","0.0-4.0-10.88-0.88","","","","Rate your confidence","1",""
"408.90000000596046","i","choice","right","i","experimental","789","789388","0.0-4.0-8.89","true","90","2.949999999999999","","",""
"3344.5999999940395","4","confid","","","html-slider-response","791","793236","0.0-4.0-10.89-0.89","","","","Rate your confidence","1",""
"549","e","choice","right","i","experimental","798","795582","0.0-4.0-8.90","false","91","2.949999999999999","","",""
"5580.199999988079","3","confid","","","html-slider-response","800","801669","0.0-4.0-10.90-0.90","","","","Rate your confidence","1",""
"786.2999999970198","i","choice","left","e","experimental","807","804240","0.0-4.0-8.91","false","92","3.049999999999999","","",""
"4967.29999999702","4","confid","","","html-slider-response","809","809712","0.0-4.0-10.91-0.91","","","","Rate your confidence","1",""
"747.2000000029802","e","choice","left","e","experimental","816","812240","0.0-4.0-8.92","true","93","3.149999999999999","","",""
"2731.6000000089407","4","confid","","","html-slider-response","818","815476","0.0-4.0-10.92-0.92","","","","Rate your confidence","1",""
"328","i","choice","right","i","experimental","825","817601","0.0-4.0-8.93","true","94","3.149999999999999","","",""
"2256.6000000089407","3","confid","","","html-slider-response","827","820361","0.0-4.0-10.93-0.93","","","","Rate your confidence","1",""
"176.80000001192093","i","choice","left","e","experimental","834","822330","0.0-4.0-8.94","false","95","3.049999999999999","","",""
"2179","4","confid","","","html-slider-response","836","825014","0.0-4.0-10.94-0.94","","","","Rate your confidence","1",""
"674.0999999940395","i","choice","right","i","experimental","843","827478","0.0-4.0-8.95","true","96","3.149999999999999","","",""
"2671.1000000089407","3","confid","","","html-slider-response","845","830654","0.0-4.0-10.95-0.95","","","","Rate your confidence","1",""
"404.79999999701977","i","choice","left","e","experimental","852","832841","0.0-4.0-8.96","false","97","3.149999999999999","","",""
"2943","4","confid","","","html-slider-response","854","836290","0.0-4.0-10.96-0.96","","","","Rate your confidence","1",""
"323.40000000596046","e","choice","right","i","experimental","861","838392","0.0-4.0-8.97","false","98","3.249999999999999","","",""
"3786.7999999970198","5","confid","","","html-slider-response","863","842683","0.0-4.0-10.97-0.97","","","","Rate your confidence","1",""
"238.29999999701977","i","choice","left","e","experimental","870","844717","0.0-4.0-8.98","false","99","3.349999999999999","","",""
"4259","4","confid","","","html-slider-response","872","849480","0.0-4.0-10.98-0.98","","","","Rate your confidence","1",""
"696.5999999940395","e","choice","right","i","experimental","879","851960","0.0-4.0-8.99","false","100","3.4499999999999993","","",""
"3350.7999999970198","4","confid","","","html-slider-response","881","855815","0.0-4.0-10.99-0.99","","","","Rate your confidence","1",""
"235.6000000089407","e","choice","left","e","experimental","888","857846","0.0-4.0-8.100","true","101","3.5499999999999994","","",""
"2759.9000000059605","4","confid","","","html-slider-response","890","861111","0.0-4.0-10.100-0.100","","","","Rate your confidence","1",""
"214.59999999403954","e","choice","right","i","experimental","897","863121","0.0-4.0-8.101","false","102","3.5499999999999994","","",""
"2858.2999999970198","4","confid","","","html-slider-response","899","866484","0.0-4.0-10.101-0.101","","","","Rate your confidence","1",""
"353.5","e","choice","left","e","experimental","906","868620","0.0-4.0-8.102","true","103","3.6499999999999995","","",""
"2414.2000000029802","4","confid","","","html-slider-response","908","871539","0.0-4.0-10.102-0.102","","","","Rate your confidence","1",""
"331.59999999403954","i","choice","right","i","experimental","915","873660","0.0-4.0-8.103","true","104","3.6499999999999995","","",""
"2249.8999999910593","4","confid","","","html-slider-response","917","876414","0.0-4.0-10.103-0.103","","","","Rate your confidence","1",""
"325.5","e","choice","right","i","experimental","924","878532","0.0-4.0-8.104","false","105","3.5499999999999994","","",""
"5149.79999999702","4","confid","","","html-slider-response","926","884185","0.0-4.0-10.104-0.104","","","","Rate your confidence","1",""
"301.90000000596046","e","choice","left","e","experimental","933","886271","0.0-4.0-8.105","true","106","3.6499999999999995","","",""
"3738.2999999970198","4","confid","","","html-slider-response","935","890513","0.0-4.0-10.105-0.105","","","","Rate your confidence","1",""
"15495.5","e","choice","right","i","experimental","942","907793","0.0-4.0-8.106","false","107","3.6499999999999995","","",""
"4720.70000000298","3","confid","","","html-slider-response","944","913020","0.0-4.0-10.106-0.106","","","","Rate your confidence","1",""
"666.9000000059605","e","choice","left","e","experimental","951","915474","0.0-4.0-8.107","true","108","3.7499999999999996","","",""
"15038.5","4","confid","","","html-slider-response","953","931018","0.0-4.0-10.107-0.107","","","","Rate your confidence","1",""
"15078.5","e","choice","left","e","experimental","960","947880","0.0-4.0-8.108","true","109","3.7499999999999996","","",""
"2195.4000000059605","3","confid","","","html-slider-response","962","950580","0.0-4.0-10.108-0.108","","","","Rate your confidence","1",""
"4788.100000008941","i","choice","right","i","experimental","969","957163","0.0-4.0-8.109","true","110","3.6499999999999995","","",""
"6520.5","4","confid","","","html-slider-response","971","964187","0.0-4.0-10.109-0.109","","","","Rate your confidence","1",""
"569","i","choice","right","i","experimental","979","977110","0.0-4.0-8.110","true","111","3.6499999999999995","","",""
"2953.800000011921","5","confid","","","html-slider-response","981","980567","0.0-4.0-10.110-0.110","","","","Rate your confidence","1",""
"539.5999999940395","i","choice","left","e","experimental","988","982889","0.0-4.0-8.111","false","112","3.5499999999999994","","",""
"2641.699999988079","5","confid","","","html-slider-response","990","986035","0.0-4.0-10.111-0.111","","","","Rate your confidence","1",""
"4593.70000000298","e","choice","right","i","experimental","997","992415","0.0-4.0-8.112","false","113","3.6499999999999995","","",""
"4950.5","4","confid","","","html-slider-response","999","997870","0.0-4.0-10.112-0.112","","","","Rate your confidence","1",""
"1084.2000000029802","i","choice","left","e","experimental","1006","1000751","0.0-4.0-8.113","false","114","3.7499999999999996","","",""
"4880","4","confid","","","html-slider-response","1008","1006135","0.0-4.0-10.113-0.113","","","","Rate your confidence","1",""
"388","i","choice","right","i","experimental","1015","1008307","0.0-4.0-8.114","true","115","3.8499999999999996","","",""
"2595.7999999970198","5","confid","","","html-slider-response","1017","1011407","0.0-4.0-10.114-0.114","","","","Rate your confidence","1",""
"3246.5999999940395","e","choice","left","e","experimental","1024","1016439","0.0-4.0-8.115","true","116","3.8499999999999996","","",""
"2359.4000000059605","4","confid","","","html-slider-response","1026","1019302","0.0-4.0-10.115-0.115","","","","Rate your confidence","1",""
"728","i","choice","right","i","experimental","1033","1021814","0.0-4.0-8.116","true","117","3.7499999999999996","","",""
"2602.3999999910593","5","confid","","","html-slider-response","1035","1024920","0.0-4.0-10.116-0.116","","","","Rate your confidence","1",""
"638.8999999910593","e","choice","left","e","experimental","1042","1027351","0.0-4.0-8.117","true","118","3.7499999999999996","","",""
"2137.4000000059605","4","confid","","","html-slider-response","1044","1029992","0.0-4.0-10.117-0.117","","","","Rate your confidence","1",""
"1180.5","e","choice","right","i","experimental","1051","1032960","0.0-4.0-8.118","false","119","3.6499999999999995","","",""
"2532.2000000029802","4","confid","","","html-slider-response","1053","1035996","0.0-4.0-10.118-0.118","","","","Rate your confidence","1",""
"432.09999999403954","i","choice","left","e","experimental","1060","1038217","0.0-4.0-8.119","false","120","3.7499999999999996","","",""
"2423.9000000059605","5","confid","","","html-slider-response","1062","1041144","0.0-4.0-10.119-0.119","","","","Rate your confidence","1",""
"652.2000000029802","i","choice","right","i","experimental","1069","1043578","0.0-4.0-8.120","true","121","3.8499999999999996","","",""
"2431.7000000029802","5","confid","","","html-slider-response","1071","1046514","0.0-4.0-10.120-0.120","","","","Rate your confidence","1",""
"492.5","i","choice","left","e","experimental","1078","1048790","0.0-4.0-8.121","false","122","3.8499999999999996","","",""
"4966.699999988079","4","confid","","","html-slider-response","1080","1054262","0.0-4.0-10.121-0.121","","","","Rate your confidence","1",""
"838.1999999880791","e","choice","left","e","experimental","1087","1056891","0.0-4.0-8.122","true","123","3.9499999999999997","","",""
"3891.5","4","confid","","","html-slider-response","1089","1061286","0.0-4.0-10.122-0.122","","","","Rate your confidence","1",""
"553","i","choice","right","i","experimental","1096","1063634","0.0-4.0-8.123","true","124","3.9499999999999997","","",""
"2443.5","5","confid","","","html-slider-response","1098","1066582","0.0-4.0-10.123-0.123","","","","Rate your confidence","1",""
"906.7000000029802","e","choice","left","e","experimental","1105","1069275","0.0-4.0-8.124","true","125","3.8499999999999996","","",""
"3776","5","confid","","","html-slider-response","1107","1073567","0.0-4.0-10.124-0.124","","","","Rate your confidence","1",""
"4412.20000000298","e","choice","right","i","experimental","1114","1079768","0.0-4.0-8.125","false","126","3.8499999999999996","","",""
"2386.7999999970198","4","confid","","","html-slider-response","1116","1082657","0.0-4.0-10.125-0.125","","","","Rate your confidence","1",""
"295.79999999701977","i","choice","right","i","experimental","1123","1084749","0.0-4.0-8.126","true","127","3.9499999999999997","","",""
"3846.3999999910593","4","confid","","","html-slider-response","1125","1089098","0.0-4.0-10.126-0.126","","","","Rate your confidence","1",""
"621.2999999970198","e","choice","left","e","experimental","1132","1091517","0.0-4.0-8.127","true","128","3.9499999999999997","","",""
"2843.7000000029802","4","confid","","","html-slider-response","1134","1094864","0.0-4.0-10.127-0.127","","","","Rate your confidence","1",""
"505.6000000089407","i","choice","right","i","experimental","1141","1097168","0.0-4.0-8.128","true","129","3.8499999999999996","","",""
"2941","5","confid","","","html-slider-response","1143","1100613","0.0-4.0-10.128-0.128","","","","Rate your confidence","1",""
"746","e","choice","left","e","experimental","1150","1103140","0.0-4.0-8.129","true","130","3.8499999999999996","","",""
"3154.9000000059605","4","confid","","","html-slider-response","1152","1106799","0.0-4.0-10.129-0.129","","","","Rate your confidence","1",""
"5623.5999999940395","e","choice","left","e","experimental","1159","1114205","0.0-4.0-8.130","true","131","3.7499999999999996","","",""
"4433.199999988079","4","confid","","","html-slider-response","1161","1119142","0.0-4.0-10.130-0.130","","","","Rate your confidence","1",""
"6685.0999999940395","e","choice","right","i","experimental","1168","1127630","0.0-4.0-8.131","false","132","3.7499999999999996","","",""
"3753.5","3","confid","","","html-slider-response","1170","1131887","0.0-4.0-10.131-0.131","","","","Rate your confidence","1",""
"957.6999999880791","i","choice","left","e","experimental","1177","1134638","0.0-4.0-8.132","false","133","3.8499999999999996","","",""
"4645.399999991059","5","confid","","","html-slider-response","1179","1139788","0.0-4.0-10.132-0.132","","","","Rate your confidence","1",""
"786.0999999940395","i","choice","right","i","experimental","1186","1142376","0.0-4.0-8.133","true","134","3.9499999999999997","","",""
"3108.8999999910593","5","confid","","","html-slider-response","1188","1145989","0.0-4.0-10.133-0.133","","","","Rate your confidence","1",""
"404.70000000298023","i","choice","right","i","experimental","1195","1148177","0.0-4.0-8.134","true","135","3.9499999999999997","","",""
"2949.4000000059605","5","confid","","","html-slider-response","1197","1151631","0.0-4.0-10.134-0.134","","","","Rate your confidence","1",""
"595.3000000119209","e","choice","left","e","experimental","1204","1154015","0.0-4.0-8.135","true","136","3.8499999999999996","","",""
"2744.3999999910593","5","confid","","","html-slider-response","1206","1157264","0.0-4.0-10.135-0.135","","","","Rate your confidence","1",""
"412.79999999701977","i","choice","right","i","experimental","1213","1159470","0.0-4.0-8.136","true","137","3.8499999999999996","","",""
"2166.4000000059605","5","confid","","","html-slider-response","1215","1162140","0.0-4.0-10.136-0.136","","","","Rate your confidence","1",""
"447.40000000596046","e","choice","left","e","experimental","1222","1164390","0.0-4.0-8.137","true","138","3.7499999999999996","","",""
"3673.5999999940395","5","confid","","","html-slider-response","1224","1168570","0.0-4.0-10.137-0.137","","","","Rate your confidence","1",""
"907.8000000119209","i","choice","right","i","experimental","1231","1171272","0.0-4.0-8.138","true","139","3.7499999999999996","","",""
"3408.9000000059605","5","confid","","","html-slider-response","1233","1175186","0.0-4.0-10.138-0.138","","","","Rate your confidence","1",""
"4566.20000000298","e","choice","left","e","experimental","1240","1181554","0.0-4.0-8.139","true","140","3.6499999999999995","","",""
"2738.8999999910593","4","confid","","","html-slider-response","1242","1184794","0.0-4.0-10.139-0.139","","","","Rate your confidence","1",""
"6721.20000000298","e","choice","right","i","experimental","1249","1193295","0.0-4.0-8.140","false","141","3.6499999999999995","","",""
"4138.300000011921","4","confid","","","html-slider-response","1251","1197935","0.0-4.0-10.140-0.140","","","","Rate your confidence","1",""
"785.9000000059605","e","choice","left","e","experimental","1258","1200502","0.0-4.0-8.141","true","142","3.7499999999999996","","",""
"3072.5","5","confid","","","html-slider-response","1260","1204078","0.0-4.0-10.141-0.141","","","","Rate your confidence","1",""
"1036.5","e","choice","left","e","experimental","1267","1206917","0.0-4.0-8.142","true","143","3.7499999999999996","","",""
"2832.2000000029802","4","confid","","","html-slider-response","1269","1210252","0.0-4.0-10.142-0.142","","","","Rate your confidence","1",""
"424.70000000298023","i","choice","right","i","experimental","1276","1212475","0.0-4.0-8.143","true","144","3.6499999999999995","","",""
"3023.7000000029802","4","confid","","","html-slider-response","1278","1216002","0.0-4.0-10.143-0.143","","","","Rate your confidence","1",""
"506.1000000089407","e","choice","left","e","experimental","1285","1218299","0.0-4.0-8.144","true","145","3.6499999999999995","","",""
"2368.7000000029802","4","confid","","","html-slider-response","1287","1221172","0.0-4.0-10.144-0.144","","","","Rate your confidence","1",""
"738","e","choice","right","i","experimental","1294","1223694","0.0-4.0-8.145","false","146","3.5499999999999994","","",""
"2416.5","4","confid","","","html-slider-response","1296","1226614","0.0-4.0-10.145-0.145","","","","Rate your confidence","1",""
"481.20000000298023","e","choice","left","e","experimental","1303","1228877","0.0-4.0-8.146","true","147","3.6499999999999995","","",""
"4294.399999991059","4","confid","","","html-slider-response","1305","1233675","0.0-4.0-10.146-0.146","","","","Rate your confidence","1",""
"6507.4000000059605","e","choice","right","i","experimental","1312","1241970","0.0-4.0-8.147","false","148","3.6499999999999995","","",""
"12480","3","confid","","","html-slider-response","1314","1254956","0.0-4.0-10.147-0.147","","","","Rate your confidence","1",""
"531.1000000089407","i","choice","right","i","experimental","1321","1257273","0.0-4.0-8.148","true","149","3.7499999999999996","","",""
"2449.0999999940395","4","confid","","","html-slider-response","1323","1260225","0.0-4.0-10.148-0.148","","","","Rate your confidence","1",""
"332.5","i","choice","left","e","experimental","1330","1262339","0.0-4.0-8.149","false","150","3.7499999999999996","","",""
"2415.2999999970198","5","confid","","","html-slider-response","1332","1265258","0.0-4.0-10.149-0.149","","","","Rate your confidence","1",""
"404.1000000089407","e","choice","left","e","experimental","1339","1267445","0.0-4.0-8.150","true","151","3.8499999999999996","","",""
"2373.5999999940395","4","confid","","","html-slider-response","1341","1270323","0.0-4.0-10.150-0.150","","","","Rate your confidence","1",""
"370.59999999403954","i","choice","right","i","experimental","1348","1272495","0.0-4.0-8.151","true","152","3.8499999999999996","","",""
"3172.8999999910593","4","confid","","","html-slider-response","1350","1276173","0.0-4.0-10.151-0.151","","","","Rate your confidence","1",""
"620.0999999940395","i","choice","right","i","experimental","1358","1324852","0.0-4.0-8.152","true","153","3.7499999999999996","","",""
"2582.6000000089407","4","confid","","","html-slider-response","1360","1327939","0.0-4.0-10.152-0.152","","","","Rate your confidence","1",""
"676.0999999940395","e","choice","left","e","experimental","1367","1330401","0.0-4.0-8.153","true","154","3.7499999999999996","","",""
"2693.7999999970198","4","confid","","","html-slider-response","1369","1333598","0.0-4.0-10.153-0.153","","","","Rate your confidence","1",""
"753.2000000029802","i","choice","right","i","experimental","1376","1336132","0.0-4.0-8.154","true","155","3.6499999999999995","","",""
"3715.8999999910593","4","confid","","","html-slider-response","1378","1340352","0.0-4.0-10.154-0.154","","","","Rate your confidence","1",""
"360.5","e","choice","left","e","experimental","1385","1342507","0.0-4.0-8.155","true","156","3.6499999999999995","","",""
"2233.800000011921","4","confid","","","html-slider-response","1387","1345245","0.0-4.0-10.155-0.155","","","","Rate your confidence","1",""
"344.20000000298023","i","choice","left","e","experimental","1394","1347382","0.0-4.0-8.156","false","157","3.5499999999999994","","",""
"2291.800000011921","4","confid","","","html-slider-response","1396","1350177","0.0-4.0-10.156-0.156","","","","Rate your confidence","1",""
"1169.3999999910593","e","choice","right","i","experimental","1403","1353130","0.0-4.0-8.157","false","158","3.6499999999999995","","",""
"2183.1000000089407","4","confid","","","html-slider-response","1405","1355818","0.0-4.0-10.157-0.157","","","","Rate your confidence","1",""
"349.90000000596046","e","choice","left","e","experimental","1412","1357958","0.0-4.0-8.158","true","159","3.7499999999999996","","",""
"3007","5","confid","","","html-slider-response","1414","1361469","0.0-4.0-10.158-0.158","","","","Rate your confidence","1",""
"389.1000000089407","i","choice","right","i","experimental","1421","1363635","0.0-4.0-8.159","true","160","3.7499999999999996","","",""
"20583","4","confid","","","html-slider-response","1423","1384725","0.0-4.0-10.159-0.159","","","","Rate your confidence","1",""
"4981.5999999940395","e","choice","left","e","experimental","1430","1391497","0.0-4.0-8.160","true","161","3.6499999999999995","","",""
"2256.9000000059605","4","confid","","","html-slider-response","1432","1394258","0.0-4.0-10.160-0.160","","","","Rate your confidence","1",""
"339.3999999910593","i","choice","right","i","experimental","1439","1396397","0.0-4.0-8.161","true","162","3.6499999999999995","","",""
"3930.7999999970198","4","confid","","","html-slider-response","1441","1400831","0.0-4.0-10.161-0.161","","","","Rate your confidence","1",""
"226.6000000089407","e","choice","right","i","experimental","1448","1402855","0.0-4.0-8.162","false","163","3.5499999999999994","","",""
"1905.1000000089407","4","confid","","","html-slider-response","1450","1405263","0.0-4.0-10.162-0.162","","","","Rate your confidence","1",""
"279.29999999701977","e","choice","left","e","experimental","1457","1407346","0.0-4.0-8.163","true","164","3.6499999999999995","","",""
"1934.5999999940395","5","confid","","","html-slider-response","1459","1409784","0.0-4.0-10.163-0.163","","","","Rate your confidence","1",""
"259.59999999403954","i","choice","left","e","experimental","1466","1411822","0.0-4.0-8.164","false","165","3.6499999999999995","","",""
"2232.5999999940395","4","confid","","","html-slider-response","1468","1414561","0.0-4.0-10.164-0.164","","","","Rate your confidence","1",""
"56458.79999999702","e","choice","right","i","experimental","1475","1472812","0.0-4.0-8.165","false","166","3.7499999999999996","","",""
"3107.7999999970198","3","confid","","","html-slider-response","1477","1476426","0.0-4.0-10.165-0.165","","","","Rate your confidence","1",""
"377.09999999403954","i","choice","right","i","experimental","1484","1478607","0.0-4.0-8.166","true","167","3.8499999999999996","","",""
"2149.2000000029802","5","confid","","","html-slider-response","1486","1481260","0.0-4.0-10.166-0.166","","","","Rate your confidence","1",""
"765.8999999910593","e","choice","left","e","experimental","1493","1483817","0.0-4.0-8.167","true","168","3.8499999999999996","","",""
"2119.0999999940395","4","confid","","","html-slider-response","1495","1486440","0.0-4.0-10.167-0.167","","","","Rate your confidence","1",""
"400.70000000298023","e","choice","left","e","experimental","1502","1488636","0.0-4.0-8.168","true","169","3.7499999999999996","","",""
"2322.2999999970198","5","confid","","","html-slider-response","1504","1491464","0.0-4.0-10.168-0.168","","","","Rate your confidence","1",""
"236.5","e","choice","right","i","experimental","1511","1493486","0.0-4.0-8.169","false","170","3.7499999999999996","","",""
"2424.2999999970198","5","confid","","","html-slider-response","1513","1496415","0.0-4.0-10.169-0.169","","","","Rate your confidence","1",""
"18709.70000000298","e","choice","right","i","experimental","1520","1516914","0.0-4.0-8.170","false","171","3.8499999999999996","","",""
"3322.2999999970198","4","confid","","","html-slider-response","1522","1520742","0.0-4.0-10.170-0.170","","","","Rate your confidence","1",""
"260.70000000298023","e","choice","left","e","experimental","1529","1522799","0.0-4.0-8.171","true","172","3.9499999999999997","","",""
"2059.7999999970198","4","confid","","","html-slider-response","1531","1525362","0.0-4.0-10.171-0.171","","","","Rate your confidence","1",""
"314.29999999701977","i","choice","right","i","experimental","1538","1527479","0.0-4.0-8.172","true","173","3.9499999999999997","","",""
"2211.3999999910593","5","confid","","","html-slider-response","1540","1530197","0.0-4.0-10.172-0.172","","","","Rate your confidence","1",""
"163.19999998807907","e","choice","left","e","experimental","1547","1532154","0.0-4.0-8.173","true","174","3.8499999999999996","","",""
"2166.4000000059605","4","confid","","","html-slider-response","1549","1534825","0.0-4.0-10.173-0.173","","","","Rate your confidence","1",""
"176.19999998807907","e","choice","left","e","experimental","1556","1536788","0.0-4.0-8.174","true","175","3.8499999999999996","","",""
"2617.0999999940395","4","confid","","","html-slider-response","1558","1539909","0.0-4.0-10.174-0.174","","","","Rate your confidence","1",""
"584.2000000029802","i","choice","right","i","experimental","1565","1542278","0.0-4.0-8.175","true","176","3.7499999999999996","","",""
"2221.7999999970198","5","confid","","","html-slider-response","1567","1545004","0.0-4.0-10.175-0.175","","","","Rate your confidence","1",""
"622.4000000059605","e","choice","left","e","experimental","1574","1547420","0.0-4.0-8.176","true","177","3.7499999999999996","","",""
"2376.2000000029802","5","confid","","","html-slider-response","1576","1550300","0.0-4.0-10.176-0.176","","","","Rate your confidence","1",""
"516.3999999910593","i","choice","right","i","experimental","1583","1552616","0.0-4.0-8.177","true","178","3.6499999999999995","","",""
"2259","5","confid","","","html-slider-response","1585","1555381","0.0-4.0-10.177-0.177","","","","Rate your confidence","1",""
"845.4000000059605","e","choice","left","e","experimental","1592","1558007","0.0-4.0-8.178","true","179","3.6499999999999995","","",""
"2456.4000000059605","4","confid","","","html-slider-response","1594","1560967","0.0-4.0-10.178-0.178","","","","Rate your confidence","1",""
"730","e","choice","right","i","experimental","1601","1563486","0.0-4.0-8.179","false","180","3.5499999999999994","","",""
"1881.7000000029802","4","confid","","","html-slider-response","1603","1565873","0.0-4.0-10.179-0.179","","","","Rate your confidence","1",""
"814.1000000089407","e","choice","left","e","experimental","1610","1568470","0.0-4.0-8.180","true","181","3.6499999999999995","","",""
"2053.1000000089407","5","confid","","","html-slider-response","1612","1571028","0.0-4.0-10.180-0.180","","","","Rate your confidence","1",""
"805.3999999910593","i","choice","right","i","experimental","1619","1573614","0.0-4.0-8.181","true","182","3.6499999999999995","","",""
"3689.5","4","confid","","","html-slider-response","1621","1577809","0.0-4.0-10.181-0.181","","","","Rate your confidence","1",""
"582.7999999970198","i","choice","right","i","experimental","1628","1580197","0.0-4.0-8.182","true","183","3.5499999999999994","","",""
"4366.699999988079","4","confid","","","html-slider-response","1630","1585068","0.0-4.0-10.182-0.182","","","","Rate your confidence","1",""
"579.0999999940395","i","choice","left","e","experimental","1637","1587430","0.0-4.0-8.183","false","184","3.5499999999999994","","",""
"1990.5999999940395","4","confid","","","html-slider-response","1639","1589925","0.0-4.0-10.183-0.183","","","","Rate your confidence","1",""
"327.70000000298023","i","choice","right","i","experimental","1646","1592032","0.0-4.0-8.184","true","185","3.6499999999999995","","",""
"3048.4000000059605","5","confid","","","html-slider-response","1648","1595585","0.0-4.0-10.184-0.184","","","","Rate your confidence","1",""
"581.9000000059605","e","choice","left","e","experimental","1655","1597951","0.0-4.0-8.185","true","186","3.6499999999999995","","",""
"3538.6000000089407","5","confid","","","html-slider-response","1657","1601994","0.0-4.0-10.185-0.185","","","","Rate your confidence","1",""
"868.2999999970198","i","choice","right","i","experimental","1664","1604649","0.0-4.0-8.186","true","187","3.5499999999999994","","",""
"2564.5","5","confid","","","html-slider-response","1666","1607717","0.0-4.0-10.186-0.186","","","","Rate your confidence","1",""
"493","e","choice","left","e","experimental","1673","1610017","0.0-4.0-8.187","true","188","3.5499999999999994","","",""
"2293.5","4","confid","","","html-slider-response","1675","1612814","0.0-4.0-10.187-0.187","","","","Rate your confidence","1",""
"404.59999999403954","e","choice","right","i","experimental","1682","1615017","0.0-4.0-8.188","false","189","3.4499999999999993","","",""
"2316.2999999970198","4","confid","","","html-slider-response","1684","1617837","0.0-4.0-10.188-0.188","","","","Rate your confidence","1",""
"316.09999999403954","e","choice","left","e","experimental","1691","1619941","0.0-4.0-8.189","true","190","3.5499999999999994","","",""
"2555.9000000059605","5","confid","","","html-slider-response","1693","1623002","0.0-4.0-10.189-0.189","","","","Rate your confidence","1",""
"226.40000000596046","e","choice","right","i","experimental","1700","1625012","0.0-4.0-8.190","false","191","3.5499999999999994","","",""
"2542.9000000059605","5","confid","","","html-slider-response","1702","1628059","0.0-4.0-10.190-0.190","","","","Rate your confidence","1",""
"372.30000001192093","e","choice","left","e","experimental","1709","1630222","0.0-4.0-8.191","true","192","3.6499999999999995","","",""
"2032","5","confid","","","html-slider-response","1711","1632761","0.0-4.0-10.191-0.191","","","","Rate your confidence","1",""
"291.1000000089407","e","choice","left","e","experimental","1718","1634845","0.0-4.0-8.192","true","193","3.6499999999999995","","",""
"2403.5","5","confid","","","html-slider-response","1720","1637753","0.0-4.0-10.192-0.192","","","","Rate your confidence","1",""
"257.59999999403954","i","choice","right","i","experimental","1727","1639798","0.0-4.0-8.193","true","194","3.5499999999999994","","",""
"2144.2000000029802","5","confid","","","html-slider-response","1729","1642447","0.0-4.0-10.193-0.193","","","","Rate your confidence","1","99627"
