"rt","response","task","target_side","correct_response","trial_type","trial_index","time_elapsed","internal_node_id","correct","trial_number","n_dots","stimulus","slider_start","participant"
"881","e","choice","right","i","practice","10","60732","0.0-4.0-8.0","false","1","4.25","","",""
"341","e","choice","left","e","practice","18","63356","0.0-4.0-8.1","true","2","4.65","","",""
"174","i","choice","left","e","practice","26","65809","0.0-4.0-8.2","false","3","4.65","","",""
"4430","i","choice","right","i","practice","34","72524","0.0-4.0-8.3","true","4","5.050000000000001","","",""
"524","i","choice","right","i","practice","42","75327","0.0-4.0-8.4","true","5","5.050000000000001","","",""
"14.000000000029104","e","choice","left","e","practice","50","77627","0.0-4.0-8.5","true","6","4.65","","",""
"29","e","choice","left","e","practice","58","79938","0.0-4.0-8.6","true","7","4.65","","",""
"108","i","choice","right","i","practice","66","82331","0.0-4.0-8.7","true","8","4.45","","",""
"45","e","choice","left","e","practice","74","84656","0.0-4.0-8.8","true","9","4.45","","",""
"625","i","choice","right","i","practice","82","87566","0.0-4.0-8.9","true","10","4.25","","",""
"271.9999999999709","i","choice","right","i","practice","90","90118","0.0-4.0-8.10","true","11","4.25","","",""
"21","e","choice","left","e","practice","98","92424","0.0-4.0-8.11","true","12","4.15","","",""
"844","e","choice","left","e","practice","106","95554","0.0-4.0-8.12","true","13","4.15","","",""
"315","i","choice","right","i","practice","114","98151","0.0-4.0-8.13","true","14","4.050000000000001","","",""
"375","i","choice","right","i","practice","122","100810","0.0-4.0-8.14","true","15","4.050000000000001","","",""
"375","e","choice","left","e","practice","130","103469","0.0-4.0-8.15","true","16","3.9500000000000006","","",""
"381.9999999999709","i","choice","left","e","practice","138","106133","0.0-4.0-8.16","false","17","3.9500000000000006","","",""
"141","i","choice","right","i","practice","146","108559","0.0-4.0-8.17","true","18","4.050000000000001","","",""
"571","e","choice","left","e","practice","154","111414","0.0-4.0-8.18","true","19","4.050000000000001","","",""
"442","i","choice","right","i","practice","162","114141","0.0-4.0-8.19","true","20","3.9500000000000006","","",""
"82","e","choice","left","e","practice","170","116504","0.0-4.0-8.20","true","21","3.9500000000000006","","",""
"527","i","choice","right","i","practice","178","119319","0.0-4.0-8.21","true","22","3.8500000000000005","","",""
"419","e","choice","left","e","practice","186","122021","0.0-4.0-8.22","true","23","3.8500000000000005","","",""
"505","i","choice","right","i","practice","194","124807","0.0-4.0-8.23","true","24","3.7500000000000004","","",""
"130","i","choice","right","i","practice","202","127219","0.0-4.0-8.24","true","25","3.7500000000000004","","",""
"361.0000000000291","e","choice","left","e","practice","210","129864","0.0-4.0-8.25","true","26","3.6500000000000004","","",""
"190.9999999999709","i","choice","right","i","experimental","221","159252","0.0-4.0-8.26","true","27","3.6500000000000004","","",""
"6158","2","confid","","","html-slider-response","223","165915","0.0-4.0-10.26-0.26","","","","Rate your confidence","1",""
"720","e","choice","left","e","experimental","230","168417","0.0-4.0-8.27","true","28","3.5500000000000003","","",""
"2834.000000000029","2","confid","","","html-slider-response","232","171756","0.0-4.0-10.27-0.27","","","","Rate your confidence","1",""
"202","e","choice","right","i","experimental","239","173738","0.0-4.0-8.28","false","29","3.5500000000000003","","",""
"3378.000000000058","2","confid","","","html-slider-response","241","177622","0.0-4.0-10.28-0.28","","","","Rate your confidence","1",""
"86","e","choice","left","e","experimental","248","179489","0.0-4.0-8.29","true","30","3.6500000000000004","","",""
"4701","3","confid","","","html-slider-response","250","184697","0.0-4.0-10.29-0.29","","","","Rate your confidence","1",""
"476","i","choice","right","i","experimental","257","186953","0.0-4.0-8.30","true","31","3.6500000000000004","","",""
"3778","3","confid","","","html-slider-response","259","191237","0.0-4.0-10.30-0.30","","","","Rate your confidence","1",""
"189","e","choice","left","e","experimental","266","193222","0.0-4.0-8.31","true","32","3.5500000000000003","","",""
"2560","3","confid","","","html-slider-response","268","196288","0.0-4.0-10.31-0.31","","","","Rate your confidence","1",""
"615","i","choice","right","i","experimental","275","198685","0.0-4.0-8.32","true","33","3.5500000000000003","","",""
"2463","3","confid","","","html-slider-response","277","201653","0.0-4.0-10.32-0.32","","","","Rate your confidence","1",""
"453","e","choice","left","e","experimental","284","203887","0.0-4.0-8.33","true","34","3.45","","",""
"2324.999999999942","2","confid","","","html-slider-response","286","206714","0.0-4.0-10.33-0.33","","","","Rate your confidence","1",""
"644.0000000000582","e","choice","left","e","experimental","293","209142","0.0-4.0-8.34","true","35","3.45","","",""
"3346","2","confid","","","html-slider-response","295","212994","0.0-4.0-10.34-0.34","","","","Rate your confidence","1",""
"330","e","choice","right","i","experimental","302","215104","0.0-4.0-8.35","false","36","3.35","","",""
"2448","2","confid","","","html-slider-response","304","218058","0.0-4.0-10.35-0.35","","","","Rate your confidence","1",""
"441","e","choice","right","i","experimental","311","220280","0.0-4.0-8.36","false","37","3.45","","",""
"2819","3","confid","","","html-slider-response","313","223605","0.0-4.0-10.36-0.36","","","","Rate your confidence","1",""
"145","e","choice","left","e","experimental","320","225531","0.0-4.0-8.37","true","38","3.5500000000000003","","",""
"2775.999999999942","3","confid","","","html-slider-response","322","228814","0.0-4.0-10.37-0.37","","","","Rate your confidence","1",""
"103","i","choice","right","i","experimental","329","230701","0.0-4.0-8.38","true","39","3.5500000000000003","","",""
"2075","3","confid","","","html-slider-response","331","233281","0.0-4.0-10.38-0.38","","","","Rate your confidence","1",""
"676","e","choice","left","e","experimental","338","235738","0.0-4.0-8.39","true","40","3.45","","",""
"1919","3","confid","","","html-slider-response","340","238161","0.0-4.0-10.39-0.39","","","","Rate your confidence","1",""
"89","i","choice","right","i","experimental","347","240028","0.0-4.0-8.40","true","41","3.45","","",""
"2247","3","confid","","","html-slider-response","349","242781","0.0-4.0-10.40-0.40","","","","Rate your confidence","1",""
"207","e","choice","left","e","experimental","356","244767","0.0-4.0-8.41","true","42","3.35","","",""
"2784","2","confid","","","html-slider-response","358","248056","0.0-4.0-10.41-0.41","","","","Rate your confidence","1",""
"1285","i","choice","right","i","experimental","365","251120","0.0-4.0-8.42","true","43","3.35","","",""
"1702","2","confid","","","html-slider-response","367","253328","0.0-4.0-10.42-0.42","","","","Rate your confidence","1",""
"324","e","choice","left","e","experimental","374","255429","0.0-4.0-8.43","true","44","3.25","","",""
"2294","2","confid","","","html-slider-response","376","258229","0.0-4.0-10.43-0.43","","","","Rate your confidence","1",""
"235","e","choice","left","e","experimental","383","260242","0.0-4.0-8.44","true","45","3.25","","",""
"1763.9999999999418","2","confid","","","html-slider-response","385","262510","0.0-4.0-10.44-0.44","","","","Rate your confidence","1",""
"140","i","choice","right","i","experimental","392","264426","0.0-4.0-8.45","true","46","3.15","","",""
"2426","2","confid","","","html-slider-response","394","267356","0.0-4.0-10.45-0.45","","","","Rate your confidence","1",""
"284.9999999999418","e","choice","left","e","experimental","401","269419","0.0-4.0-8.46","true","47","3.15","","",""
"2210","2","confid","","","html-slider-response","403","272136","0.0-4.0-10.46-0.46","","","","Rate your confidence","1",""
"258","i","choice","right","i","experimental","410","274173","0.0-4.0-8.47","true","48","3.05","","",""
"3253","2","confid","","","html-slider-response","412","277930","0.0-4.0-10.47-0.47","","","","Rate your confidence","1",""
"774.9999999999418","i","choice","left","e","experimental","419","280486","0.0-4.0-8.48","false","49","3.05","","",""
"3859","2","confid","","","html-slider-response","421","284851","0.0-4.0-10.48-0.48","","","","Rate your confidence","1",""
"642","e","choice","right","i","experimental","428","287270","0.0-4.0-8.49","false","50","3.15","","",""
"2058.000000000058","2","confid","","","html-slider-response","430","289835","0.0-4.0-10.49-0.49","","","","Rate your confidence","1",""
"343.9999999999418","i","choice","right","i","experimental","437","291959","0.0-4.0-8.50","true","51","3.25","","",""
"2390","2","confid","","","html-slider-response","439","294854","0.0-4.0-10.50-0.50","","","","Rate your confidence","1",""
"782","e","choice","left","e","experimental","446","297414","0.0-4.0-8.51","true","52","3.25","","",""
"3136","3","confid","","","html-slider-response","448","301058","0.0-4.0-10.51-0.51","","","","Rate your confidence","1",""
"879","e","choice","left","e","experimental","455","303712","0.0-4.0-8.52","true","53","3.15","","",""
"2433","3","confid","","","html-slider-response","457","306651","0.0-4.0-10.52-0.52","","","","Rate your confidence","1",""
"542","i","choice","right","i","experimental","464","308969","0.0-4.0-8.53","true","54","3.15","","",""
"2375","2","confid","","","html-slider-response","466","311852","0.0-4.0-10.53-0.53","","","","Rate your confidence","1",""
"385","e","choice","left","e","experimental","473","314016","0.0-4.0-8.54","true","55","3.05","","",""
"2650","3","confid","","","html-slider-response","475","317172","0.0-4.0-10.54-0.54","","","","Rate your confidence","1",""
"186","i","choice","right","i","experimental","482","319136","0.0-4.0-8.55","true","56","3.05","","",""
"1693.0000000000582","2","confid","","","html-slider-response","484","321335","0.0-4.0-10.55-0.55","","","","Rate your confidence","1",""
"254","e","choice","left","e","experimental","491","323367","0.0-4.0-8.56","true","57","2.9499999999999997","","",""
"3805","2","confid","","","html-slider-response","493","327677","0.0-4.0-10.56-0.56","","","","Rate your confidence","1",""
"231","i","choice","right","i","experimental","500","329690","0.0-4.0-8.57","true","58","2.9499999999999997","","",""
"2176.000000000058","2","confid","","","html-slider-response","502","332371","0.0-4.0-10.57-0.57","","","","Rate your confidence","1",""
"507","e","choice","left","e","experimental","509","334659","0.0-4.0-8.58","true","59","2.8499999999999996","","",""
"2742.999999999942","3","confid","","","html-slider-response","511","337905","0.0-4.0-10.58-0.58","","","","Rate your confidence","1",""
"982","e","choice","right","i","experimental","518","340662","0.0-4.0-8.59","false","60","2.8499999999999996","","",""
"2249","2","confid","","","html-slider-response","520","343415","0.0-4.0-10.59-0.59","","","","Rate your confidence","1",""
"575","e","choice","right","i","experimental","527","345771","0.0-4.0-8.60","false","61","2.9499999999999997","","",""
"1880","2","confid","","","html-slider-response","529","348156","0.0-4.0-10.60-0.60","","","","Rate your confidence","1",""
"319","i","choice","left","e","experimental","536","350254","0.0-4.0-8.61","false","62","3.05","","",""
"2780.000000000058","2","confid","","","html-slider-response","538","353537","0.0-4.0-10.61-0.61","","","","Rate your confidence","1",""
"891","i","choice","right","i","experimental","545","356209","0.0-4.0-8.62","true","63","3.15","","",""
"1687.0000000000582","3","confid","","","html-slider-response","547","358399","0.0-4.0-10.62-0.62","","","","Rate your confidence","1",""
"224.0000000000582","e","choice","left","e","experimental","554","360402","0.0-4.0-8.63","true","64","3.15","","",""
"2046","3","confid","","","html-slider-response","556","362951","0.0-4.0-10.63-0.63","","","","Rate your confidence","1",""
"345","i","choice","right","i","experimental","563","365076","0.0-4.0-8.64","true","65","3.05","","",""
"5179","2","confid","","","html-slider-response","565","370760","0.0-4.0-10.64-0.64","","","","Rate your confidence","1",""
"222","e","choice","left","e","experimental","572","372753","0.0-4.0-8.65","true","66","3.05","","",""
"2683","2","confid","","","html-slider-response","574","375941","0.0-4.0-10.65-0.65","","","","Rate your confidence","1",""
"87.00000000005821","e","choice","left","e","experimental","581","377805","0.0-4.0-8.66","true","67","2.9499999999999997","","",""
"2448.000000000058","2","confid","","","html-slider-response","583","380756","0.0-4.0-10.66-0.66","","","","Rate your confidence","1",""
"1119","i","choice","right","i","experimental","590","383656","0.0-4.0-8.67","true","68","2.9499999999999997","","",""
"1749","3","confid","","","html-slider-response","592","385908","0.0-4.0-10.67-0.67","","","","Rate your confidence","1",""
"1227","e","choice","right","i","experimental","600","419600","0.0-4.0-8.68","false","69","2.8499999999999996","","",""
"3190","2","confid","","","html-slider-response","602","423294","0.0-4.0-10.68-0.68","","","","Rate your confidence","1",""
"473","e","choice","left","e","experimental","609","425552","0.0-4.0-8.69","true","70","2.9499999999999997","","",""
"1877","3","confid","","","html-slider-response","611","427931","0.0-4.0-10.69-0.69","","","","Rate your confidence","1",""
"880.9999999999418","e","choice","left","e","experimental","618","430592","0.0-4.0-8.70","true","71","2.9499999999999997","","",""
"2615.999999999942","3","confid","","","html-slider-response","620","433712","0.0-4.0-10.70-0.70","","","","Rate your confidence","1",""
"1045.9999999999418","i","choice","right","i","experimental","627","436540","0.0-4.0-8.71","true","72","2.8499999999999996","","",""
"3028.000000000058","3","confid","","","html-slider-response","629","440073","0.0-4.0-10.71-0.71","","","","Rate your confidence","1",""
"1332","i","choice","right","i","experimental","636","443186","0.0-4.0-8.72","true","73","2.8499999999999996","","",""
"1786.9999999998836","2","confid","","","html-slider-response","638","445476","0.0-4.0-10.72-0.72","","","","Rate your confidence","1",""
"759.0000000001164","e","choice","left","e","experimental","645","448014","0.0-4.0-8.73","true","74","2.7499999999999996","","",""
"3018.0000000001164","2","confid","","","html-slider-response","647","451535","0.0-4.0-10.73-0.73","","","","Rate your confidence","1",""
"640","i","choice","right","i","experimental","654","453952","0.0-4.0-8.74","true","75","2.7499999999999996","","",""
"3739","2","confid","","","html-slider-response","656","458195","0.0-4.0-10.74-0.74","","","","Rate your confidence","1",""
"236","e","choice","left","e","experimental","663","460211","0.0-4.0-8.75","true","76","2.6499999999999995","","",""
"2660","2","confid","","","html-slider-response","665","463373","0.0-4.0-10.75-0.75","","","","Rate your confidence","1",""
"818","i","choice","left","e","experimental","672","465976","0.0-4.0-8.76","false","77","2.6499999999999995","","",""
"3140","2","confid","","","html-slider-response","674","469618","0.0-4.0-10.76-0.76","","","","Rate your confidence","1",""
"836","i","choice","right","i","experimental","681","472231","0.0-4.0-8.77","true","78","2.7499999999999996","","",""
"2674","2","confid","","","html-slider-response","683","475408","0.0-4.0-10.77-0.77","","","","Rate your confidence","1",""
"844.0000000001164","e","choice","left","e","experimental","690","478035","0.0-4.0-8.78","true","79","2.7499999999999996","","",""
"3633","3","confid","","","html-slider-response","692","482171","0.0-4.0-10.78-0.78","","","","Rate your confidence","1",""
"758","i","choice","right","i","experimental","699","484712","0.0-4.0-8.79","true","80","2.6499999999999995","","",""
"3098","3","confid","","","html-slider-response","701","488315","0.0-4.0-10.79-0.79","","","","Rate your confidence","1",""
"320","e","choice","right","i","experimental","708","490413","0.0-4.0-8.80","false","81","2.6499999999999995","","",""
"2319.0000000001164","3","confid","","","html-slider-response","710","493237","0.0-4.0-10.80-0.80","","","","Rate your confidence","1",""
"274","e","choice","left","e","experimental","717","495292","0.0-4.0-8.81","true","82","2.7499999999999996","","",""
"1558","2","confid","","","html-slider-response","719","497354","0.0-4.0-10.81-0.81","","","","Rate your confidence","1",""
"610","e","choice","left","e","experimental","726","499742","0.0-4.0-8.82","true","83","2.7499999999999996","","",""
"1604","2","confid","","","html-slider-response","728","501852","0.0-4.0-10.82-0.82","","","","Rate your confidence","1",""
"662","i","choice","right","i","experimental","735","504290","0.0-4.0-8.83","true","84","2.6499999999999995","","",""
"1761","3","confid","","","html-slider-response","737","506558","0.0-4.0-10.83-0.83","","","","Rate your confidence","1",""
"89.99999999988358","e","choice","right","i","experimental","744","508427","0.0-4.0-8.84","false","85","2.6499999999999995","","",""
"1425","2","confid","","","html-slider-response","746","510355","0.0-4.0-10.84-0.84","","","","Rate your confidence","1",""
"115","e","choice","left","e","experimental","753","512251","0.0-4.0-8.85","true","86","2.7499999999999996","","",""
"2824","2","confid","","","html-slider-response","755","515580","0.0-4.0-10.85-0.85","","","","Rate your confidence","1",""
"259","e","choice","right","i","experimental","762","517625","0.0-4.0-8.86","false","87","2.7499999999999996","","",""
"1776.0000000001164","2","confid","","","html-slider-response","764","519904","0.0-4.0-10.86-0.86","","","","Rate your confidence","1",""
"941","i","choice","left","e","experimental","771","522620","0.0-4.0-8.87","false","88","2.8499999999999996","","",""
"5098","2","confid","","","html-slider-response","773","528222","0.0-4.0-10.87-0.87","","","","Rate your confidence","1",""
"585","e","choice","left","e","experimental","780","530586","0.0-4.0-8.88","true","89","2.9499999999999997","","",""
"14729","2","confid","","","html-slider-response","782","545819","0.0-4.0-10.88-0.88","","","","Rate your confidence","1",""
"705","e","choice","right","i","experimental","789","548301","0.0-4.0-8.89","false","90","2.9499999999999997","","",""
"2161","2","confid","","","html-slider-response","791","550966","0.0-4.0-10.89-0.89","","","","Rate your confidence","1",""
"749","i","choice","right","i","experimental","798","553492","0.0-4.0-8.90","true","91","3.05","","",""
"2748","4","confid","","","html-slider-response","800","556748","0.0-4.0-10.90-0.90","","","","Rate your confidence","1",""
"911.9999999998836","e","choice","left","e","experimental","807","559440","0.0-4.0-8.91","true","92","3.05","","",""
"1696","2","confid","","","html-slider-response","809","561643","0.0-4.0-10.91-0.91","","","","Rate your confidence","1",""
"4833","e","choice","right","i","experimental","816","568253","0.0-4.0-8.92","false","93","2.9499999999999997","","",""
"16381","2","confid","","","html-slider-response","818","585137","0.0-4.0-10.92-0.92","","","","Rate your confidence","1",""
"816.0000000001164","i","choice","left","e","experimental","825","587735","0.0-4.0-8.93","false","94","3.05","","",""
"2479","2","confid","","","html-slider-response","827","590718","0.0-4.0-10.93-0.93","","","","Rate your confidence","1",""
"1106","e","choice","right","i","experimental","834","593606","0.0-4.0-8.94","false","95","3.15","","",""
"1507.9999999998836","3","confid","","","html-slider-response","836","595618","0.0-4.0-10.94-0.94","","","","Rate your confidence","1",""
"176","e","choice","left","e","experimental","843","597569","0.0-4.0-8.95","true","96","3.25","","",""
"2146","2","confid","","","html-slider-response","845","600219","0.0-4.0-10.95-0.95","","","","Rate your confidence","1",""
"745","i","choice","right","i","experimental","852","602745","0.0-4.0-8.96","true","97","3.25","","",""
"1484.0000000001164","3","confid","","","html-slider-response","854","604734","0.0-4.0-10.96-0.96","","","","Rate your confidence","1",""
"377","e","choice","left","e","experimental","861","606893","0.0-4.0-8.97","true","98","3.15","","",""
"1932","3","confid","","","html-slider-response","863","609328","0.0-4.0-10.97-0.97","","","","Rate your confidence","1",""
"3.0000000001164153","e","choice","left","e","experimental","870","611110","0.0-4.0-8.98","true","99","3.15","","",""
"2572","3","confid","","","html-slider-response","872","614191","0.0-4.0-10.98-0.98","","","","Rate your confidence","1",""
"502","i","choice","right","i","experimental","879","616474","0.0-4.0-8.99","true","100","3.05","","",""
"1987","4","confid","","","html-slider-response","881","618966","0.0-4.0-10.99-0.99","","","","Rate your confidence","1",""
"1051","i","choice","right","i","experimental","888","621790","0.0-4.0-8.100","true","101","3.05","","",""
"1608","3","confid","","","html-slider-response","890","623900","0.0-4.0-10.100-0.100","","","","Rate your confidence","1",""
"725","e","choice","left","e","experimental","897","626403","0.0-4.0-8.101","true","102","2.9499999999999997","","",""
"1531","2","confid","","","html-slider-response","899","628442","0.0-4.0-10.101-0.101","","","","Rate your confidence","1",""
"166","e","choice","left","e","experimental","906","630387","0.0-4.0-8.102","true","103","2.9499999999999997","","",""
"1774","2","confid","","","html-slider-response","908","632665","0.0-4.0-10.102-0.102","","","","Rate your confidence","1",""
"852","i","choice","right","i","experimental","915","635295","0.0-4.0-8.103","true","104","2.8499999999999996","","",""
"2985","2","confid","","","html-slider-response","917","638783","0.0-4.0-10.103-0.103","","","","Rate your confidence","1",""
"48","e","choice","left","e","experimental","924","640612","0.0-4.0-8.104","true","105","2.8499999999999996","","",""
"2061","2","confid","","","html-slider-response","926","643177","0.0-4.0-10.104-0.104","","","","Rate your confidence","1",""
"92.00000000011642","e","choice","right","i","experimental","933","645051","0.0-4.0-8.105","false","106","2.7499999999999996","","",""
"2849","2","confid","","","html-slider-response","935","648403","0.0-4.0-10.105-0.105","","","","Rate your confidence","1",""
"307","e","choice","right","i","experimental","942","650489","0.0-4.0-8.106","false","107","2.8499999999999996","","",""
"2665","2","confid","","","html-slider-response","944","653659","0.0-4.0-10.106-0.106","","","","Rate your confidence","1",""
"497","e","choice","left","e","experimental","951","655934","0.0-4.0-8.107","true","108","2.9499999999999997","","",""
"2913","3","confid","","","html-slider-response","953","659351","0.0-4.0-10.107-0.107","","","","Rate your confidence","1",""
"695","e","choice","left","e","experimental","960","661826","0.0-4.0-8.108","true","109","2.9499999999999997","","",""
"2031","2","confid","","","html-slider-response","962","664364","0.0-4.0-10.108-0.108","","","","Rate your confidence","1",""
"337","e","choice","right","i","experimental","969","666482","0.0-4.0-8.109","false","110","2.8499999999999996","","",""
"2626","2","confid","","","html-slider-response","971","669612","0.0-4.0-10.109-0.109","","","","Rate your confidence","1",""
"1","e","choice","left","e","experimental","979","924561","0.0-4.0-8.110","true","111","2.9499999999999997","","",""
"3007.9999999998836","2","confid","","","html-slider-response","981","928074","0.0-4.0-10.110-0.110","","","","Rate your confidence","1",""
"236","e","choice","right","i","experimental","988","930108","0.0-4.0-8.111","false","112","2.9499999999999997","","",""
"1755","2","confid","","","html-slider-response","990","932366","0.0-4.0-10.111-0.111","","","","Rate your confidence","1",""
"232","i","choice","left","e","experimental","997","934372","0.0-4.0-8.112","false","113","3.05","","",""
"2178","3","confid","","","html-slider-response","999","937055","0.0-4.0-10.112-0.112","","","","Rate your confidence","1",""
"12","i","choice","right","i","experimental","1006","938730","0.0-4.0-8.113","true","114","3.15","","",""
"2686","2","confid","","","html-slider-response","1008","941921","0.0-4.0-10.113-0.113","","","","Rate your confidence","1",""
"676","i","choice","right","i","experimental","1015","944383","0.0-4.0-8.114","true","115","3.15","","",""
"2692","3","confid","","","html-slider-response","1017","947578","0.0-4.0-10.114-0.114","","","","Rate your confidence","1",""
"180","e","choice","left","e","experimental","1024","949537","0.0-4.0-8.115","true","116","3.05","","",""
"1879","2","confid","","","html-slider-response","1026","951920","0.0-4.0-10.115-0.115","","","","Rate your confidence","1",""
"789.0000000001164","i","choice","left","e","experimental","1033","954486","0.0-4.0-8.116","false","117","3.05","","",""
"2379","2","confid","","","html-slider-response","1035","957368","0.0-4.0-10.116-0.116","","","","Rate your confidence","1",""
"567","i","choice","right","i","experimental","1042","959714","0.0-4.0-8.117","true","118","3.15","","",""
"3208.9999999998836","4","confid","","","html-slider-response","1044","963425","0.0-4.0-10.117-0.117","","","","Rate your confidence","1",""
"839.9999999998836","e","choice","left","e","experimental","1051","966046","0.0-4.0-8.118","true","119","3.15","","",""
"2584","2","confid","","","html-slider-response","1053","969135","0.0-4.0-10.118-0.118","","","","Rate your confidence","1",""
"963.0000000001164","i","choice","right","i","experimental","1060","971879","0.0-4.0-8.119","true","120","3.05","","",""
"2223","3","confid","","","html-slider-response","1062","974608","0.0-4.0-10.119-0.119","","","","Rate your confidence","1",""
"803","e","choice","right","i","experimental","1069","977192","0.0-4.0-8.120","false","121","3.05","","",""
"1994","3","confid","","","html-slider-response","1071","979690","0.0-4.0-10.120-0.120","","","","Rate your confidence","1",""
"130","e","choice","left","e","experimental","1078","981598","0.0-4.0-8.121","true","122","3.15","","",""
"2251","2","confid","","","html-slider-response","1080","984353","0.0-4.0-10.121-0.121","","","","Rate your confidence","1",""
"467","e","choice","left","e","experimental","1087","986598","0.0-4.0-8.122","true","123","3.15","","",""
"2424.0000000001164","2","confid","","","html-slider-response","1089","989528","0.0-4.0-10.122-0.122","","","","Rate your confidence","1",""
"537","i","choice","right","i","experimental","1096","991845","0.0-4.0-8.123","true","124","3.05","","",""
"2529.0000000001164","4","confid","","","html-slider-response","1098","994878","0.0-4.0-10.123-0.123","","","","Rate your confidence","1",""
"241.00000000011642","e","choice","left","e","experimental","1105","996904","0.0-4.0-8.124","true","125","3.05","","",""
"1762.9999999998836","3","confid","","","html-slider-response","1107","999171","0.0-4.0-10.124-0.124","","","","Rate your confidence","1",""
"959","i","choice","right","i","experimental","1114","1001912","0.0-4.0-8.125","true","126","2.9499999999999997","","",""
"3697.9999999998836","4","confid","","","html-slider-response","1116","1006116","0.0-4.0-10.125-0.125","","","","Rate your confidence","1",""
"106","e","choice","right","i","experimental","1123","1008003","0.0-4.0-8.126","false","127","2.9499999999999997","","",""
"3295","2","confid","","","html-slider-response","1125","1011802","0.0-4.0-10.126-0.126","","","","Rate your confidence","1",""
"143","e","choice","left","e","experimental","1132","1013727","0.0-4.0-8.127","true","128","3.05","","",""
"2660.9999999998836","2","confid","","","html-slider-response","1134","1016891","0.0-4.0-10.127-0.127","","","","Rate your confidence","1",""
"629","e","choice","left","e","experimental","1141","1019302","0.0-4.0-8.128","true","129","3.05","","",""
"1726","2","confid","","","html-slider-response","1143","1021533","0.0-4.0-10.128-0.128","","","","Rate your confidence","1",""
"482.0000000001164","i","choice","right","i","experimental","1150","1023794","0.0-4.0-8.129","true","130","2.9499999999999997","","",""
"2389.0000000001164","3","confid","","","html-slider-response","1152","1026688","0.0-4.0-10.129-0.129","","","","Rate your confidence","1",""
"253.00000000011642","e","choice","right","i","experimental","1159","1028722","0.0-4.0-8.130","false","131","2.9499999999999997","","",""
"1923","2","confid","","","html-slider-response","1161","1031151","0.0-4.0-10.130-0.130","","","","Rate your confidence","1",""
"616","e","choice","left","e","experimental","1168","1033546","0.0-4.0-8.131","true","132","3.05","","",""
"1533","2","confid","","","html-slider-response","1170","1035583","0.0-4.0-10.131-0.131","","","","Rate your confidence","1",""
"204","e","choice","right","i","experimental","1177","1037567","0.0-4.0-8.132","false","133","3.05","","",""
"2117.9999999998836","2","confid","","","html-slider-response","1179","1040189","0.0-4.0-10.132-0.132","","","","Rate your confidence","1",""
"291","e","choice","left","e","experimental","1186","1042259","0.0-4.0-8.133","true","134","3.15","","",""
"1600.9999999998836","2","confid","","","html-slider-response","1188","1044364","0.0-4.0-10.133-0.133","","","","Rate your confidence","1",""
"790.0000000002328","e","choice","left","e","experimental","1195","1046937","0.0-4.0-8.134","true","135","3.15","","",""
"1516","2","confid","","","html-slider-response","1197","1048959","0.0-4.0-10.134-0.134","","","","Rate your confidence","1",""
"493.9999999998836","i","choice","right","i","experimental","1204","1051232","0.0-4.0-8.135","true","136","3.05","","",""
"1607","4","confid","","","html-slider-response","1206","1053345","0.0-4.0-10.135-0.135","","","","Rate your confidence","1",""
"388.0000000001164","e","choice","left","e","experimental","1213","1055514","0.0-4.0-8.136","true","137","3.05","","",""
"2746.0000000001164","3","confid","","","html-slider-response","1215","1058765","0.0-4.0-10.136-0.136","","","","Rate your confidence","1",""
"1133","i","choice","right","i","experimental","1222","1061678","0.0-4.0-8.137","true","138","2.9499999999999997","","",""
"3819","3","confid","","","html-slider-response","1224","1066002","0.0-4.0-10.137-0.137","","","","Rate your confidence","1",""
"536","i","choice","right","i","experimental","1231","1068316","0.0-4.0-8.138","true","139","2.9499999999999997","","",""
"1902","3","confid","","","html-slider-response","1233","1070723","0.0-4.0-10.138-0.138","","","","Rate your confidence","1",""
"141.99999999976717","e","choice","left","e","experimental","1240","1072644","0.0-4.0-8.139","true","140","2.8499999999999996","","",""
"1868","2","confid","","","html-slider-response","1242","1075016","0.0-4.0-10.139-0.139","","","","Rate your confidence","1",""
"519","i","choice","right","i","experimental","1249","1077317","0.0-4.0-8.140","true","141","2.8499999999999996","","",""
"3511","4","confid","","","html-slider-response","1251","1081331","0.0-4.0-10.140-0.140","","","","Rate your confidence","1",""
"302","e","choice","left","e","experimental","1258","1083412","0.0-4.0-8.141","true","142","2.7499999999999996","","",""
"2847","3","confid","","","html-slider-response","1260","1086765","0.0-4.0-10.141-0.141","","","","Rate your confidence","1",""
"1","e","choice","right","i","experimental","1267","1088546","0.0-4.0-8.142","false","143","2.7499999999999996","","",""
"1902.9999999997672","2","confid","","","html-slider-response","1269","1090954","0.0-4.0-10.142-0.142","","","","Rate your confidence","1",""
"203","e","choice","left","e","experimental","1276","1092936","0.0-4.0-8.143","true","144","2.8499999999999996","","",""
"3780","2","confid","","","html-slider-response","1278","1097223","0.0-4.0-10.143-0.143","","","","Rate your confidence","1",""
"283","e","choice","right","i","experimental","1285","1099283","0.0-4.0-8.144","false","145","2.8499999999999996","","",""
"2003","2","confid","","","html-slider-response","1287","1101789","0.0-4.0-10.144-0.144","","","","Rate your confidence","1",""
"291","e","choice","left","e","experimental","1294","1103859","0.0-4.0-8.145","true","146","2.9499999999999997","","",""
"2322","2","confid","","","html-slider-response","1296","1106687","0.0-4.0-10.145-0.145","","","","Rate your confidence","1",""
"282","e","choice","left","e","experimental","1303","1108749","0.0-4.0-8.146","true","147","2.9499999999999997","","",""
"1597","3","confid","","","html-slider-response","1305","1110851","0.0-4.0-10.146-0.146","","","","Rate your confidence","1",""
"673","i","choice","right","i","experimental","1312","1113304","0.0-4.0-8.147","true","148","2.8499999999999996","","",""
"1836.0000000002328","2","confid","","","html-slider-response","1314","1115646","0.0-4.0-10.147-0.147","","","","Rate your confidence","1",""
"876","e","choice","left","e","experimental","1321","1118299","0.0-4.0-8.148","true","149","2.8499999999999996","","",""
"2197","2","confid","","","html-slider-response","1323","1120999","0.0-4.0-10.148-0.148","","","","Rate your confidence","1",""
"711","e","choice","right","i","experimental","1330","1123494","0.0-4.0-8.149","false","150","2.7499999999999996","","",""
"3885","2","confid","","","html-slider-response","1332","1127883","0.0-4.0-10.149-0.149","","","","Rate your confidence","1",""
"688.9999999997672","i","choice","left","e","experimental","1339","1130353","0.0-4.0-8.150","false","151","2.8499999999999996","","",""
"2384","2","confid","","","html-slider-response","1341","1133245","0.0-4.0-10.150-0.150","","","","Rate your confidence","1",""
"958","i","choice","right","i","experimental","1348","1135981","0.0-4.0-8.151","true","152","2.9499999999999997","","",""
"2310","2","confid","","","html-slider-response","1350","1138796","0.0-4.0-10.151-0.151","","","","Rate your confidence","1",""
"118","i","choice","right","i","experimental","1358","1146943","0.0-4.0-8.152","true","153","2.9499999999999997","","",""
"2118","3","confid","","","html-slider-response","1360","1149565","0.0-4.0-10.152-0.152","","","","Rate your confidence","1",""
"1924.0000000002328","i","choice","left","e","experimental","1367","1153271","0.0-4.0-8.153","false","154","2.8499999999999996","","",""
"2365","2","confid","","","html-slider-response","1369","1156144","0.0-4.0-10.153-0.153","","","","Rate your confidence","1",""
"637","i","choice","right","i","experimental","1376","1158559","0.0-4.0-8.154","true","155","2.9499999999999997","","",""
"1891","2","confid","","","html-slider-response","1378","1160954","0.0-4.0-10.154-0.154","","","","Rate your confidence","1",""
"863","e","choice","left","e","experimental","1385","1163599","0.0-4.0-8.155","true","156","2.9499999999999997","","",""
"5296","2","confid","","","html-slider-response","1387","1169402","0.0-4.0-10.155-0.155","","","","Rate your confidence","1",""
"68","e","choice","left","e","experimental","1394","1171249","0.0-4.0-8.156","true","157","2.8499999999999996","","",""
"2837","2","confid","","","html-slider-response","1396","1174590","0.0-4.0-10.156-0.156","","","","Rate your confidence","1",""
"31","e","choice","right","i","experimental","1403","1176402","0.0-4.0-8.157","false","158","2.8499999999999996","","",""
"1596","2","confid","","","html-slider-response","1405","1178503","0.0-4.0-10.157-0.157","","","","Rate your confidence","1",""
"647","i","choice","right","i","experimental","1412","1180930","0.0-4.0-8.158","true","159","2.9499999999999997","","",""
"2174","3","confid","","","html-slider-response","1414","1183609","0.0-4.0-10.158-0.158","","","","Rate your confidence","1",""
"768","e","choice","left","e","experimental","1421","1186156","0.0-4.0-8.159","true","160","2.9499999999999997","","",""
"1812.9999999997672","2","confid","","","html-slider-response","1423","1188477","0.0-4.0-10.159-0.159","","","","Rate your confidence","1",""
"518","e","choice","left","e","experimental","1430","1190774","0.0-4.0-8.160","true","161","2.8499999999999996","","",""
"3769","2","confid","","","html-slider-response","1432","1195048","0.0-4.0-10.160-0.160","","","","Rate your confidence","1",""
"791","i","choice","right","i","experimental","1439","1197620","0.0-4.0-8.161","true","162","2.8499999999999996","","",""
"2243","2","confid","","","html-slider-response","1441","1200370","0.0-4.0-10.161-0.161","","","","Rate your confidence","1",""
"321","e","choice","right","i","experimental","1448","1202473","0.0-4.0-8.162","false","163","2.7499999999999996","","",""
"2526","2","confid","","","html-slider-response","1450","1205504","0.0-4.0-10.162-0.162","","","","Rate your confidence","1",""
"503","e","choice","left","e","experimental","1457","1207787","0.0-4.0-8.163","true","164","2.8499999999999996","","",""
"1886","2","confid","","","html-slider-response","1459","1210178","0.0-4.0-10.163-0.163","","","","Rate your confidence","1",""
"562","e","choice","left","e","experimental","1466","1212521","0.0-4.0-8.164","true","165","2.8499999999999996","","",""
"1746","3","confid","","","html-slider-response","1468","1214772","0.0-4.0-10.164-0.164","","","","Rate your confidence","1",""
"482","e","choice","right","i","experimental","1475","1217036","0.0-4.0-8.165","false","166","2.7499999999999996","","",""
"1683","3","confid","","","html-slider-response","1477","1219224","0.0-4.0-10.165-0.165","","","","Rate your confidence","1",""
"409","e","choice","left","e","experimental","1484","1221413","0.0-4.0-8.166","true","167","2.8499999999999996","","",""
"2758","3","confid","","","html-slider-response","1486","1224675","0.0-4.0-10.166-0.166","","","","Rate your confidence","1",""
"842","i","choice","right","i","experimental","1493","1227302","0.0-4.0-8.167","true","168","2.8499999999999996","","",""
"2414","3","confid","","","html-slider-response","1495","1230221","0.0-4.0-10.167-0.167","","","","Rate your confidence","1",""
"446.99999999976717","e","choice","left","e","experimental","1502","1232448","0.0-4.0-8.168","true","169","2.7499999999999996","","",""
"2511","2","confid","","","html-slider-response","1504","1235464","0.0-4.0-10.168-0.168","","","","Rate your confidence","1",""
"822.0000000002328","i","choice","right","i","experimental","1511","1238067","0.0-4.0-8.169","true","170","2.7499999999999996","","",""
"2157","2","confid","","","html-slider-response","1513","1240728","0.0-4.0-10.169-0.169","","","","Rate your confidence","1",""
"342","e","choice","right","i","experimental","1520","1242848","0.0-4.0-8.170","false","171","2.6499999999999995","","",""
"1628","4","confid","","","html-slider-response","1522","1244980","0.0-4.0-10.170-0.170","","","","Rate your confidence","1",""
"690","e","choice","left","e","experimental","1529","1247448","0.0-4.0-8.171","true","172","2.7499999999999996","","",""
"1933","2","confid","","","html-slider-response","1531","1249886","0.0-4.0-10.171-0.171","","","","Rate your confidence","1",""
"721","i","choice","right","i","experimental","1538","1252388","0.0-4.0-8.172","true","173","2.7499999999999996","","",""
"2942","2","confid","","","html-slider-response","1540","1255833","0.0-4.0-10.172-0.172","","","","Rate your confidence","1",""
"82","e","choice","left","e","experimental","1547","1257699","0.0-4.0-8.173","true","174","2.6499999999999995","","",""
"1827","2","confid","","","html-slider-response","1549","1260030","0.0-4.0-10.173-0.173","","","","Rate your confidence","1",""
"635","i","choice","left","e","experimental","1556","1262446","0.0-4.0-8.174","false","175","2.6499999999999995","","",""
"2062.999999999767","2","confid","","","html-slider-response","1558","1265014","0.0-4.0-10.174-0.174","","","","Rate your confidence","1",""
"501","e","choice","right","i","experimental","1565","1267293","0.0-4.0-8.175","false","176","2.7499999999999996","","",""
"2210.000000000233","2","confid","","","html-slider-response","1567","1270008","0.0-4.0-10.175-0.175","","","","Rate your confidence","1",""
"515","i","choice","right","i","experimental","1574","1272307","0.0-4.0-8.176","true","177","2.8499999999999996","","",""
"2143","2","confid","","","html-slider-response","1576","1274955","0.0-4.0-10.176-0.176","","","","Rate your confidence","1",""
"396","e","choice","left","e","experimental","1583","1277131","0.0-4.0-8.177","true","178","2.8499999999999996","","",""
"2635","3","confid","","","html-slider-response","1585","1280272","0.0-4.0-10.177-0.177","","","","Rate your confidence","1",""
"1016","i","choice","right","i","experimental","1592","1283071","0.0-4.0-8.178","true","179","2.7499999999999996","","",""
"2072","2","confid","","","html-slider-response","1594","1285647","0.0-4.0-10.178-0.178","","","","Rate your confidence","1",""
"482","e","choice","left","e","experimental","1601","1287907","0.0-4.0-8.179","true","180","2.7499999999999996","","",""
"1855","2","confid","","","html-slider-response","1603","1290265","0.0-4.0-10.179-0.179","","","","Rate your confidence","1",""
"576","e","choice","left","e","experimental","1610","1292620","0.0-4.0-8.180","true","181","2.6499999999999995","","",""
"2362","2","confid","","","html-slider-response","1612","1295488","0.0-4.0-10.180-0.180","","","","Rate your confidence","1",""
"577","i","choice","right","i","experimental","1619","1297849","0.0-4.0-8.181","true","182","2.6499999999999995","","",""
"2453","2","confid","","","html-slider-response","1621","1300805","0.0-4.0-10.181-0.181","","","","Rate your confidence","1",""
"255.99999999976717","e","choice","left","e","experimental","1628","1302841","0.0-4.0-8.182","true","183","2.5499999999999994","","",""
"2051","2","confid","","","html-slider-response","1630","1305398","0.0-4.0-10.182-0.182","","","","Rate your confidence","1",""
"395.99999999976717","e","choice","right","i","experimental","1637","1307577","0.0-4.0-8.183","false","184","2.5499999999999994","","",""
"1692","2","confid","","","html-slider-response","1639","1309776","0.0-4.0-10.183-0.183","","","","Rate your confidence","1",""
"226","e","choice","left","e","experimental","1646","1311783","0.0-4.0-8.184","true","185","2.6499999999999995","","",""
"2916","2","confid","","","html-slider-response","1648","1315205","0.0-4.0-10.184-0.184","","","","Rate your confidence","1",""
"1630","i","choice","right","i","experimental","1655","1318616","0.0-4.0-8.185","true","186","2.6499999999999995","","",""
"2090.000000000233","2","confid","","","html-slider-response","1657","1321210","0.0-4.0-10.185-0.185","","","","Rate your confidence","1",""
"511.00000000023283","e","choice","right","i","experimental","1664","1323498","0.0-4.0-8.186","false","187","2.5499999999999994","","",""
"1539","2","confid","","","html-slider-response","1666","1325544","0.0-4.0-10.186-0.186","","","","Rate your confidence","1",""
"69","e","choice","left","e","experimental","1673","1327384","0.0-4.0-8.187","true","188","2.6499999999999995","","",""
"1972","2","confid","","","html-slider-response","1675","1329861","0.0-4.0-10.187-0.187","","","","Rate your confidence","1",""
"451.00000000023283","e","choice","right","i","experimental","1682","1332084","0.0-4.0-8.188","false","189","2.6499999999999995","","",""
"2360.000000000233","2","confid","","","html-slider-response","1684","1334950","0.0-4.0-10.188-0.188","","","","Rate your confidence","1",""
"17","e","choice","left","e","experimental","1691","1336746","0.0-4.0-8.189","true","190","2.7499999999999996","","",""
"1707","2","confid","","","html-slider-response","1693","1338957","0.0-4.0-10.189-0.189","","","","Rate your confidence","1",""
"783","i","choice","left","e","experimental","1700","1341519","0.0-4.0-8.190","false","191","2.7499999999999996","","",""
"2328","2","confid","","","html-slider-response","1702","1344350","0.0-4.0-10.190-0.190","","","","Rate your confidence","1",""
"343","e","choice","right","i","experimental","1709","1346472","0.0-4.0-8.191","false","192","2.8499999999999996","","",""
"1574","2","confid","","","html-slider-response","1711","1348550","0.0-4.0-10.191-0.191","","","","Rate your confidence","1",""
"817","i","choice","right","i","experimental","1718","1351145","0.0-4.0-8.192","true","193","2.9499999999999997","","",""
"2493.000000000233","2","confid","","","html-slider-response","1720","1354143","0.0-4.0-10.192-0.192","","","","Rate your confidence","1",""
"25","e","choice","left","e","experimental","1727","1355942","0.0-4.0-8.193","true","194","2.9499999999999997","","",""
"1866","2","confid","","","html-slider-response","1729","1358311","0.0-4.0-10.193-0.193","","","","Rate your confidence","1","76787"
