"rt","response","task","target_side","correct_response","trial_type","trial_index","time_elapsed","internal_node_id","correct","trial_number","n_dots","stimulus","slider_start","participant"
"966.2000000476837","i","choice","right","i","practice","10","47199","0.0-4.0-8.0","true","1","4.25","","",""
"308.39999985694885","e","choice","left","e","practice","18","49802","0.0-4.0-8.1","true","2","4.25","","",""
"282","i","choice","right","i","practice","26","52370","0.0-4.0-8.2","true","3","3.85","","",""
"298","e","choice","left","e","practice","34","54952","0.0-4.0-8.3","true","4","3.85","","",""
"676.4000000953674","e","choice","left","e","practice","42","57935","0.0-4.0-8.4","true","5","3.45","","",""
"273.09999990463257","i","choice","right","i","practice","50","60497","0.0-4.0-8.5","true","6","3.45","","",""
"235.40000009536743","i","choice","right","i","practice","58","63015","0.0-4.0-8.6","true","7","3.25","","",""
"403.09999990463257","i","choice","left","e","practice","66","65711","0.0-4.0-8.7","false","8","3.25","","",""
"526.2000000476837","i","choice","right","i","practice","74","68530","0.0-4.0-8.8","true","9","3.45","","",""
"449.10000014305115","e","choice","left","e","practice","82","71272","0.0-4.0-8.9","true","10","3.45","","",""
"291.5","i","choice","left","e","practice","90","73858","0.0-4.0-8.10","false","11","3.25","","",""
"266.40000009536743","i","choice","right","i","practice","98","76418","0.0-4.0-8.11","true","12","3.35","","",""
"420.69999980926514","e","choice","left","e","practice","106","79123","0.0-4.0-8.12","true","13","3.35","","",""
"352.7000000476837","i","choice","right","i","practice","114","81770","0.0-4.0-8.13","true","14","3.25","","",""
"747.4000000953674","e","choice","right","i","practice","122","84803","0.0-4.0-8.14","false","15","3.25","","",""
"368.2000000476837","e","choice","left","e","practice","130","87463","0.0-4.0-8.15","true","16","3.35","","",""
"366.7000000476837","i","choice","left","e","practice","138","90113","0.0-4.0-8.16","false","17","3.35","","",""
"354.7999999523163","i","choice","right","i","practice","146","92740","0.0-4.0-8.17","true","18","3.45","","",""
"285.5","i","choice","right","i","practice","154","95317","0.0-4.0-8.18","true","19","3.45","","",""
"357.90000009536743","e","choice","left","e","practice","162","97959","0.0-4.0-8.19","true","20","3.35","","",""
"437.69999980926514","i","choice","right","i","practice","170","100688","0.0-4.0-8.20","true","21","3.35","","",""
"360.09999990463257","e","choice","left","e","practice","178","103331","0.0-4.0-8.21","true","22","3.25","","",""
"442","i","choice","right","i","practice","186","106073","0.0-4.0-8.22","true","23","3.25","","",""
"487.5","i","choice","left","e","practice","194","108845","0.0-4.0-8.23","false","24","3.15","","",""
"405.90000009536743","i","choice","right","i","practice","202","111544","0.0-4.0-8.24","true","25","3.25","","",""
"538.0999999046326","e","choice","left","e","practice","210","114377","0.0-4.0-8.25","true","26","3.25","","",""
"367.7000000476837","i","choice","right","i","experimental","221","137084","0.0-4.0-8.26","true","27","3.15","","",""
"3549.5","5","confid","","","html-slider-response","223","141137","0.0-4.0-10.26-0.26","","","","Rate your confidence","1",""
"571.2000000476837","e","choice","left","e","experimental","230","143492","0.0-4.0-8.27","true","28","3.15","","",""
"3554.399999856949","1","confid","","","html-slider-response","232","147552","0.0-4.0-10.27-0.27","","","","Rate your confidence","1",""
"346.2000000476837","i","choice","right","i","experimental","239","149697","0.0-4.0-8.28","true","29","3.05","","",""
"3725.7000000476837","3","confid","","","html-slider-response","241","153928","0.0-4.0-10.28-0.28","","","","Rate your confidence","1",""
"343.39999985694885","e","choice","left","e","experimental","248","156055","0.0-4.0-8.29","true","30","3.05","","",""
"3963.5","2","confid","","","html-slider-response","250","160530","0.0-4.0-10.29-0.29","","","","Rate your confidence","1",""
"301.80000019073486","i","choice","right","i","experimental","257","162614","0.0-4.0-8.30","true","31","2.9499999999999997","","",""
"2715.2000000476837","3","confid","","","html-slider-response","259","165845","0.0-4.0-10.30-0.30","","","","Rate your confidence","1",""
"324.39999985694885","i","choice","left","e","experimental","266","167951","0.0-4.0-8.31","false","32","2.9499999999999997","","",""
"3417.5","3","confid","","","html-slider-response","268","171874","0.0-4.0-10.31-0.31","","","","Rate your confidence","1",""
"313.59999990463257","i","choice","right","i","experimental","275","173967","0.0-4.0-8.32","true","33","3.05","","",""
"8162.200000047684","4","confid","","","html-slider-response","277","182634","0.0-4.0-10.32-0.32","","","","Rate your confidence","1",""
"305.09999990463257","e","choice","left","e","experimental","284","184731","0.0-4.0-8.33","true","34","3.05","","",""
"3142.100000143051","4","confid","","","html-slider-response","286","188379","0.0-4.0-10.33-0.33","","","","Rate your confidence","1",""
"635.2000000476837","i","choice","left","e","experimental","293","190803","0.0-4.0-8.34","false","35","2.9499999999999997","","",""
"2325.9000000953674","1","confid","","","html-slider-response","295","193633","0.0-4.0-10.34-0.34","","","","Rate your confidence","1",""
"352.59999990463257","i","choice","right","i","experimental","302","195767","0.0-4.0-8.35","true","36","3.05","","",""
"3732.300000190735","3","confid","","","html-slider-response","304","200014","0.0-4.0-10.35-0.35","","","","Rate your confidence","1",""
"317.5","i","choice","right","i","experimental","311","202116","0.0-4.0-8.36","true","37","3.05","","",""
"2323.2999999523163","3","confid","","","html-slider-response","313","204944","0.0-4.0-10.36-0.36","","","","Rate your confidence","1",""
"529.5","e","choice","left","e","experimental","320","207255","0.0-4.0-8.37","true","38","2.9499999999999997","","",""
"3247.7999999523163","4","confid","","","html-slider-response","322","211007","0.0-4.0-10.37-0.37","","","","Rate your confidence","1",""
"256.60000014305115","i","choice","right","i","experimental","329","213055","0.0-4.0-8.38","true","39","2.9499999999999997","","",""
"2188.199999809265","5","confid","","","html-slider-response","331","215748","0.0-4.0-10.38-0.38","","","","Rate your confidence","1",""
"323","e","choice","left","e","experimental","338","217863","0.0-4.0-8.39","true","40","2.8499999999999996","","",""
"3652.4000000953674","4","confid","","","html-slider-response","340","222021","0.0-4.0-10.39-0.39","","","","Rate your confidence","1",""
"328.80000019073486","i","choice","left","e","experimental","347","224132","0.0-4.0-8.40","false","41","2.8499999999999996","","",""
"2547.2999999523163","5","confid","","","html-slider-response","349","227184","0.0-4.0-10.40-0.40","","","","Rate your confidence","1",""
"748.6999998092651","i","choice","right","i","experimental","356","229715","0.0-4.0-8.41","true","42","2.9499999999999997","","",""
"3831.4000000953674","2","confid","","","html-slider-response","358","234051","0.0-4.0-10.41-0.41","","","","Rate your confidence","1",""
"284.7999999523163","i","choice","right","i","experimental","365","236128","0.0-4.0-8.42","true","43","2.9499999999999997","","",""
"3206.4000000953674","5","confid","","","html-slider-response","367","239839","0.0-4.0-10.42-0.42","","","","Rate your confidence","1",""
"2702.2000000476837","e","choice","left","e","experimental","374","244324","0.0-4.0-8.43","true","44","2.8499999999999996","","",""
"2361.7999999523163","1","confid","","","html-slider-response","376","247189","0.0-4.0-10.43-0.43","","","","Rate your confidence","1",""
"300.7000000476837","i","choice","right","i","experimental","383","249282","0.0-4.0-8.44","true","45","2.8499999999999996","","",""
"7299.299999952316","5","confid","","","html-slider-response","385","257088","0.0-4.0-10.44-0.44","","","","Rate your confidence","1",""
"301.80000019073486","e","choice","left","e","experimental","392","259185","0.0-4.0-8.45","true","46","2.7499999999999996","","",""
"3844.2999999523163","2","confid","","","html-slider-response","394","263534","0.0-4.0-10.45-0.45","","","","Rate your confidence","1",""
"256.5","i","choice","right","i","experimental","401","265573","0.0-4.0-8.46","true","47","2.7499999999999996","","",""
"3160","4","confid","","","html-slider-response","403","269237","0.0-4.0-10.46-0.46","","","","Rate your confidence","1",""
"558.8999998569489","e","choice","left","e","experimental","410","271582","0.0-4.0-8.47","true","48","2.6499999999999995","","",""
"2852.2999999523163","5","confid","","","html-slider-response","412","274938","0.0-4.0-10.47-0.47","","","","Rate your confidence","1",""
"369.59999990463257","i","choice","left","e","experimental","419","277101","0.0-4.0-8.48","false","49","2.6499999999999995","","",""
"2623.399999856949","3","confid","","","html-slider-response","421","280230","0.0-4.0-10.48-0.48","","","","Rate your confidence","1",""
"283.5","i","choice","right","i","experimental","428","282306","0.0-4.0-8.49","true","50","2.7499999999999996","","",""
"2737.2999999523163","5","confid","","","html-slider-response","430","285548","0.0-4.0-10.49-0.49","","","","Rate your confidence","1",""
"276","i","choice","left","e","experimental","437","287605","0.0-4.0-8.50","false","51","2.7499999999999996","","",""
"3960.100000143051","3","confid","","","html-slider-response","439","292070","0.0-4.0-10.50-0.50","","","","Rate your confidence","1",""
"307.40000009536743","i","choice","right","i","experimental","446","294164","0.0-4.0-8.51","true","52","2.8499999999999996","","",""
"2532.7000000476837","4","confid","","","html-slider-response","448","297202","0.0-4.0-10.51-0.51","","","","Rate your confidence","1",""
"299.59999990463257","i","choice","right","i","experimental","455","299283","0.0-4.0-8.52","true","53","2.8499999999999996","","",""
"3426.0999999046326","5","confid","","","html-slider-response","457","303215","0.0-4.0-10.52-0.52","","","","Rate your confidence","1",""
"988.0999999046326","e","choice","left","e","experimental","464","305995","0.0-4.0-8.53","true","54","2.7499999999999996","","",""
"480243.7999999523","1","confid","","","html-slider-response","466","786743","0.0-4.0-10.53-0.53","","","","Rate your confidence","1",""
"864.7000000476837","e","choice","left","e","experimental","473","789406","0.0-4.0-8.54","true","55","2.7499999999999996","","",""
"6193.799999952316","4","confid","","","html-slider-response","475","796104","0.0-4.0-10.54-0.54","","","","Rate your confidence","1",""
"325.7999999523163","i","choice","right","i","experimental","482","798223","0.0-4.0-8.55","true","56","2.6499999999999995","","",""
"2327.4000000953674","3","confid","","","html-slider-response","484","801055","0.0-4.0-10.55-0.55","","","","Rate your confidence","1",""
"396.5","e","choice","left","e","experimental","491","803233","0.0-4.0-8.56","true","57","2.6499999999999995","","",""
"2286.4000000953674","4","confid","","","html-slider-response","493","806023","0.0-4.0-10.56-0.56","","","","Rate your confidence","1",""
"545.9000000953674","e","choice","right","i","experimental","500","808352","0.0-4.0-8.57","false","58","2.5499999999999994","","",""
"4156.400000095367","2","confid","","","html-slider-response","502","813013","0.0-4.0-10.57-0.57","","","","Rate your confidence","1",""
"311.09999990463257","i","choice","right","i","experimental","509","815122","0.0-4.0-8.58","true","59","2.6499999999999995","","",""
"4432.299999952316","3","confid","","","html-slider-response","511","820060","0.0-4.0-10.58-0.58","","","","Rate your confidence","1",""
"339","i","choice","left","e","experimental","518","822194","0.0-4.0-8.59","false","60","2.6499999999999995","","",""
"2032.7000000476837","4","confid","","","html-slider-response","520","824732","0.0-4.0-10.59-0.59","","","","Rate your confidence","1",""
"726.2000000476837","i","choice","right","i","experimental","527","827240","0.0-4.0-8.60","true","61","2.7499999999999996","","",""
"3963.7000000476837","4","confid","","","html-slider-response","529","831720","0.0-4.0-10.60-0.60","","","","Rate your confidence","1",""
"387.7000000476837","e","choice","left","e","experimental","536","833891","0.0-4.0-8.61","true","62","2.7499999999999996","","",""
"2816.100000143051","3","confid","","","html-slider-response","538","837212","0.0-4.0-10.61-0.61","","","","Rate your confidence","1",""
"345.19999980926514","e","choice","right","i","experimental","545","839339","0.0-4.0-8.62","false","63","2.6499999999999995","","",""
"2234.2999999523163","3","confid","","","html-slider-response","547","842078","0.0-4.0-10.62-0.62","","","","Rate your confidence","1",""
"319.7000000476837","i","choice","left","e","experimental","554","844179","0.0-4.0-8.63","false","64","2.7499999999999996","","",""
"3091.0999999046326","2","confid","","","html-slider-response","556","847775","0.0-4.0-10.63-0.63","","","","Rate your confidence","1",""
"43","i","choice","right","i","experimental","563","849601","0.0-4.0-8.64","true","65","2.8499999999999996","","",""
"2387.4000000953674","4","confid","","","html-slider-response","565","852492","0.0-4.0-10.64-0.64","","","","Rate your confidence","1",""
"117.39999985694885","e","choice","left","e","experimental","572","854401","0.0-4.0-8.65","true","66","2.8499999999999996","","",""
"5030.599999904633","4","confid","","","html-slider-response","574","859941","0.0-4.0-10.65-0.65","","","","Rate your confidence","1",""
"295","e","choice","left","e","experimental","581","862019","0.0-4.0-8.66","true","67","2.7499999999999996","","",""
"3068.7999999523163","4","confid","","","html-slider-response","583","865592","0.0-4.0-10.66-0.66","","","","Rate your confidence","1",""
"389.10000014305115","i","choice","right","i","experimental","590","867762","0.0-4.0-8.67","true","68","2.7499999999999996","","",""
"2739.399999856949","5","confid","","","html-slider-response","592","871006","0.0-4.0-10.67-0.67","","","","Rate your confidence","1",""
"345.10000014305115","i","choice","right","i","experimental","600","874528","0.0-4.0-8.68","true","69","2.6499999999999995","","",""
"2831.4000000953674","3","confid","","","html-slider-response","602","877864","0.0-4.0-10.68-0.68","","","","Rate your confidence","1",""
"268.10000014305115","e","choice","left","e","experimental","609","879946","0.0-4.0-8.69","true","70","2.6499999999999995","","",""
"2092.5999999046326","2","confid","","","html-slider-response","611","882543","0.0-4.0-10.69-0.69","","","","Rate your confidence","1",""
"135.59999990463257","i","choice","left","e","experimental","618","884460","0.0-4.0-8.70","false","71","2.5499999999999994","","",""
"1920.1000001430511","5","confid","","","html-slider-response","620","886885","0.0-4.0-10.70-0.70","","","","Rate your confidence","1",""
"230","i","choice","right","i","experimental","627","888911","0.0-4.0-8.71","true","72","2.6499999999999995","","",""
"2007","3","confid","","","html-slider-response","629","891423","0.0-4.0-10.71-0.71","","","","Rate your confidence","1",""
"616.7000000476837","e","choice","right","i","experimental","636","893834","0.0-4.0-8.72","false","73","2.6499999999999995","","",""
"2825.9000000953674","3","confid","","","html-slider-response","638","897164","0.0-4.0-10.72-0.72","","","","Rate your confidence","1",""
"1052.7000000476837","i","choice","left","e","experimental","645","900003","0.0-4.0-8.73","false","74","2.7499999999999996","","",""
"2512.5999999046326","1","confid","","","html-slider-response","647","903020","0.0-4.0-10.73-0.73","","","","Rate your confidence","1",""
"628.9000000953674","e","choice","left","e","experimental","654","905433","0.0-4.0-8.74","true","75","2.8499999999999996","","",""
"2951.2999999523163","4","confid","","","html-slider-response","656","908889","0.0-4.0-10.74-0.74","","","","Rate your confidence","1",""
"245.69999980926514","i","choice","right","i","experimental","663","910914","0.0-4.0-8.75","true","76","2.8499999999999996","","",""
"2614.4000000953674","3","confid","","","html-slider-response","665","914033","0.0-4.0-10.75-0.75","","","","Rate your confidence","1",""
"328.2999999523163","e","choice","left","e","experimental","672","916145","0.0-4.0-8.76","true","77","2.7499999999999996","","",""
"2959.7999999523163","2","confid","","","html-slider-response","674","919611","0.0-4.0-10.76-0.76","","","","Rate your confidence","1",""
"771.7999999523163","i","choice","right","i","experimental","681","922164","0.0-4.0-8.77","true","78","2.7499999999999996","","",""
"2470.5","4","confid","","","html-slider-response","683","925139","0.0-4.0-10.77-0.77","","","","Rate your confidence","1",""
"802","e","choice","left","e","experimental","690","927735","0.0-4.0-8.78","true","79","2.6499999999999995","","",""
"2267","4","confid","","","html-slider-response","692","930507","0.0-4.0-10.78-0.78","","","","Rate your confidence","1",""
"366.40000009536743","i","choice","right","i","experimental","699","932656","0.0-4.0-8.79","true","80","2.6499999999999995","","",""
"4520","4","confid","","","html-slider-response","701","937681","0.0-4.0-10.79-0.79","","","","Rate your confidence","1",""
"20221.10000014305","e","choice","right","i","experimental","708","959684","0.0-4.0-8.80","false","81","2.5499999999999994","","",""
"2361.7000000476837","1","confid","","","html-slider-response","710","962551","0.0-4.0-10.80-0.80","","","","Rate your confidence","1",""
"601.7999999523163","i","choice","left","e","experimental","717","964935","0.0-4.0-8.81","false","82","2.6499999999999995","","",""
"2624.5","4","confid","","","html-slider-response","719","968064","0.0-4.0-10.81-0.81","","","","Rate your confidence","1",""
"455.2000000476837","e","choice","left","e","experimental","726","970314","0.0-4.0-8.82","true","83","2.7499999999999996","","",""
"2395.399999856949","3","confid","","","html-slider-response","728","973214","0.0-4.0-10.82-0.82","","","","Rate your confidence","1",""
"302.30000019073486","i","choice","right","i","experimental","735","975298","0.0-4.0-8.83","true","84","2.7499999999999996","","",""
"2243.7000000476837","4","confid","","","html-slider-response","737","978046","0.0-4.0-10.83-0.83","","","","Rate your confidence","1",""
"247.70000004768372","i","choice","right","i","experimental","744","980089","0.0-4.0-8.84","true","85","2.6499999999999995","","",""
"2020.1999998092651","4","confid","","","html-slider-response","746","982614","0.0-4.0-10.84-0.84","","","","Rate your confidence","1",""
"400.39999985694885","e","choice","left","e","experimental","753","984796","0.0-4.0-8.85","true","86","2.6499999999999995","","",""
"2176.199999809265","5","confid","","","html-slider-response","755","987479","0.0-4.0-10.85-0.85","","","","Rate your confidence","1",""
"297.2999999523163","e","choice","left","e","experimental","762","989559","0.0-4.0-8.86","true","87","2.5499999999999994","","",""
"2035.2999999523163","3","confid","","","html-slider-response","764","992099","0.0-4.0-10.86-0.86","","","","Rate your confidence","1",""
"298.7999999523163","i","choice","right","i","experimental","771","994181","0.0-4.0-8.87","true","88","2.5499999999999994","","",""
"2903.7999999523163","5","confid","","","html-slider-response","773","997589","0.0-4.0-10.87-0.87","","","","Rate your confidence","1",""
"264.5","e","choice","left","e","experimental","780","999635","0.0-4.0-8.88","true","89","2.4499999999999993","","",""
"2483.7000000476837","3","confid","","","html-slider-response","782","1002624","0.0-4.0-10.88-0.88","","","","Rate your confidence","1",""
"63.5","i","choice","right","i","experimental","789","1004469","0.0-4.0-8.89","true","90","2.4499999999999993","","",""
"3680.5","3","confid","","","html-slider-response","791","1008656","0.0-4.0-10.89-0.89","","","","Rate your confidence","1",""
"91.70000004768372","i","choice","right","i","experimental","798","1010543","0.0-4.0-8.90","true","91","2.349999999999999","","",""
"2004.7000000476837","4","confid","","","html-slider-response","800","1013053","0.0-4.0-10.90-0.90","","","","Rate your confidence","1",""
"304.2999999523163","i","choice","left","e","experimental","807","1015138","0.0-4.0-8.91","false","92","2.349999999999999","","",""
"2719.9000000953674","4","confid","","","html-slider-response","809","1018364","0.0-4.0-10.91-0.91","","","","Rate your confidence","1",""
"196.5","i","choice","right","i","experimental","816","1020345","0.0-4.0-8.92","true","93","2.4499999999999993","","",""
"2424","3","confid","","","html-slider-response","818","1023273","0.0-4.0-10.92-0.92","","","","Rate your confidence","1",""
"302.39999985694885","i","choice","left","e","experimental","825","1025358","0.0-4.0-8.93","false","94","2.4499999999999993","","",""
"2408.0999999046326","2","confid","","","html-slider-response","827","1028271","0.0-4.0-10.93-0.93","","","","Rate your confidence","1",""
"276","i","choice","right","i","experimental","834","1030329","0.0-4.0-8.94","true","95","2.5499999999999994","","",""
"2095.7999999523163","4","confid","","","html-slider-response","836","1032929","0.0-4.0-10.94-0.94","","","","Rate your confidence","1",""
"304.40000009536743","i","choice","left","e","experimental","843","1035028","0.0-4.0-8.95","false","96","2.5499999999999994","","",""
"3063.2000000476837","4","confid","","","html-slider-response","845","1038596","0.0-4.0-10.95-0.95","","","","Rate your confidence","1",""
"238.70000004768372","i","choice","right","i","experimental","852","1040627","0.0-4.0-8.96","true","97","2.6499999999999995","","",""
"1995.1000001430511","3","confid","","","html-slider-response","854","1043127","0.0-4.0-10.96-0.96","","","","Rate your confidence","1",""
"107.59999990463257","e","choice","left","e","experimental","861","1045029","0.0-4.0-8.97","true","98","2.6499999999999995","","",""
"5645.299999952316","5","confid","","","html-slider-response","863","1051180","0.0-4.0-10.97-0.97","","","","Rate your confidence","1",""
"255.59999990463257","i","choice","left","e","experimental","870","1053232","0.0-4.0-8.98","false","99","2.5499999999999994","","",""
"2489.2000000476837","4","confid","","","html-slider-response","872","1056227","0.0-4.0-10.98-0.98","","","","Rate your confidence","1",""
"310.90000009536743","i","choice","right","i","experimental","879","1058321","0.0-4.0-8.99","true","100","2.6499999999999995","","",""
"4620.199999809265","3","confid","","","html-slider-response","881","1063446","0.0-4.0-10.99-0.99","","","","Rate your confidence","1",""
"44.39999985694885","e","choice","left","e","experimental","888","1065273","0.0-4.0-8.100","true","101","2.6499999999999995","","",""
"2782.7999999523163","4","confid","","","html-slider-response","890","1068561","0.0-4.0-10.100-0.100","","","","Rate your confidence","1",""
"356.59999990463257","i","choice","right","i","experimental","897","1070713","0.0-4.0-8.101","true","102","2.5499999999999994","","",""
"4131.5","5","confid","","","html-slider-response","899","1075349","0.0-4.0-10.101-0.101","","","","Rate your confidence","1",""
"256.90000009536743","e","choice","left","e","experimental","906","1077399","0.0-4.0-8.102","true","103","2.5499999999999994","","",""
"2594.5999999046326","3","confid","","","html-slider-response","908","1080498","0.0-4.0-10.102-0.102","","","","Rate your confidence","1",""
"93.09999990463257","i","choice","right","i","experimental","915","1082375","0.0-4.0-8.103","true","104","2.4499999999999993","","",""
"4134.5","3","confid","","","html-slider-response","917","1087015","0.0-4.0-10.103-0.103","","","","Rate your confidence","1",""
"315.2000000476837","i","choice","right","i","experimental","924","1089113","0.0-4.0-8.104","true","105","2.4499999999999993","","",""
"2874.699999809265","4","confid","","","html-slider-response","926","1092492","0.0-4.0-10.104-0.104","","","","Rate your confidence","1",""
"361.2999999523163","e","choice","left","e","experimental","933","1094638","0.0-4.0-8.105","true","106","2.349999999999999","","",""
"2285.2999999523163","4","confid","","","html-slider-response","935","1097428","0.0-4.0-10.105-0.105","","","","Rate your confidence","1",""
"374.40000009536743","e","choice","right","i","experimental","942","1099586","0.0-4.0-8.106","false","107","2.349999999999999","","",""
"2569.2000000476837","2","confid","","","html-slider-response","944","1102660","0.0-4.0-10.106-0.106","","","","Rate your confidence","1",""
"507.09999990463257","i","choice","left","e","experimental","951","1104961","0.0-4.0-8.107","false","108","2.4499999999999993","","",""
"5223.400000095367","4","confid","","","html-slider-response","953","1110689","0.0-4.0-10.107-0.107","","","","Rate your confidence","1",""
"270.69999980926514","i","choice","right","i","experimental","960","1112754","0.0-4.0-8.108","true","109","2.5499999999999994","","",""
"2064.4000000953674","3","confid","","","html-slider-response","962","1115323","0.0-4.0-10.108-0.108","","","","Rate your confidence","1",""
"355.7000000476837","i","choice","left","e","experimental","969","1117473","0.0-4.0-8.109","false","110","2.5499999999999994","","",""
"2620.600000143051","5","confid","","","html-slider-response","971","1120599","0.0-4.0-10.109-0.109","","","","Rate your confidence","1",""
"334.40000009536743","i","choice","right","i","experimental","979","1125256","0.0-4.0-8.110","true","111","2.6499999999999995","","",""
"2146","5","confid","","","html-slider-response","981","1127906","0.0-4.0-10.110-0.110","","","","Rate your confidence","1",""
"275.5","e","choice","left","e","experimental","988","1129959","0.0-4.0-8.111","true","112","2.6499999999999995","","",""
"2138.9000000953674","2","confid","","","html-slider-response","990","1132603","0.0-4.0-10.111-0.111","","","","Rate your confidence","1",""
"271.09999990463257","i","choice","left","e","experimental","997","1134670","0.0-4.0-8.112","false","113","2.5499999999999994","","",""
"3733.7000000476837","3","confid","","","html-slider-response","999","1138908","0.0-4.0-10.112-0.112","","","","Rate your confidence","1",""
"340.5","i","choice","right","i","experimental","1006","1141048","0.0-4.0-8.113","true","114","2.6499999999999995","","",""
"2252.5","2","confid","","","html-slider-response","1008","1143805","0.0-4.0-10.113-0.113","","","","Rate your confidence","1",""
"454.5","i","choice","left","e","experimental","1015","1146042","0.0-4.0-8.114","false","115","2.6499999999999995","","",""
"2625.5999999046326","3","confid","","","html-slider-response","1017","1149174","0.0-4.0-10.114-0.114","","","","Rate your confidence","1",""
"60548.60000014305","e","choice","right","i","experimental","1024","1211503","0.0-4.0-8.115","false","116","2.7499999999999996","","",""
"2523.300000190735","1","confid","","","html-slider-response","1026","1214532","0.0-4.0-10.115-0.115","","","","Rate your confidence","1",""
"634.2000000476837","e","choice","left","e","experimental","1033","1216963","0.0-4.0-8.116","true","117","2.8499999999999996","","",""
"3395.0999999046326","2","confid","","","html-slider-response","1035","1220864","0.0-4.0-10.116-0.116","","","","Rate your confidence","1",""
"481.40000009536743","i","choice","right","i","experimental","1042","1223126","0.0-4.0-8.117","true","118","2.8499999999999996","","",""
"2825.2000000476837","4","confid","","","html-slider-response","1044","1226457","0.0-4.0-10.117-0.117","","","","Rate your confidence","1",""
"361.90000009536743","i","choice","left","e","experimental","1051","1228601","0.0-4.0-8.118","false","119","2.7499999999999996","","",""
"2327","3","confid","","","html-slider-response","1053","1231433","0.0-4.0-10.118-0.118","","","","Rate your confidence","1",""
"442.60000014305115","e","choice","right","i","experimental","1060","1233656","0.0-4.0-8.119","false","120","2.8499999999999996","","",""
"2326.9000000953674","2","confid","","","html-slider-response","1062","1236488","0.0-4.0-10.119-0.119","","","","Rate your confidence","1",""
"422.59999990463257","e","choice","left","e","experimental","1069","1238711","0.0-4.0-8.120","true","121","2.9499999999999997","","",""
"3348.5999999046326","4","confid","","","html-slider-response","1071","1242565","0.0-4.0-10.120-0.120","","","","Rate your confidence","1",""
"430.09999990463257","i","choice","right","i","experimental","1078","1244790","0.0-4.0-8.121","true","122","2.9499999999999997","","",""
"3106.5","4","confid","","","html-slider-response","1080","1248402","0.0-4.0-10.121-0.121","","","","Rate your confidence","1",""
"1140.5999999046326","i","choice","right","i","experimental","1087","1251328","0.0-4.0-8.122","true","123","2.8499999999999996","","",""
"2470.300000190735","4","confid","","","html-slider-response","1089","1254303","0.0-4.0-10.122-0.122","","","","Rate your confidence","1",""
"1119.3000001907349","e","choice","left","e","experimental","1096","1257208","0.0-4.0-8.123","true","124","2.8499999999999996","","",""
"2694.4000000953674","2","confid","","","html-slider-response","1098","1260406","0.0-4.0-10.123-0.123","","","","Rate your confidence","1",""
"414.39999985694885","i","choice","right","i","experimental","1105","1262617","0.0-4.0-8.124","true","125","2.7499999999999996","","",""
"7227.5","4","confid","","","html-slider-response","1107","1270349","0.0-4.0-10.124-0.124","","","","Rate your confidence","1",""
"717","i","choice","left","e","experimental","1114","1272858","0.0-4.0-8.125","false","126","2.7499999999999996","","",""
"3920.2000000476837","4","confid","","","html-slider-response","1116","1277283","0.0-4.0-10.125-0.125","","","","Rate your confidence","1",""
"171.79999995231628","e","choice","left","e","experimental","1123","1279237","0.0-4.0-8.126","true","127","2.8499999999999996","","",""
"2336.600000143051","3","confid","","","html-slider-response","1125","1282078","0.0-4.0-10.126-0.126","","","","Rate your confidence","1",""
"476.2000000476837","e","choice","right","i","experimental","1132","1284337","0.0-4.0-8.127","false","128","2.8499999999999996","","",""
"3698.5","3","confid","","","html-slider-response","1134","1288539","0.0-4.0-10.127-0.127","","","","Rate your confidence","1",""
"826.9000000953674","i","choice","right","i","experimental","1141","1291150","0.0-4.0-8.128","true","129","2.9499999999999997","","",""
"3999.100000143051","5","confid","","","html-slider-response","1143","1295654","0.0-4.0-10.128-0.128","","","","Rate your confidence","1",""
"12375.900000095367","i","choice","left","e","experimental","1150","1309824","0.0-4.0-8.129","false","130","2.9499999999999997","","",""
"3394.800000190735","1","confid","","","html-slider-response","1152","1313724","0.0-4.0-10.129-0.129","","","","Rate your confidence","1",""
"412.39999985694885","i","choice","right","i","experimental","1159","1315932","0.0-4.0-8.130","true","131","3.05","","",""
"5802.200000047684","3","confid","","","html-slider-response","1161","1322239","0.0-4.0-10.130-0.130","","","","Rate your confidence","1",""
"199.60000014305115","e","choice","left","e","experimental","1168","1324224","0.0-4.0-8.131","true","132","3.05","","",""
"2811.2000000476837","5","confid","","","html-slider-response","1170","1327541","0.0-4.0-10.131-0.131","","","","Rate your confidence","1",""
"584.2000000476837","i","choice","left","e","experimental","1177","1329908","0.0-4.0-8.132","false","133","2.9499999999999997","","",""
"4194.900000095367","3","confid","","","html-slider-response","1179","1334608","0.0-4.0-10.132-0.132","","","","Rate your confidence","1",""
"486.7000000476837","i","choice","right","i","experimental","1186","1336876","0.0-4.0-8.133","true","134","3.05","","",""
"2538.600000143051","3","confid","","","html-slider-response","1188","1339919","0.0-4.0-10.133-0.133","","","","Rate your confidence","1",""
"300.69999980926514","i","choice","left","e","experimental","1195","1342013","0.0-4.0-8.134","false","135","3.05","","",""
"3351.100000143051","4","confid","","","html-slider-response","1197","1345869","0.0-4.0-10.134-0.134","","","","Rate your confidence","1",""
"612.2999999523163","e","choice","right","i","experimental","1204","1348275","0.0-4.0-8.135","false","136","3.15","","",""
"3962.2000000476837","3","confid","","","html-slider-response","1206","1352742","0.0-4.0-10.135-0.135","","","","Rate your confidence","1",""
"663.7999999523163","e","choice","left","e","experimental","1213","1355201","0.0-4.0-8.136","true","137","3.25","","",""
"4603.299999952316","3","confid","","","html-slider-response","1215","1360309","0.0-4.0-10.136-0.136","","","","Rate your confidence","1",""
"730.2999999523163","e","choice","right","i","experimental","1222","1362823","0.0-4.0-8.137","false","138","3.25","","",""
"2480.5999999046326","2","confid","","","html-slider-response","1224","1365808","0.0-4.0-10.137-0.137","","","","Rate your confidence","1",""
"358.59999990463257","e","choice","left","e","experimental","1231","1367952","0.0-4.0-8.138","true","139","3.35","","",""
"3436.2000000476837","4","confid","","","html-slider-response","1233","1371893","0.0-4.0-10.138-0.138","","","","Rate your confidence","1",""
"321.7999999523163","i","choice","right","i","experimental","1240","1374013","0.0-4.0-8.139","true","140","3.35","","",""
"2654","4","confid","","","html-slider-response","1242","1377173","0.0-4.0-10.139-0.139","","","","Rate your confidence","1",""
"215.5","e","choice","left","e","experimental","1249","1379183","0.0-4.0-8.140","true","141","3.25","","",""
"4827.899999856949","3","confid","","","html-slider-response","1251","1384516","0.0-4.0-10.140-0.140","","","","Rate your confidence","1",""
"224.79999995231628","i","choice","right","i","experimental","1258","1386552","0.0-4.0-8.141","true","142","3.25","","",""
"5332.899999856949","4","confid","","","html-slider-response","1260","1392390","0.0-4.0-10.141-0.141","","","","Rate your confidence","1",""
"1646.3999998569489","e","choice","left","e","experimental","1267","1395823","0.0-4.0-8.142","true","143","3.15","","",""
"10758.600000143051","4","confid","","","html-slider-response","1269","1407087","0.0-4.0-10.142-0.142","","","","Rate your confidence","1",""
"5807.699999809265","i","choice","right","i","experimental","1276","1414679","0.0-4.0-8.143","true","144","3.15","","",""
"8556.700000047684","4","confid","","","html-slider-response","1278","1423739","0.0-4.0-10.143-0.143","","","","Rate your confidence","1",""
"1459.0999999046326","e","choice","right","i","experimental","1285","1426995","0.0-4.0-8.144","false","145","3.05","","",""
"3362.5","1","confid","","","html-slider-response","1287","1430863","0.0-4.0-10.144-0.144","","","","Rate your confidence","1",""
"317.89999985694885","e","choice","left","e","experimental","1294","1432976","0.0-4.0-8.145","true","146","3.15","","",""
"2449.2999999523163","3","confid","","","html-slider-response","1296","1435930","0.0-4.0-10.145-0.145","","","","Rate your confidence","1",""
"324.2000000476837","i","choice","right","i","experimental","1303","1438052","0.0-4.0-8.146","true","147","3.15","","",""
"2246.2000000476837","4","confid","","","html-slider-response","1305","1440803","0.0-4.0-10.146-0.146","","","","Rate your confidence","1",""
"304.09999990463257","e","choice","left","e","experimental","1312","1442890","0.0-4.0-8.147","true","148","3.05","","",""
"4183.299999952316","5","confid","","","html-slider-response","1314","1447577","0.0-4.0-10.147-0.147","","","","Rate your confidence","1",""
"481.7999999523163","e","choice","right","i","experimental","1321","1449844","0.0-4.0-8.148","false","149","3.05","","",""
"5728.200000047684","2","confid","","","html-slider-response","1323","1456083","0.0-4.0-10.148-0.148","","","","Rate your confidence","1",""
"356.89999985694885","e","choice","left","e","experimental","1330","1458225","0.0-4.0-8.149","true","150","3.15","","",""
"2945.899999856949","2","confid","","","html-slider-response","1332","1461688","0.0-4.0-10.149-0.149","","","","Rate your confidence","1",""
"90.40000009536743","e","choice","left","e","experimental","1339","1463561","0.0-4.0-8.150","true","151","3.15","","",""
"2499.9000000953674","4","confid","","","html-slider-response","1341","1466567","0.0-4.0-10.150-0.150","","","","Rate your confidence","1",""
"229.5","e","choice","right","i","experimental","1348","1468592","0.0-4.0-8.151","false","152","3.05","","",""
"2814.5","5","confid","","","html-slider-response","1350","1471912","0.0-4.0-10.151-0.151","","","","Rate your confidence","1",""
"88.69999980926514","e","choice","left","e","experimental","1358","1490209","0.0-4.0-8.152","true","153","3.15","","",""
"2494.5","3","confid","","","html-slider-response","1360","1493208","0.0-4.0-10.152-0.152","","","","Rate your confidence","1",""
"261.2000000476837","i","choice","right","i","experimental","1367","1495253","0.0-4.0-8.153","true","154","3.15","","",""
"2226.2999999523163","2","confid","","","html-slider-response","1369","1497985","0.0-4.0-10.153-0.153","","","","Rate your confidence","1",""
"355.2000000476837","e","choice","left","e","experimental","1376","1500122","0.0-4.0-8.154","true","155","3.05","","",""
"2971.2999999523163","3","confid","","","html-slider-response","1378","1503599","0.0-4.0-10.154-0.154","","","","Rate your confidence","1",""
"402.5","i","choice","right","i","experimental","1385","1505782","0.0-4.0-8.155","true","156","3.05","","",""
"4603.399999856949","4","confid","","","html-slider-response","1387","1510891","0.0-4.0-10.155-0.155","","","","Rate your confidence","1",""
"185.5","e","choice","right","i","experimental","1394","1512863","0.0-4.0-8.156","false","157","2.9499999999999997","","",""
"3292.399999856949","2","confid","","","html-slider-response","1396","1516660","0.0-4.0-10.156-0.156","","","","Rate your confidence","1",""
"2282.7999999523163","e","choice","left","e","experimental","1403","1520736","0.0-4.0-8.157","true","158","3.05","","",""
"2636.5","1","confid","","","html-slider-response","1405","1523877","0.0-4.0-10.157-0.157","","","","Rate your confidence","1",""
"139.19999980926514","i","choice","right","i","experimental","1412","1525810","0.0-4.0-8.158","true","159","3.05","","",""
"3066.899999856949","3","confid","","","html-slider-response","1414","1529382","0.0-4.0-10.158-0.158","","","","Rate your confidence","1",""
"353.90000009536743","e","choice","left","e","experimental","1421","1531520","0.0-4.0-8.159","true","160","2.9499999999999997","","",""
"2237.7000000476837","4","confid","","","html-slider-response","1423","1534263","0.0-4.0-10.159-0.159","","","","Rate your confidence","1",""
"456.7999999523163","e","choice","left","e","experimental","1430","1536505","0.0-4.0-8.160","true","161","2.9499999999999997","","",""
"3549.2999999523163","5","confid","","","html-slider-response","1432","1540558","0.0-4.0-10.160-0.160","","","","Rate your confidence","1",""
"358.7999999523163","e","choice","right","i","experimental","1439","1542712","0.0-4.0-8.161","false","162","2.8499999999999996","","",""
"2242.199999809265","4","confid","","","html-slider-response","1441","1545459","0.0-4.0-10.161-0.161","","","","Rate your confidence","1",""
"276.2999999523163","i","choice","right","i","experimental","1448","1547540","0.0-4.0-8.162","true","163","2.9499999999999997","","",""
"2078.7000000476837","4","confid","","","html-slider-response","1450","1550124","0.0-4.0-10.162-0.162","","","","Rate your confidence","1",""
"248.29999995231628","e","choice","left","e","experimental","1457","1552169","0.0-4.0-8.163","true","164","2.9499999999999997","","",""
"2878.600000143051","5","confid","","","html-slider-response","1459","1555552","0.0-4.0-10.163-0.163","","","","Rate your confidence","1",""
"91.09999990463257","i","choice","left","e","experimental","1466","1557442","0.0-4.0-8.164","false","165","2.8499999999999996","","",""
"2442.2000000476837","3","confid","","","html-slider-response","1468","1560389","0.0-4.0-10.164-0.164","","","","Rate your confidence","1",""
"276.7000000476837","e","choice","right","i","experimental","1475","1562449","0.0-4.0-8.165","false","166","2.9499999999999997","","",""
"3892.5","5","confid","","","html-slider-response","1477","1566848","0.0-4.0-10.165-0.165","","","","Rate your confidence","1",""
"491.89999985694885","i","choice","right","i","experimental","1484","1569135","0.0-4.0-8.166","true","167","3.05","","",""
"2718.4000000953674","2","confid","","","html-slider-response","1486","1572358","0.0-4.0-10.166-0.166","","","","Rate your confidence","1",""
"170.40000009536743","e","choice","left","e","experimental","1493","1574322","0.0-4.0-8.167","true","168","3.05","","",""
"2660.899999856949","3","confid","","","html-slider-response","1495","1577487","0.0-4.0-10.167-0.167","","","","Rate your confidence","1",""
"402.90000009536743","e","choice","left","e","experimental","1502","1579676","0.0-4.0-8.168","true","169","2.9499999999999997","","",""
"2044.1000001430511","4","confid","","","html-slider-response","1504","1582226","0.0-4.0-10.168-0.168","","","","Rate your confidence","1",""
"339.2000000476837","e","choice","right","i","experimental","1511","1584362","0.0-4.0-8.169","false","170","2.9499999999999997","","",""
"2247.399999856949","4","confid","","","html-slider-response","1513","1587113","0.0-4.0-10.169-0.169","","","","Rate your confidence","1",""
"392.2000000476837","i","choice","left","e","experimental","1520","1589288","0.0-4.0-8.170","false","171","3.05","","",""
"2261.600000143051","3","confid","","","html-slider-response","1522","1592054","0.0-4.0-10.170-0.170","","","","Rate your confidence","1",""
"252.60000014305115","i","choice","right","i","experimental","1529","1594102","0.0-4.0-8.171","true","172","3.15","","",""
"2139","5","confid","","","html-slider-response","1531","1596746","0.0-4.0-10.171-0.171","","","","Rate your confidence","1",""
"191.29999995231628","i","choice","right","i","experimental","1538","1598725","0.0-4.0-8.172","true","173","3.15","","",""
"3867.2000000476837","4","confid","","","html-slider-response","1540","1603098","0.0-4.0-10.172-0.172","","","","Rate your confidence","1",""
"230.69999980926514","e","choice","left","e","experimental","1547","1605126","0.0-4.0-8.173","true","174","3.05","","",""
"2433.2000000476837","5","confid","","","html-slider-response","1549","1608065","0.0-4.0-10.173-0.173","","","","Rate your confidence","1",""
"197.09999990463257","e","choice","left","e","experimental","1556","1610048","0.0-4.0-8.174","true","175","3.05","","",""
"2568.2999999523163","5","confid","","","html-slider-response","1558","1613123","0.0-4.0-10.174-0.174","","","","Rate your confidence","1",""
"11548.599999904633","e","choice","right","i","experimental","1565","1626456","0.0-4.0-8.175","false","176","2.9499999999999997","","",""
"2451.2999999523163","1","confid","","","html-slider-response","1567","1629413","0.0-4.0-10.175-0.175","","","","Rate your confidence","1",""
"238.40000009536743","e","choice","left","e","experimental","1574","1631429","0.0-4.0-8.176","true","177","3.05","","",""
"2944.5999999046326","5","confid","","","html-slider-response","1576","1634878","0.0-4.0-10.176-0.176","","","","Rate your confidence","1",""
"670.0999999046326","i","choice","right","i","experimental","1583","1637344","0.0-4.0-8.177","true","178","3.05","","",""
"3185.2999999523163","5","confid","","","html-slider-response","1585","1641034","0.0-4.0-10.177-0.177","","","","Rate your confidence","1",""
"359","e","choice","left","e","experimental","1592","1643177","0.0-4.0-8.178","true","179","2.9499999999999997","","",""
"5582.700000047684","3","confid","","","html-slider-response","1594","1649264","0.0-4.0-10.178-0.178","","","","Rate your confidence","1",""
"3161.100000143051","i","choice","right","i","experimental","1601","1654209","0.0-4.0-8.179","true","180","2.9499999999999997","","",""
"2519","1","confid","","","html-slider-response","1603","1657234","0.0-4.0-10.179-0.179","","","","Rate your confidence","1",""
"129.79999995231628","e","choice","left","e","experimental","1610","1659148","0.0-4.0-8.180","true","181","2.8499999999999996","","",""
"2217.7000000476837","4","confid","","","html-slider-response","1612","1661871","0.0-4.0-10.180-0.180","","","","Rate your confidence","1",""
"379","i","choice","right","i","experimental","1619","1664047","0.0-4.0-8.181","true","182","2.8499999999999996","","",""
"2914.100000143051","2","confid","","","html-slider-response","1621","1667467","0.0-4.0-10.181-0.181","","","","Rate your confidence","1",""
"116.20000004768372","i","choice","right","i","experimental","1628","1669366","0.0-4.0-8.182","true","183","2.7499999999999996","","",""
"2683.300000190735","3","confid","","","html-slider-response","1630","1672554","0.0-4.0-10.182-0.182","","","","Rate your confidence","1",""
"6981.099999904633","i","choice","left","e","experimental","1637","1681322","0.0-4.0-8.183","false","184","2.7499999999999996","","",""
"2211.2999999523163","1","confid","","","html-slider-response","1639","1684038","0.0-4.0-10.183-0.183","","","","Rate your confidence","1",""
"23.899999856948853","i","choice","right","i","experimental","1646","1685846","0.0-4.0-8.184","true","185","2.8499999999999996","","",""
"16206.800000190735","1","confid","","","html-slider-response","1648","1702557","0.0-4.0-10.184-0.184","","","","Rate your confidence","1",""
"641.1000001430511","e","choice","left","e","experimental","1655","1704983","0.0-4.0-8.185","true","186","2.8499999999999996","","",""
"2651.2000000476837","2","confid","","","html-slider-response","1657","1708139","0.0-4.0-10.185-0.185","","","","Rate your confidence","1",""
"4619","e","choice","right","i","experimental","1664","1714541","0.0-4.0-8.186","false","187","2.7499999999999996","","",""
"2559.5","2","confid","","","html-slider-response","1666","1717607","0.0-4.0-10.186-0.186","","","","Rate your confidence","1",""
"92.79999995231628","i","choice","left","e","experimental","1673","1719494","0.0-4.0-8.187","false","188","2.8499999999999996","","",""
"4710.5","2","confid","","","html-slider-response","1675","1724709","0.0-4.0-10.187-0.187","","","","Rate your confidence","1",""
"539.0999999046326","e","choice","left","e","experimental","1682","1727032","0.0-4.0-8.188","true","189","2.9499999999999997","","",""
"1984.7000000476837","3","confid","","","html-slider-response","1684","1729522","0.0-4.0-10.188-0.188","","","","Rate your confidence","1",""
"20.899999856948853","i","choice","right","i","experimental","1691","1731340","0.0-4.0-8.189","true","190","2.9499999999999997","","",""
"3358.600000143051","2","confid","","","html-slider-response","1693","1735203","0.0-4.0-10.189-0.189","","","","Rate your confidence","1",""
"259.10000014305115","i","choice","right","i","experimental","1700","1737246","0.0-4.0-8.190","true","191","2.8499999999999996","","",""
"3200.4000000953674","3","confid","","","html-slider-response","1702","1740963","0.0-4.0-10.190-0.190","","","","Rate your confidence","1",""
"302.2999999523163","e","choice","left","e","experimental","1709","1743051","0.0-4.0-8.191","true","192","2.8499999999999996","","",""
"2989.5","2","confid","","","html-slider-response","1711","1746546","0.0-4.0-10.191-0.191","","","","Rate your confidence","1",""
"301.89999985694885","i","choice","left","e","experimental","1718","1748643","0.0-4.0-8.192","false","193","2.7499999999999996","","",""
"3218.399999856949","3","confid","","","html-slider-response","1720","1752367","0.0-4.0-10.192-0.192","","","","Rate your confidence","1",""
"155.10000014305115","i","choice","right","i","experimental","1727","1754306","0.0-4.0-8.193","true","194","2.8499999999999996","","",""
"3493.2999999523163","4","confid","","","html-slider-response","1729","1758304","0.0-4.0-10.193-0.193","","","","Rate your confidence","1","83737"
