"rt","response","task","target_side","correct_response","trial_type","trial_index","time_elapsed","internal_node_id","correct","trial_number","n_dots","stimulus","slider_start","participant"
"415.3999999985099","e","choice","left","e","practice","10","63556","0.0-4.0-8.0","true","1","4.25","","",""
"271.30000000447035","i","choice","right","i","practice","18","66106","0.0-4.0-8.1","true","2","4.25","","",""
"2665.39999999851","i","choice","right","i","practice","26","71041","0.0-4.0-8.2","true","3","3.85","","",""
"57","e","choice","left","e","practice","34","73373","0.0-4.0-8.3","true","4","3.85","","",""
"252.10000000149012","i","choice","right","i","practice","42","75894","0.0-4.0-8.4","true","5","3.45","","",""
"426.1000000014901","e","choice","left","e","practice","50","78589","0.0-4.0-8.5","true","6","3.45","","",""
"319.5","e","choice","left","e","practice","58","81198","0.0-4.0-8.6","true","7","3.25","","",""
"314.6000000014901","i","choice","right","i","practice","66","83789","0.0-4.0-8.7","true","8","3.25","","",""
"319.3999999985099","e","choice","right","i","practice","74","86379","0.0-4.0-8.8","false","9","3.05","","",""
"257.80000000447035","e","choice","left","e","practice","82","88915","0.0-4.0-8.9","true","10","3.25","","",""
"256.8999999985099","e","choice","left","e","practice","90","91442","0.0-4.0-8.10","true","11","3.25","","",""
"259","i","choice","right","i","practice","98","93967","0.0-4.0-8.11","true","12","3.15","","",""
"527.5","e","choice","right","i","practice","106","96771","0.0-4.0-8.12","false","13","3.15","","",""
"282.79999999701977","e","choice","left","e","practice","114","99319","0.0-4.0-8.13","true","14","3.25","","",""
"306.80000000447035","i","choice","right","i","practice","122","101905","0.0-4.0-8.14","true","15","3.25","","",""
"337.19999999552965","e","choice","left","e","practice","130","104518","0.0-4.0-8.15","true","16","3.15","","",""
"215.60000000149012","i","choice","left","e","practice","138","107001","0.0-4.0-8.16","false","17","3.15","","",""
"379.80000000447035","i","choice","right","i","practice","146","109649","0.0-4.0-8.17","true","18","3.25","","",""
"73.79999999701977","e","choice","left","e","practice","154","111991","0.0-4.0-8.18","true","19","3.25","","",""
"257.1000000014901","i","choice","right","i","practice","162","114525","0.0-4.0-8.19","true","20","3.15","","",""
"204.60000000149012","i","choice","right","i","practice","170","117010","0.0-4.0-8.20","true","21","3.15","","",""
"109.5","e","choice","left","e","practice","178","119391","0.0-4.0-8.21","true","22","3.05","","",""
"73.69999999552965","e","choice","left","e","practice","186","121743","0.0-4.0-8.22","true","23","3.05","","",""
"179.89999999850988","i","choice","right","i","practice","194","124197","0.0-4.0-8.23","true","24","2.9499999999999997","","",""
"230.89999999850988","e","choice","left","e","practice","202","126704","0.0-4.0-8.24","true","25","2.9499999999999997","","",""
"266.19999999552965","e","choice","right","i","practice","210","129240","0.0-4.0-8.25","false","26","2.8499999999999996","","",""
"541","i","choice","right","i","experimental","221","147380","0.0-4.0-8.26","true","27","2.9499999999999997","","",""
"2653.6999999955297","4","confid","","","html-slider-response","223","150535","0.0-4.0-10.26-0.26","","","","Rate your confidence","1",""
"75.5","e","choice","left","e","experimental","230","152380","0.0-4.0-8.27","true","28","2.9499999999999997","","",""
"1990.1999999955297","4","confid","","","html-slider-response","232","154873","0.0-4.0-10.27-0.27","","","","Rate your confidence","1",""
"0.20000000298023224","i","choice","right","i","experimental","239","156649","0.0-4.0-8.28","true","29","2.8499999999999996","","",""
"1512.5","4","confid","","","html-slider-response","241","158664","0.0-4.0-10.28-0.28","","","","Rate your confidence","1",""
"504.3999999985099","e","choice","left","e","experimental","248","160945","0.0-4.0-8.29","true","30","2.8499999999999996","","",""
"2497","2","confid","","","html-slider-response","250","163944","0.0-4.0-10.29-0.29","","","","Rate your confidence","1",""
"324.8999999985099","e","choice","left","e","experimental","257","166036","0.0-4.0-8.30","true","31","2.7499999999999996","","",""
"2043.8999999985099","5","confid","","","html-slider-response","259","168591","0.0-4.0-10.30-0.30","","","","Rate your confidence","1",""
"594","i","choice","right","i","experimental","266","170951","0.0-4.0-8.31","true","32","2.7499999999999996","","",""
"1545.5","3","confid","","","html-slider-response","268","172999","0.0-4.0-10.31-0.31","","","","Rate your confidence","1",""
"7.299999997019768","e","choice","left","e","experimental","275","174774","0.0-4.0-8.32","true","33","2.6499999999999995","","",""
"2506.60000000149","4","confid","","","html-slider-response","277","177783","0.0-4.0-10.32-0.32","","","","Rate your confidence","1",""
"270.19999999552965","e","choice","right","i","experimental","284","179829","0.0-4.0-8.33","false","34","2.6499999999999995","","",""
"2011.2999999970198","3","confid","","","html-slider-response","286","182343","0.0-4.0-10.33-0.33","","","","Rate your confidence","1",""
"45.29999999701977","e","choice","right","i","experimental","293","184156","0.0-4.0-8.34","false","35","2.7499999999999996","","",""
"3564.89999999851","4","confid","","","html-slider-response","295","188224","0.0-4.0-10.34-0.34","","","","Rate your confidence","1",""
"182.30000000447035","e","choice","left","e","experimental","302","190171","0.0-4.0-8.35","true","36","2.8499999999999996","","",""
"4109.80000000447","5","confid","","","html-slider-response","304","194783","0.0-4.0-10.35-0.35","","","","Rate your confidence","1",""
"384.19999999552965","i","choice","right","i","experimental","311","196937","0.0-4.0-8.36","true","37","2.8499999999999996","","",""
"2368.10000000149","1","confid","","","html-slider-response","313","199807","0.0-4.0-10.36-0.36","","","","Rate your confidence","1",""
"84","e","choice","left","e","experimental","320","201666","0.0-4.0-8.37","true","38","2.7499999999999996","","",""
"2045.6999999955297","5","confid","","","html-slider-response","322","204215","0.0-4.0-10.37-0.37","","","","Rate your confidence","1",""
"28.600000001490116","e","choice","right","i","experimental","329","206012","0.0-4.0-8.38","false","39","2.7499999999999996","","",""
"2483.10000000149","5","confid","","","html-slider-response","331","208999","0.0-4.0-10.38-0.38","","","","Rate your confidence","1",""
"16.5","e","choice","left","e","experimental","338","210783","0.0-4.0-8.39","true","40","2.8499999999999996","","",""
"1938.3999999985099","5","confid","","","html-slider-response","340","213223","0.0-4.0-10.39-0.39","","","","Rate your confidence","1",""
"252.40000000596046","i","choice","right","i","experimental","347","215244","0.0-4.0-8.40","true","41","2.8499999999999996","","",""
"2470.8000000044703","3","confid","","","html-slider-response","349","218216","0.0-4.0-10.40-0.40","","","","Rate your confidence","1",""
"228.20000000298023","e","choice","left","e","experimental","356","220221","0.0-4.0-8.41","true","42","2.7499999999999996","","",""
"2731.5","3","confid","","","html-slider-response","358","223455","0.0-4.0-10.41-0.41","","","","Rate your confidence","1",""
"451","e","choice","right","i","experimental","365","225674","0.0-4.0-8.42","false","43","2.7499999999999996","","",""
"1902.5999999940395","3","confid","","","html-slider-response","367","228079","0.0-4.0-10.42-0.42","","","","Rate your confidence","1",""
"272","i","choice","left","e","experimental","374","230127","0.0-4.0-8.43","false","44","2.8499999999999996","","",""
"1689.2999999970198","3","confid","","","html-slider-response","376","232319","0.0-4.0-10.43-0.43","","","","Rate your confidence","1",""
"125.30000000447035","i","choice","right","i","experimental","383","234211","0.0-4.0-8.44","true","45","2.9499999999999997","","",""
"1380.2000000029802","4","confid","","","html-slider-response","385","236103","0.0-4.0-10.44-0.44","","","","Rate your confidence","1",""
"243","e","choice","left","e","experimental","392","238113","0.0-4.0-8.45","true","46","2.9499999999999997","","",""
"4951.79999999702","4","confid","","","html-slider-response","394","243567","0.0-4.0-10.45-0.45","","","","Rate your confidence","1",""
"893","i","choice","right","i","experimental","401","246244","0.0-4.0-8.46","true","47","2.8499999999999996","","",""
"1932.5","4","confid","","","html-slider-response","403","248679","0.0-4.0-10.46-0.46","","","","Rate your confidence","1",""
"249.10000000149012","e","choice","left","e","experimental","410","250702","0.0-4.0-8.47","true","48","2.8499999999999996","","",""
"1746.3000000044703","4","confid","","","html-slider-response","412","252951","0.0-4.0-10.47-0.47","","","","Rate your confidence","1",""
"286.20000000298023","e","choice","left","e","experimental","419","255012","0.0-4.0-8.48","true","49","2.7499999999999996","","",""
"1978.7999999970198","4","confid","","","html-slider-response","421","257495","0.0-4.0-10.48-0.48","","","","Rate your confidence","1",""
"304.80000000447035","e","choice","right","i","experimental","428","259569","0.0-4.0-8.49","false","50","2.7499999999999996","","",""
"2670.2999999970198","3","confid","","","html-slider-response","430","262743","0.0-4.0-10.49-0.49","","","","Rate your confidence","1",""
"546","e","choice","left","e","experimental","437","265056","0.0-4.0-8.50","true","51","2.8499999999999996","","",""
"1456.8000000044703","3","confid","","","html-slider-response","439","267015","0.0-4.0-10.50-0.50","","","","Rate your confidence","1",""
"339.80000000447035","i","choice","right","i","experimental","446","269132","0.0-4.0-8.51","true","52","2.8499999999999996","","",""
"2420.6999999955297","4","confid","","","html-slider-response","448","272055","0.0-4.0-10.51-0.51","","","","Rate your confidence","1",""
"419.80000000447035","i","choice","right","i","experimental","455","274261","0.0-4.0-8.52","true","53","2.7499999999999996","","",""
"2379.0999999940395","4","confid","","","html-slider-response","457","277143","0.0-4.0-10.52-0.52","","","","Rate your confidence","1",""
"416.1000000014901","e","choice","left","e","experimental","464","279330","0.0-4.0-8.53","true","54","2.7499999999999996","","",""
"2687.7000000029802","3","confid","","","html-slider-response","466","282519","0.0-4.0-10.53-0.53","","","","Rate your confidence","1",""
"369.80000000447035","e","choice","right","i","experimental","473","284657","0.0-4.0-8.54","false","55","2.6499999999999995","","",""
"1943.8999999985099","3","confid","","","html-slider-response","475","287103","0.0-4.0-10.54-0.54","","","","Rate your confidence","1",""
"98.10000000149012","e","choice","left","e","experimental","482","288977","0.0-4.0-8.55","true","56","2.7499999999999996","","",""
"2127.7999999970198","4","confid","","","html-slider-response","484","291607","0.0-4.0-10.55-0.55","","","","Rate your confidence","1",""
"149","e","choice","left","e","experimental","491","293532","0.0-4.0-8.56","true","57","2.7499999999999996","","",""
"1198.1999999955297","3","confid","","","html-slider-response","493","295231","0.0-4.0-10.56-0.56","","","","Rate your confidence","1",""
"297.6000000014901","e","choice","right","i","experimental","500","297296","0.0-4.0-8.57","false","58","2.6499999999999995","","",""
"1320.5","2","confid","","","html-slider-response","502","299120","0.0-4.0-10.57-0.57","","","","Rate your confidence","1",""
"374","e","choice","left","e","experimental","509","301259","0.0-4.0-8.58","true","59","2.7499999999999996","","",""
"1030.3999999985099","4","confid","","","html-slider-response","511","302791","0.0-4.0-10.58-0.58","","","","Rate your confidence","1",""
"845.1000000014901","i","choice","right","i","experimental","518","305405","0.0-4.0-8.59","true","60","2.7499999999999996","","",""
"2357.10000000149","3","confid","","","html-slider-response","520","308263","0.0-4.0-10.59-0.59","","","","Rate your confidence","1",""
"41.79999999701977","i","choice","left","e","experimental","527","310073","0.0-4.0-8.60","false","61","2.6499999999999995","","",""
"1848.8000000044703","4","confid","","","html-slider-response","529","312424","0.0-4.0-10.60-0.60","","","","Rate your confidence","1",""
"623.2999999970198","i","choice","right","i","experimental","536","314825","0.0-4.0-8.61","true","62","2.7499999999999996","","",""
"1383.7000000029802","4","confid","","","html-slider-response","538","316711","0.0-4.0-10.61-0.61","","","","Rate your confidence","1",""
"102.60000000149012","e","choice","left","e","experimental","545","318592","0.0-4.0-8.62","true","63","2.7499999999999996","","",""
"1544.3999999985099","5","confid","","","html-slider-response","547","320640","0.0-4.0-10.62-0.62","","","","Rate your confidence","1",""
"175.60000000149012","i","choice","right","i","experimental","554","322583","0.0-4.0-8.63","true","64","2.6499999999999995","","",""
"1529.8000000044703","6","confid","","","html-slider-response","556","324615","0.0-4.0-10.63-0.63","","","","Rate your confidence","1",""
"25.299999997019768","i","choice","right","i","experimental","563","326417","0.0-4.0-8.64","true","65","2.6499999999999995","","",""
"1574.7999999970198","3","confid","","","html-slider-response","565","328495","0.0-4.0-10.64-0.64","","","","Rate your confidence","1",""
"10.899999998509884","e","choice","left","e","experimental","572","330275","0.0-4.0-8.65","true","66","2.5499999999999994","","",""
"1566.8000000044703","6","confid","","","html-slider-response","574","332344","0.0-4.0-10.65-0.65","","","","Rate your confidence","1",""
"173.40000000596046","e","choice","right","i","experimental","581","334288","0.0-4.0-8.66","false","67","2.5499999999999994","","",""
"1728.8000000044703","1","confid","","","html-slider-response","583","336519","0.0-4.0-10.66-0.66","","","","Rate your confidence","1",""
"261.1000000014901","i","choice","left","e","experimental","590","338548","0.0-4.0-8.67","false","68","2.6499999999999995","","",""
"1654.3000000044703","1","confid","","","html-slider-response","592","340719","0.0-4.0-10.67-0.67","","","","Rate your confidence","1",""
"479.5","e","choice","right","i","experimental","600","421797","0.0-4.0-8.68","false","69","2.7499999999999996","","",""
"2244.3000000044703","1","confid","","","html-slider-response","602","424543","0.0-4.0-10.68-0.68","","","","Rate your confidence","1",""
"65.30000000447035","i","choice","left","e","experimental","609","426375","0.0-4.0-8.69","false","70","2.8499999999999996","","",""
"1665.5999999940395","5","confid","","","html-slider-response","611","428543","0.0-4.0-10.69-0.69","","","","Rate your confidence","1",""
"214.29999999701977","e","choice","left","e","experimental","618","430525","0.0-4.0-8.70","true","71","2.9499999999999997","","",""
"1882.7000000029802","6","confid","","","html-slider-response","620","432911","0.0-4.0-10.70-0.70","","","","Rate your confidence","1",""
"129.5","i","choice","right","i","experimental","627","434817","0.0-4.0-8.71","true","72","2.9499999999999997","","",""
"2367.7000000029802","3","confid","","","html-slider-response","629","437687","0.0-4.0-10.71-0.71","","","","Rate your confidence","1",""
"105.60000000149012","i","choice","right","i","experimental","636","439559","0.0-4.0-8.72","true","73","2.8499999999999996","","",""
"3121.89999999851","3","confid","","","html-slider-response","638","443183","0.0-4.0-10.72-0.72","","","","Rate your confidence","1",""
"381.59999999403954","e","choice","left","e","experimental","645","445342","0.0-4.0-8.73","true","74","2.8499999999999996","","",""
"2353.60000000149","5","confid","","","html-slider-response","647","448199","0.0-4.0-10.73-0.73","","","","Rate your confidence","1",""
"665.1000000014901","e","choice","left","e","experimental","654","450632","0.0-4.0-8.74","true","75","2.7499999999999996","","",""
"1760.2000000029802","4","confid","","","html-slider-response","656","452895","0.0-4.0-10.74-0.74","","","","Rate your confidence","1",""
"590.5","i","choice","right","i","experimental","663","455261","0.0-4.0-8.75","true","76","2.7499999999999996","","",""
"2402.8000000044703","1","confid","","","html-slider-response","665","458167","0.0-4.0-10.75-0.75","","","","Rate your confidence","1",""
"67.40000000596046","e","choice","right","i","experimental","672","460010","0.0-4.0-8.76","false","77","2.6499999999999995","","",""
"2503.2999999970198","3","confid","","","html-slider-response","674","463015","0.0-4.0-10.76-0.76","","","","Rate your confidence","1",""
"161.70000000298023","i","choice","left","e","experimental","681","464944","0.0-4.0-8.77","false","78","2.7499999999999996","","",""
"1841.3999999985099","4","confid","","","html-slider-response","683","467289","0.0-4.0-10.77-0.77","","","","Rate your confidence","1",""
"358.3999999985099","e","choice","left","e","experimental","690","469415","0.0-4.0-8.78","true","79","2.8499999999999996","","",""
"1929","2","confid","","","html-slider-response","692","471848","0.0-4.0-10.78-0.78","","","","Rate your confidence","1",""
"53.80000000447035","i","choice","right","i","experimental","699","473681","0.0-4.0-8.79","true","80","2.8499999999999996","","",""
"2422.60000000149","3","confid","","","html-slider-response","701","476606","0.0-4.0-10.79-0.79","","","","Rate your confidence","1",""
"178.60000000149012","e","choice","left","e","experimental","708","478562","0.0-4.0-8.80","true","81","2.7499999999999996","","",""
"1661.4000000059605","1","confid","","","html-slider-response","710","480726","0.0-4.0-10.80-0.80","","","","Rate your confidence","1",""
"989.7999999970198","e","choice","right","i","experimental","717","483483","0.0-4.0-8.81","false","82","2.7499999999999996","","",""
"2838.7000000029802","1","confid","","","html-slider-response","719","486825","0.0-4.0-10.81-0.81","","","","Rate your confidence","1",""
"191.5","e","choice","left","e","experimental","726","488784","0.0-4.0-8.82","true","83","2.8499999999999996","","",""
"2542.3000000044703","3","confid","","","html-slider-response","728","491838","0.0-4.0-10.82-0.82","","","","Rate your confidence","1",""
"568.8999999985099","i","choice","right","i","experimental","735","494176","0.0-4.0-8.83","true","84","2.8499999999999996","","",""
"1431.3999999985099","3","confid","","","html-slider-response","737","496111","0.0-4.0-10.83-0.83","","","","Rate your confidence","1",""
"1616.2000000029802","e","choice","left","e","experimental","744","499495","0.0-4.0-8.84","true","85","2.7499999999999996","","",""
"1976","2","confid","","","html-slider-response","746","501974","0.0-4.0-10.84-0.84","","","","Rate your confidence","1",""
"59.899999998509884","i","choice","right","i","experimental","753","503812","0.0-4.0-8.85","true","86","2.7499999999999996","","",""
"4139.10000000149","3","confid","","","html-slider-response","755","508454","0.0-4.0-10.85-0.85","","","","Rate your confidence","1",""
"269.70000000298023","e","choice","left","e","experimental","762","510491","0.0-4.0-8.86","true","87","2.6499999999999995","","",""
"1811","2","confid","","","html-slider-response","764","512806","0.0-4.0-10.86-0.86","","","","Rate your confidence","1",""
"58.400000005960464","e","choice","right","i","experimental","771","514631","0.0-4.0-8.87","false","88","2.6499999999999995","","",""
"2224.89999999851","3","confid","","","html-slider-response","773","517358","0.0-4.0-10.87-0.87","","","","Rate your confidence","1",""
"252.60000000149012","i","choice","right","i","experimental","780","519379","0.0-4.0-8.88","true","89","2.7499999999999996","","",""
"2180.5","6","confid","","","html-slider-response","782","522062","0.0-4.0-10.88-0.88","","","","Rate your confidence","1",""
"186.5","e","choice","left","e","experimental","789","524022","0.0-4.0-8.89","true","90","2.7499999999999996","","",""
"1633.6000000014901","5","confid","","","html-slider-response","791","526158","0.0-4.0-10.89-0.89","","","","Rate your confidence","1",""
"64.29999999701977","e","choice","right","i","experimental","798","527990","0.0-4.0-8.90","false","91","2.6499999999999995","","",""
"2761.6999999955297","4","confid","","","html-slider-response","800","531254","0.0-4.0-10.90-0.90","","","","Rate your confidence","1",""
"129.09999999403954","e","choice","left","e","experimental","807","533161","0.0-4.0-8.91","true","92","2.7499999999999996","","",""
"2335","5","confid","","","html-slider-response","809","535998","0.0-4.0-10.91-0.91","","","","Rate your confidence","1",""
"149.10000000149012","i","choice","right","i","experimental","816","537917","0.0-4.0-8.92","true","93","2.7499999999999996","","",""
"2026.8000000044703","3","confid","","","html-slider-response","818","540455","0.0-4.0-10.92-0.92","","","","Rate your confidence","1",""
"69.70000000298023","e","choice","left","e","experimental","825","542302","0.0-4.0-8.93","true","94","2.6499999999999995","","",""
"2522.7000000029802","3","confid","","","html-slider-response","827","545327","0.0-4.0-10.93-0.93","","","","Rate your confidence","1",""
"376.29999999701977","i","choice","right","i","experimental","834","547470","0.0-4.0-8.94","true","95","2.6499999999999995","","",""
"1962.1000000014901","4","confid","","","html-slider-response","836","549935","0.0-4.0-10.94-0.94","","","","Rate your confidence","1",""
"457.8999999985099","e","choice","left","e","experimental","843","552168","0.0-4.0-8.95","true","96","2.5499999999999994","","",""
"1753.3999999985099","4","confid","","","html-slider-response","845","554423","0.0-4.0-10.95-0.95","","","","Rate your confidence","1",""
"67.20000000298023","i","choice","right","i","experimental","852","556264","0.0-4.0-8.96","true","97","2.5499999999999994","","",""
"2985.5","3","confid","","","html-slider-response","854","559753","0.0-4.0-10.96-0.96","","","","Rate your confidence","1",""
"140.79999999701977","e","choice","left","e","experimental","861","561662","0.0-4.0-8.97","true","98","2.4499999999999993","","",""
"1626.7000000029802","2","confid","","","html-slider-response","863","563799","0.0-4.0-10.97-0.97","","","","Rate your confidence","1",""
"20","e","choice","right","i","experimental","870","565583","0.0-4.0-8.98","false","99","2.4499999999999993","","",""
"1713.6000000014901","4","confid","","","html-slider-response","872","567798","0.0-4.0-10.98-0.98","","","","Rate your confidence","1",""
"431.29999999701977","e","choice","left","e","experimental","879","570015","0.0-4.0-8.99","true","100","2.5499999999999994","","",""
"3345.5999999940395","3","confid","","","html-slider-response","881","573862","0.0-4.0-10.99-0.99","","","","Rate your confidence","1",""
"258.6000000014901","e","choice","left","e","experimental","888","575897","0.0-4.0-8.100","true","101","2.5499999999999994","","",""
"1767.5","4","confid","","","html-slider-response","890","578166","0.0-4.0-10.100-0.100","","","","Rate your confidence","1",""
"183.60000000149012","e","choice","right","i","experimental","897","580125","0.0-4.0-8.101","false","102","2.4499999999999993","","",""
"1076.8999999985099","3","confid","","","html-slider-response","899","581704","0.0-4.0-10.101-0.101","","","","Rate your confidence","1",""
"268.5","i","choice","right","i","experimental","906","583741","0.0-4.0-8.102","true","103","2.5499999999999994","","",""
"2594.89999999851","5","confid","","","html-slider-response","908","586847","0.0-4.0-10.102-0.102","","","","Rate your confidence","1",""
"535.8999999985099","e","choice","left","e","experimental","915","589152","0.0-4.0-8.103","true","104","2.5499999999999994","","",""
"2065.60000000149","2","confid","","","html-slider-response","917","591720","0.0-4.0-10.103-0.103","","","","Rate your confidence","1",""
"82.89999999850988","e","choice","right","i","experimental","924","593579","0.0-4.0-8.104","false","105","2.4499999999999993","","",""
"1861.3000000044703","2","confid","","","html-slider-response","926","595943","0.0-4.0-10.104-0.104","","","","Rate your confidence","1",""
"4688.5999999940395","e","choice","left","e","experimental","933","602407","0.0-4.0-8.105","true","106","2.5499999999999994","","",""
"2465.5","1","confid","","","html-slider-response","935","605375","0.0-4.0-10.105-0.105","","","","Rate your confidence","1",""
"1260.2999999970198","e","choice","right","i","experimental","942","608405","0.0-4.0-8.106","false","107","2.5499999999999994","","",""
"2338.8000000044703","1","confid","","","html-slider-response","944","611246","0.0-4.0-10.106-0.106","","","","Rate your confidence","1",""
"1817.1000000014901","e","choice","left","e","experimental","951","614830","0.0-4.0-8.107","true","108","2.6499999999999995","","",""
"1592.5","1","confid","","","html-slider-response","953","616926","0.0-4.0-10.107-0.107","","","","Rate your confidence","1",""
"491.8999999985099","e","choice","left","e","experimental","960","619186","0.0-4.0-8.108","true","109","2.6499999999999995","","",""
"1565.5999999940395","4","confid","","","html-slider-response","962","621254","0.0-4.0-10.108-0.108","","","","Rate your confidence","1",""
"688.1999999955297","e","choice","right","i","experimental","969","623719","0.0-4.0-8.109","false","110","2.5499999999999994","","",""
"1360.6000000014901","3","confid","","","html-slider-response","971","625582","0.0-4.0-10.109-0.109","","","","Rate your confidence","1",""
"760.5999999940395","i","choice","left","e","experimental","979","1046083","0.0-4.0-8.110","false","111","2.6499999999999995","","",""
"4155.19999999553","5","confid","","","html-slider-response","981","1050750","0.0-4.0-10.110-0.110","","","","Rate your confidence","1",""
"700.5","i","choice","right","i","experimental","988","1053220","0.0-4.0-8.111","true","112","2.7499999999999996","","",""
"1858.1999999955297","5","confid","","","html-slider-response","990","1055582","0.0-4.0-10.111-0.111","","","","Rate your confidence","1",""
"614.8999999985099","i","choice","right","i","experimental","997","1057965","0.0-4.0-8.112","true","113","2.7499999999999996","","",""
"1402.2000000029802","4","confid","","","html-slider-response","999","1059869","0.0-4.0-10.112-0.112","","","","Rate your confidence","1",""
"259.79999999701977","e","choice","left","e","experimental","1006","1061907","0.0-4.0-8.113","true","114","2.6499999999999995","","",""
"4172.20000000298","5","confid","","","html-slider-response","1008","1066582","0.0-4.0-10.113-0.113","","","","Rate your confidence","1",""
"235.30000000447035","e","choice","left","e","experimental","1015","1068595","0.0-4.0-8.114","true","115","2.6499999999999995","","",""
"3836","3","confid","","","html-slider-response","1017","1072934","0.0-4.0-10.114-0.114","","","","Rate your confidence","1",""
"364.5","i","choice","right","i","experimental","1024","1075068","0.0-4.0-8.115","true","116","2.5499999999999994","","",""
"1666.5","3","confid","","","html-slider-response","1026","1077238","0.0-4.0-10.115-0.115","","","","Rate your confidence","1",""
"436.1000000014901","i","choice","left","e","experimental","1033","1079442","0.0-4.0-8.116","false","117","2.5499999999999994","","",""
"1388.7999999970198","2","confid","","","html-slider-response","1035","1081333","0.0-4.0-10.116-0.116","","","","Rate your confidence","1",""
"820.7999999970198","i","choice","right","i","experimental","1042","1083925","0.0-4.0-8.117","true","118","2.6499999999999995","","",""
"1250.1999999955297","3","confid","","","html-slider-response","1044","1085678","0.0-4.0-10.117-0.117","","","","Rate your confidence","1",""
"121.29999999701977","e","choice","left","e","experimental","1051","1087576","0.0-4.0-8.118","true","119","2.6499999999999995","","",""
"2320.60000000149","1","confid","","","html-slider-response","1053","1090398","0.0-4.0-10.118-0.118","","","","Rate your confidence","1",""
"395.70000000298023","e","choice","right","i","experimental","1060","1092569","0.0-4.0-8.119","false","120","2.5499999999999994","","",""
"1932.8999999985099","3","confid","","","html-slider-response","1062","1095006","0.0-4.0-10.119-0.119","","","","Rate your confidence","1",""
"263.70000000298023","e","choice","left","e","experimental","1069","1097045","0.0-4.0-8.120","true","121","2.6499999999999995","","",""
"1345.6000000014901","3","confid","","","html-slider-response","1071","1098893","0.0-4.0-10.120-0.120","","","","Rate your confidence","1",""
"628","i","choice","right","i","experimental","1078","1101289","0.0-4.0-8.121","true","122","2.6499999999999995","","",""
"1332.6000000014901","4","confid","","","html-slider-response","1080","1103133","0.0-4.0-10.121-0.121","","","","Rate your confidence","1",""
"340.70000000298023","e","choice","right","i","experimental","1087","1105243","0.0-4.0-8.122","false","123","2.5499999999999994","","",""
"1851.3000000044703","2","confid","","","html-slider-response","1089","1107598","0.0-4.0-10.122-0.122","","","","Rate your confidence","1",""
"737.3999999985099","i","choice","left","e","experimental","1096","1110112","0.0-4.0-8.123","false","124","2.6499999999999995","","",""
"1663.2999999970198","3","confid","","","html-slider-response","1098","1112277","0.0-4.0-10.123-0.123","","","","Rate your confidence","1",""
"83.39999999850988","e","choice","left","e","experimental","1105","1114141","0.0-4.0-8.124","true","125","2.7499999999999996","","",""
"2674.7999999970198","5","confid","","","html-slider-response","1107","1117318","0.0-4.0-10.124-0.124","","","","Rate your confidence","1",""
"747.0999999940395","i","choice","right","i","experimental","1114","1119833","0.0-4.0-8.125","true","126","2.7499999999999996","","",""
"1335.2000000029802","3","confid","","","html-slider-response","1116","1121670","0.0-4.0-10.125-0.125","","","","Rate your confidence","1",""
"498.29999999701977","i","choice","right","i","experimental","1123","1123937","0.0-4.0-8.126","true","127","2.6499999999999995","","",""
"1695.2000000029802","4","confid","","","html-slider-response","1125","1126134","0.0-4.0-10.126-0.126","","","","Rate your confidence","1",""
"152.10000000149012","e","choice","left","e","experimental","1132","1128058","0.0-4.0-8.127","true","128","2.6499999999999995","","",""
"2319","2","confid","","","html-slider-response","1134","1130879","0.0-4.0-10.127-0.127","","","","Rate your confidence","1",""
"243.79999999701977","e","choice","left","e","experimental","1141","1132899","0.0-4.0-8.128","true","129","2.5499999999999994","","",""
"1388.8999999985099","2","confid","","","html-slider-response","1143","1134790","0.0-4.0-10.128-0.128","","","","Rate your confidence","1",""
"600.3000000044703","i","choice","right","i","experimental","1150","1137160","0.0-4.0-8.129","true","130","2.5499999999999994","","",""
"2584.10000000149","3","confid","","","html-slider-response","1152","1140246","0.0-4.0-10.129-0.129","","","","Rate your confidence","1",""
"426.8999999985099","i","choice","right","i","experimental","1159","1142441","0.0-4.0-8.130","true","131","2.4499999999999993","","",""
"1669","4","confid","","","html-slider-response","1161","1144614","0.0-4.0-10.130-0.130","","","","Rate your confidence","1",""
"430","e","choice","left","e","experimental","1168","1146811","0.0-4.0-8.131","true","132","2.4499999999999993","","",""
"2932.8000000044703","4","confid","","","html-slider-response","1170","1150246","0.0-4.0-10.131-0.131","","","","Rate your confidence","1",""
"313.79999999701977","e","choice","left","e","experimental","1177","1152339","0.0-4.0-8.132","true","133","2.349999999999999","","",""
"1868.8999999985099","3","confid","","","html-slider-response","1179","1154711","0.0-4.0-10.132-0.132","","","","Rate your confidence","1",""
"575.0999999940395","i","choice","right","i","experimental","1186","1157063","0.0-4.0-8.133","true","134","2.349999999999999","","",""
"4055.9000000059605","6","confid","","","html-slider-response","1188","1161622","0.0-4.0-10.133-0.133","","","","Rate your confidence","1",""
"215.20000000298023","e","choice","left","e","experimental","1195","1163614","0.0-4.0-8.134","true","135","2.249999999999999","","",""
"1296.9000000059605","4","confid","","","html-slider-response","1197","1165414","0.0-4.0-10.134-0.134","","","","Rate your confidence","1",""
"276.5","e","choice","right","i","experimental","1204","1167457","0.0-4.0-8.135","false","136","2.249999999999999","","",""
"2013.4000000059605","3","confid","","","html-slider-response","1206","1169974","0.0-4.0-10.135-0.135","","","","Rate your confidence","1",""
"434.3999999985099","e","choice","right","i","experimental","1213","1172176","0.0-4.0-8.136","false","137","2.349999999999999","","",""
"1623","2","confid","","","html-slider-response","1215","1174302","0.0-4.0-10.136-0.136","","","","Rate your confidence","1",""
"295.6000000014901","e","choice","left","e","experimental","1222","1176363","0.0-4.0-8.137","true","138","2.4499999999999993","","",""
"1486","3","confid","","","html-slider-response","1224","1178351","0.0-4.0-10.137-0.137","","","","Rate your confidence","1",""
"396.6000000014901","e","choice","right","i","experimental","1231","1180526","0.0-4.0-8.138","false","139","2.4499999999999993","","",""
"1953.5","2","confid","","","html-slider-response","1233","1182982","0.0-4.0-10.138-0.138","","","","Rate your confidence","1",""
"414.09999999403954","e","choice","left","e","experimental","1240","1185165","0.0-4.0-8.139","true","140","2.5499999999999994","","",""
"1898.1000000014901","3","confid","","","html-slider-response","1242","1187566","0.0-4.0-10.139-0.139","","","","Rate your confidence","1",""
"679.7999999970198","i","choice","right","i","experimental","1249","1190015","0.0-4.0-8.140","true","141","2.5499999999999994","","",""
"3119.89999999851","5","confid","","","html-slider-response","1251","1193647","0.0-4.0-10.140-0.140","","","","Rate your confidence","1",""
"578.5","i","choice","left","e","experimental","1258","1195992","0.0-4.0-8.141","false","142","2.4499999999999993","","",""
"2015.5","3","confid","","","html-slider-response","1260","1198510","0.0-4.0-10.141-0.141","","","","Rate your confidence","1",""
"2691.2000000029802","e","choice","left","e","experimental","1267","1202978","0.0-4.0-8.142","true","143","2.5499999999999994","","",""
"2149.39999999851","1","confid","","","html-slider-response","1269","1205630","0.0-4.0-10.142-0.142","","","","Rate your confidence","1",""
"500.20000000298023","i","choice","right","i","experimental","1276","1207909","0.0-4.0-8.143","true","144","2.5499999999999994","","",""
"1442","4","confid","","","html-slider-response","1278","1209853","0.0-4.0-10.143-0.143","","","","Rate your confidence","1",""
"563.3000000044703","e","choice","left","e","experimental","1285","1212184","0.0-4.0-8.144","true","145","2.4499999999999993","","",""
"2719.2999999970198","2","confid","","","html-slider-response","1287","1215406","0.0-4.0-10.144-0.144","","","","Rate your confidence","1",""
"581.8000000044703","i","choice","right","i","experimental","1294","1217756","0.0-4.0-8.145","true","146","2.4499999999999993","","",""
"1754.6999999955297","3","confid","","","html-slider-response","1296","1220014","0.0-4.0-10.145-0.145","","","","Rate your confidence","1",""
"564.5","i","choice","right","i","experimental","1303","1222346","0.0-4.0-8.146","true","147","2.349999999999999","","",""
"1718","2","confid","","","html-slider-response","1305","1224566","0.0-4.0-10.146-0.146","","","","Rate your confidence","1",""
"951.7000000029802","e","choice","left","e","experimental","1312","1227305","0.0-4.0-8.147","true","148","2.349999999999999","","",""
"3128.2999999970198","4","confid","","","html-slider-response","1314","1230936","0.0-4.0-10.147-0.147","","","","Rate your confidence","1",""
"315.70000000298023","e","choice","left","e","experimental","1321","1233019","0.0-4.0-8.148","true","149","2.249999999999999","","",""
"1389.7999999970198","4","confid","","","html-slider-response","1323","1234910","0.0-4.0-10.148-0.148","","","","Rate your confidence","1",""
"611.3999999985099","i","choice","right","i","experimental","1330","1237302","0.0-4.0-8.149","true","150","2.249999999999999","","",""
"1368.7999999970198","4","confid","","","html-slider-response","1332","1239174","0.0-4.0-10.149-0.149","","","","Rate your confidence","1",""
"144.39999999850988","e","choice","left","e","experimental","1339","1241088","0.0-4.0-8.150","true","151","2.149999999999999","","",""
"1607.2000000029802","4","confid","","","html-slider-response","1341","1243198","0.0-4.0-10.150-0.150","","","","Rate your confidence","1",""
"288","e","choice","right","i","experimental","1348","1245263","0.0-4.0-8.151","false","152","2.149999999999999","","",""
"1352.2000000029802","3","confid","","","html-slider-response","1350","1247118","0.0-4.0-10.151-0.151","","","","Rate your confidence","1",""
"393","e","choice","right","i","experimental","1358","1439083","0.0-4.0-8.152","false","153","2.249999999999999","","",""
"1619.8999999985099","5","confid","","","html-slider-response","1360","1441206","0.0-4.0-10.152-0.152","","","","Rate your confidence","1",""
"1601.6999999955297","e","choice","left","e","experimental","1367","1444575","0.0-4.0-8.153","true","154","2.349999999999999","","",""
"1815","4","confid","","","html-slider-response","1369","1446893","0.0-4.0-10.153-0.153","","","","Rate your confidence","1",""
"235.79999999701977","i","choice","right","i","experimental","1376","1448905","0.0-4.0-8.154","true","155","2.349999999999999","","",""
"1910.7000000029802","3","confid","","","html-slider-response","1378","1451318","0.0-4.0-10.154-0.154","","","","Rate your confidence","1",""
"88.59999999403954","e","choice","left","e","experimental","1385","1453174","0.0-4.0-8.155","true","156","2.249999999999999","","",""
"1559.2999999970198","3","confid","","","html-slider-response","1387","1455237","0.0-4.0-10.155-0.155","","","","Rate your confidence","1",""
"80.60000000149012","i","choice","right","i","experimental","1394","1457085","0.0-4.0-8.156","true","157","2.249999999999999","","",""
"1393","4","confid","","","html-slider-response","1396","1458981","0.0-4.0-10.156-0.156","","","","Rate your confidence","1",""
"384.19999999552965","e","choice","left","e","experimental","1403","1461133","0.0-4.0-8.157","true","158","2.149999999999999","","",""
"1441.6000000014901","4","confid","","","html-slider-response","1405","1463077","0.0-4.0-10.157-0.157","","","","Rate your confidence","1",""
"187","i","choice","right","i","experimental","1412","1465042","0.0-4.0-8.158","true","159","2.149999999999999","","",""
"2004","3","confid","","","html-slider-response","1414","1467549","0.0-4.0-10.158-0.158","","","","Rate your confidence","1",""
"273.79999999701977","e","choice","left","e","experimental","1421","1469600","0.0-4.0-8.159","true","160","2.049999999999999","","",""
"2638.7999999970198","3","confid","","","html-slider-response","1423","1472741","0.0-4.0-10.159-0.159","","","","Rate your confidence","1",""
"278.09999999403954","e","choice","right","i","experimental","1430","1474809","0.0-4.0-8.160","false","161","2.049999999999999","","",""
"1574.1000000014901","4","confid","","","html-slider-response","1432","1476885","0.0-4.0-10.160-0.160","","","","Rate your confidence","1",""
"440.90000000596046","i","choice","left","e","experimental","1439","1479095","0.0-4.0-8.161","false","162","2.149999999999999","","",""
"1814.3000000044703","2","confid","","","html-slider-response","1441","1481413","0.0-4.0-10.161-0.161","","","","Rate your confidence","1",""
"301.1000000014901","e","choice","left","e","experimental","1448","1483483","0.0-4.0-8.162","true","163","2.249999999999999","","",""
"1762.2000000029802","6","confid","","","html-slider-response","1450","1485749","0.0-4.0-10.162-0.162","","","","Rate your confidence","1",""
"306","e","choice","right","i","experimental","1457","1487830","0.0-4.0-8.163","false","164","2.249999999999999","","",""
"1586.5","3","confid","","","html-slider-response","1459","1489919","0.0-4.0-10.163-0.163","","","","Rate your confidence","1",""
"288.59999999403954","i","choice","left","e","experimental","1466","1491984","0.0-4.0-8.164","false","165","2.349999999999999","","",""
"1406.6000000014901","5","confid","","","html-slider-response","1468","1493893","0.0-4.0-10.164-0.164","","","","Rate your confidence","1",""
"243.20000000298023","i","choice","right","i","experimental","1475","1495913","0.0-4.0-8.165","true","166","2.4499999999999993","","",""
"2916.5","2","confid","","","html-slider-response","1477","1499334","0.0-4.0-10.165-0.165","","","","Rate your confidence","1",""
"558.7000000029802","i","choice","right","i","experimental","1484","1501661","0.0-4.0-8.166","true","167","2.4499999999999993","","",""
"1866.8999999985099","3","confid","","","html-slider-response","1486","1504030","0.0-4.0-10.166-0.166","","","","Rate your confidence","1",""
"264.20000000298023","e","choice","left","e","experimental","1493","1506062","0.0-4.0-8.167","true","168","2.349999999999999","","",""
"1487.8999999985099","4","confid","","","html-slider-response","1495","1508053","0.0-4.0-10.167-0.167","","","","Rate your confidence","1",""
"235.20000000298023","e","choice","left","e","experimental","1502","1510063","0.0-4.0-8.168","true","169","2.349999999999999","","",""
"1119.3999999985099","3","confid","","","html-slider-response","1504","1511686","0.0-4.0-10.168-0.168","","","","Rate your confidence","1",""
"69.5","i","choice","right","i","experimental","1511","1513531","0.0-4.0-8.169","true","170","2.249999999999999","","",""
"1835.7999999970198","4","confid","","","html-slider-response","1513","1515870","0.0-4.0-10.169-0.169","","","","Rate your confidence","1",""
"234.79999999701977","e","choice","left","e","experimental","1520","1517875","0.0-4.0-8.170","true","171","2.249999999999999","","",""
"2332.39999999851","3","confid","","","html-slider-response","1522","1520710","0.0-4.0-10.170-0.170","","","","Rate your confidence","1",""
"372.5","i","choice","right","i","experimental","1529","1522851","0.0-4.0-8.171","true","172","2.149999999999999","","",""
"1851.8999999985099","4","confid","","","html-slider-response","1531","1525206","0.0-4.0-10.171-0.171","","","","Rate your confidence","1",""
"239.89999999850988","e","choice","right","i","experimental","1538","1527214","0.0-4.0-8.172","false","173","2.149999999999999","","",""
"1904.3000000044703","3","confid","","","html-slider-response","1540","1529622","0.0-4.0-10.172-0.172","","","","Rate your confidence","1",""
"546","e","choice","left","e","experimental","1547","1531948","0.0-4.0-8.173","true","174","2.249999999999999","","",""
"1658.7000000029802","5","confid","","","html-slider-response","1549","1534110","0.0-4.0-10.173-0.173","","","","Rate your confidence","1",""
"358.80000000447035","e","choice","right","i","experimental","1556","1536247","0.0-4.0-8.174","false","175","2.249999999999999","","",""
"4655.39999999851","6","confid","","","html-slider-response","1558","1541406","0.0-4.0-10.174-0.174","","","","Rate your confidence","1",""
"181.70000000298023","e","choice","left","e","experimental","1565","1543353","0.0-4.0-8.175","true","176","2.349999999999999","","",""
"4732.80000000447","5","confid","","","html-slider-response","1567","1548590","0.0-4.0-10.175-0.175","","","","Rate your confidence","1",""
"267.09999999403954","i","choice","right","i","experimental","1574","1550627","0.0-4.0-8.176","true","177","2.349999999999999","","",""
"2213.10000000149","3","confid","","","html-slider-response","1576","1553342","0.0-4.0-10.176-0.176","","","","Rate your confidence","1",""
"285.40000000596046","e","choice","left","e","experimental","1583","1555409","0.0-4.0-8.177","true","178","2.249999999999999","","",""
"2023.3999999985099","2","confid","","","html-slider-response","1585","1557934","0.0-4.0-10.177-0.177","","","","Rate your confidence","1",""
"183.89999999850988","i","choice","right","i","experimental","1592","1559884","0.0-4.0-8.178","true","179","2.249999999999999","","",""
"2121.89999999851","4","confid","","","html-slider-response","1594","1562509","0.0-4.0-10.178-0.178","","","","Rate your confidence","1",""
"283.29999999701977","e","choice","left","e","experimental","1601","1564562","0.0-4.0-8.179","true","180","2.149999999999999","","",""
"4333.29999999702","2","confid","","","html-slider-response","1603","1569397","0.0-4.0-10.179-0.179","","","","Rate your confidence","1",""
"438.70000000298023","i","choice","right","i","experimental","1610","1571613","0.0-4.0-8.180","true","181","2.149999999999999","","",""
"1634.2999999970198","1","confid","","","html-slider-response","1612","1573749","0.0-4.0-10.180-0.180","","","","Rate your confidence","1",""
"259.70000000298023","e","choice","left","e","experimental","1619","1575781","0.0-4.0-8.181","true","182","2.049999999999999","","",""
"3041.5","4","confid","","","html-slider-response","1621","1579325","0.0-4.0-10.181-0.181","","","","Rate your confidence","1",""
"127.39999999850988","i","choice","right","i","experimental","1628","1581221","0.0-4.0-8.182","true","183","2.049999999999999","","",""
"2449.39999999851","6","confid","","","html-slider-response","1630","1584173","0.0-4.0-10.182-0.182","","","","Rate your confidence","1",""
"84.70000000298023","e","choice","left","e","experimental","1637","1586034","0.0-4.0-8.183","true","184","1.9499999999999988","","",""
"1628.6999999955297","5","confid","","","html-slider-response","1639","1588165","0.0-4.0-10.183-0.183","","","","Rate your confidence","1",""
"255.70000000298023","e","choice","left","e","experimental","1646","1590200","0.0-4.0-8.184","true","185","1.9499999999999988","","",""
"1804.9000000059605","4","confid","","","html-slider-response","1648","1592509","0.0-4.0-10.184-0.184","","","","Rate your confidence","1",""
"258.3999999985099","e","choice","right","i","experimental","1655","1594545","0.0-4.0-8.185","false","186","1.8499999999999988","","",""
"1541.8000000044703","5","confid","","","html-slider-response","1657","1596589","0.0-4.0-10.185-0.185","","","","Rate your confidence","1",""
"298.79999999701977","i","choice","left","e","experimental","1664","1598658","0.0-4.0-8.186","false","187","1.9499999999999988","","",""
"1403.5","5","confid","","","html-slider-response","1666","1600573","0.0-4.0-10.186-0.186","","","","Rate your confidence","1",""
"191.79999999701977","e","choice","right","i","experimental","1673","1602532","0.0-4.0-8.187","false","188","2.049999999999999","","",""
"1777.5","4","confid","","","html-slider-response","1675","1604813","0.0-4.0-10.187-0.187","","","","Rate your confidence","1",""
"217.10000000149012","e","choice","right","i","experimental","1682","1606798","0.0-4.0-8.188","false","189","2.149999999999999","","",""
"1640.5","3","confid","","","html-slider-response","1684","1608941","0.0-4.0-10.188-0.188","","","","Rate your confidence","1",""
"444.1000000014901","e","choice","left","e","experimental","1691","1611156","0.0-4.0-8.189","true","190","2.249999999999999","","",""
"1257.3999999985099","4","confid","","","html-slider-response","1693","1612917","0.0-4.0-10.189-0.189","","","","Rate your confidence","1",""
"142.60000000149012","i","choice","left","e","experimental","1700","1614831","0.0-4.0-8.190","false","191","2.249999999999999","","",""
"1840.5","4","confid","","","html-slider-response","1702","1617173","0.0-4.0-10.190-0.190","","","","Rate your confidence","1",""
"232.20000000298023","e","choice","right","i","experimental","1709","1619184","0.0-4.0-8.191","false","192","2.349999999999999","","",""
"2016.3999999985099","3","confid","","","html-slider-response","1711","1621702","0.0-4.0-10.191-0.191","","","","Rate your confidence","1",""
"124.79999999701977","i","choice","right","i","experimental","1718","1623599","0.0-4.0-8.192","true","193","2.4499999999999993","","",""
"2671.5","5","confid","","","html-slider-response","1720","1626772","0.0-4.0-10.192-0.192","","","","Rate your confidence","1",""
"335.3999999985099","i","choice","left","e","experimental","1727","1628878","0.0-4.0-8.193","false","194","2.4499999999999993","","",""
"2497.2999999970198","6","confid","","","html-slider-response","1729","1631877","0.0-4.0-10.193-0.193","","","","Rate your confidence","1","40696"
