"rt","response","task","target_side","correct_response","trial_type","trial_index","time_elapsed","internal_node_id","correct","trial_number","n_dots","stimulus","slider_start","participant"
"1202.199999988079","i","choice","right","i","practice","10","43651","0.0-4.0-8.0","true","1","4.25","","",""
"769.9000000059605","e","choice","left","e","practice","18","46740","0.0-4.0-8.1","true","2","4.25","","",""
"966.5","e","choice","left","e","practice","26","50040","0.0-4.0-8.2","true","3","3.85","","",""
"538","i","choice","right","i","practice","34","52913","0.0-4.0-8.3","true","4","3.85","","",""
"286.40000000596046","i","choice","right","i","practice","42","55515","0.0-4.0-8.4","true","5","3.45","","",""
"875.4000000059605","i","choice","left","e","practice","50","58703","0.0-4.0-8.5","false","6","3.45","","",""
"635","e","choice","left","e","practice","58","61694","0.0-4.0-8.6","true","7","3.6500000000000004","","",""
"1017.3999999761581","i","choice","right","i","practice","66","65051","0.0-4.0-8.7","true","8","3.6500000000000004","","",""
"507.19999998807907","i","choice","left","e","practice","74","67883","0.0-4.0-8.8","false","9","3.45","","",""
"311.10000002384186","i","choice","right","i","practice","82","70528","0.0-4.0-8.9","true","10","3.6500000000000004","","",""
"510.2000000178814","e","choice","left","e","practice","90","73350","0.0-4.0-8.10","true","11","3.6500000000000004","","",""
"1075.7999999821186","i","choice","right","i","practice","98","76767","0.0-4.0-8.11","true","12","3.5500000000000003","","",""
"339.80000001192093","i","choice","right","i","practice","106","79450","0.0-4.0-8.12","true","13","3.5500000000000003","","",""
"355.19999998807907","e","choice","left","e","practice","114","82134","0.0-4.0-8.13","true","14","3.45","","",""
"492.40000000596046","e","choice","left","e","practice","122","84959","0.0-4.0-8.14","true","15","3.45","","",""
"300.40000000596046","i","choice","right","i","practice","130","87619","0.0-4.0-8.15","true","16","3.35","","",""
"1945.699999988079","i","choice","right","i","practice","138","91896","0.0-4.0-8.16","true","17","3.35","","",""
"297.5","e","choice","left","e","practice","146","94511","0.0-4.0-8.17","true","18","3.25","","",""
"356.59999999403954","e","choice","left","e","practice","154","97193","0.0-4.0-8.18","true","19","3.25","","",""
"199.69999998807907","i","choice","right","i","practice","162","99729","0.0-4.0-8.19","true","20","3.15","","",""
"254.5","i","choice","left","e","practice","170","102330","0.0-4.0-8.20","false","21","3.15","","",""
"267.5","i","choice","right","i","practice","178","104936","0.0-4.0-8.21","true","22","3.25","","",""
"397.09999999403954","e","choice","right","i","practice","186","107668","0.0-4.0-8.22","false","23","3.25","","",""
"849.0999999940395","e","choice","left","e","practice","194","110854","0.0-4.0-8.23","true","24","3.35","","",""
"274","i","choice","right","i","practice","202","113448","0.0-4.0-8.24","true","25","3.35","","",""
"950.2999999821186","i","choice","left","e","practice","210","116687","0.0-4.0-8.25","false","26","3.25","","",""
"1564.3999999761581","e","choice","right","i","experimental","221","151587","0.0-4.0-8.26","false","27","3.35","","",""
"2457.600000023842","2","confid","","","html-slider-response","223","154549","0.0-4.0-10.26-0.26","","","","Rate your confidence","1",""
"507.59999999403954","i","choice","left","e","experimental","230","156871","0.0-4.0-8.27","false","28","3.45","","",""
"1814.7999999821186","3","confid","","","html-slider-response","232","159190","0.0-4.0-10.27-0.27","","","","Rate your confidence","1",""
"454.90000000596046","i","choice","right","i","experimental","239","161456","0.0-4.0-8.28","true","29","3.5500000000000003","","",""
"3097.5999999940395","3","confid","","","html-slider-response","241","165069","0.0-4.0-10.28-0.28","","","","Rate your confidence","1",""
"517.2000000178814","e","choice","left","e","experimental","248","167457","0.0-4.0-8.29","true","30","3.5500000000000003","","",""
"2809.5999999940395","3","confid","","","html-slider-response","250","170775","0.0-4.0-10.29-0.29","","","","Rate your confidence","1",""
"526515.900000006","e","choice","right","i","experimental","257","699123","0.0-4.0-8.30","false","31","3.45","","",""
"6089.600000023842","2","confid","","","html-slider-response","259","705723","0.0-4.0-10.30-0.30","","","","Rate your confidence","1",""
"326.2000000178814","e","choice","left","e","experimental","266","707837","0.0-4.0-8.31","true","32","3.5500000000000003","","",""
"2355.199999988079","3","confid","","","html-slider-response","268","710701","0.0-4.0-10.31-0.31","","","","Rate your confidence","1",""
"172.90000000596046","i","choice","right","i","experimental","275","712682","0.0-4.0-8.32","true","33","3.5500000000000003","","",""
"2013.5999999940395","4","confid","","","html-slider-response","277","715213","0.0-4.0-10.32-0.32","","","","Rate your confidence","1",""
"98","e","choice","left","e","experimental","284","717107","0.0-4.0-8.33","true","34","3.45","","",""
"2336.9000000059605","3","confid","","","html-slider-response","286","719948","0.0-4.0-10.33-0.33","","","","Rate your confidence","1",""
"295.69999998807907","e","choice","left","e","experimental","293","722035","0.0-4.0-8.34","true","35","3.45","","",""
"2704.7999999821186","3","confid","","","html-slider-response","295","725251","0.0-4.0-10.34-0.34","","","","Rate your confidence","1",""
"535.7999999821186","i","choice","right","i","experimental","302","727582","0.0-4.0-8.35","true","36","3.35","","",""
"1765.7000000178814","3","confid","","","html-slider-response","304","729864","0.0-4.0-10.35-0.35","","","","Rate your confidence","1",""
"85.39999997615814","e","choice","left","e","experimental","311","731752","0.0-4.0-8.36","true","37","3.35","","",""
"2529.300000011921","3","confid","","","html-slider-response","313","734802","0.0-4.0-10.36-0.36","","","","Rate your confidence","1",""
"407.90000000596046","e","choice","right","i","experimental","320","736997","0.0-4.0-8.37","false","38","3.25","","",""
"3517.5","3","confid","","","html-slider-response","322","741017","0.0-4.0-10.37-0.37","","","","Rate your confidence","1",""
"394.5","e","choice","left","e","experimental","329","743210","0.0-4.0-8.38","true","39","3.35","","",""
"3329","3","confid","","","html-slider-response","331","747044","0.0-4.0-10.38-0.38","","","","Rate your confidence","1",""
"308.90000000596046","i","choice","right","i","experimental","338","749145","0.0-4.0-8.39","true","40","3.35","","",""
"3354.300000011921","3","confid","","","html-slider-response","340","753015","0.0-4.0-10.39-0.39","","","","Rate your confidence","1",""
"339.69999998807907","e","choice","left","e","experimental","347","755149","0.0-4.0-8.40","true","41","3.25","","",""
"6650.200000017881","3","confid","","","html-slider-response","349","766312","0.0-4.0-10.40-0.40","","","","Rate your confidence","1",""
"534.7999999821186","i","choice","right","i","experimental","356","768638","0.0-4.0-8.41","true","42","3.25","","",""
"2545.699999988079","3","confid","","","html-slider-response","358","771692","0.0-4.0-10.41-0.41","","","","Rate your confidence","1",""
"689.1000000238419","i","choice","right","i","experimental","365","774172","0.0-4.0-8.42","true","43","3.15","","",""
"1987.5","3","confid","","","html-slider-response","367","776665","0.0-4.0-10.42-0.42","","","","Rate your confidence","1",""
"681.5","e","choice","left","e","experimental","374","779142","0.0-4.0-8.43","true","44","3.15","","",""
"2807.300000011921","3","confid","","","html-slider-response","376","782463","0.0-4.0-10.43-0.43","","","","Rate your confidence","1",""
"843.5999999940395","e","choice","left","e","experimental","383","785121","0.0-4.0-8.44","true","45","3.05","","",""
"4344","3","confid","","","html-slider-response","385","789970","0.0-4.0-10.44-0.44","","","","Rate your confidence","1",""
"531","e","choice","right","i","experimental","392","792286","0.0-4.0-8.45","false","46","3.05","","",""
"2184.399999976158","3","confid","","","html-slider-response","394","794985","0.0-4.0-10.45-0.45","","","","Rate your confidence","1",""
"387.40000000596046","i","choice","right","i","experimental","401","797156","0.0-4.0-8.46","true","47","3.15","","",""
"2312.5","3","confid","","","html-slider-response","403","799978","0.0-4.0-10.46-0.46","","","","Rate your confidence","1",""
"11579.800000011921","e","choice","left","e","experimental","410","813341","0.0-4.0-8.47","true","48","3.15","","",""
"2108.4000000059605","3","confid","","","html-slider-response","412","815958","0.0-4.0-10.47-0.47","","","","Rate your confidence","1",""
"744.2999999821186","e","choice","right","i","experimental","419","818497","0.0-4.0-8.48","false","49","3.05","","",""
"1922.4000000059605","3","confid","","","html-slider-response","421","820936","0.0-4.0-10.48-0.48","","","","Rate your confidence","1",""
"856.0999999940395","e","choice","left","e","experimental","428","823592","0.0-4.0-8.49","true","50","3.15","","",""
"6729.399999976158","3","confid","","","html-slider-response","430","830831","0.0-4.0-10.49-0.49","","","","Rate your confidence","1",""
"698.2999999821186","e","choice","left","e","experimental","437","833314","0.0-4.0-8.50","true","51","3.15","","",""
"3329.699999988079","3","confid","","","html-slider-response","439","837161","0.0-4.0-10.50-0.50","","","","Rate your confidence","1",""
"955.1999999880791","e","choice","right","i","experimental","446","839892","0.0-4.0-8.51","false","52","3.05","","",""
"3540.0999999940395","3","confid","","","html-slider-response","448","843944","0.0-4.0-10.51-0.51","","","","Rate your confidence","1",""
"177.09999999403954","e","choice","left","e","experimental","455","845901","0.0-4.0-8.52","true","53","3.15","","",""
"3103.100000023842","3","confid","","","html-slider-response","457","849507","0.0-4.0-10.52-0.52","","","","Rate your confidence","1",""
"342.80000001192093","e","choice","right","i","experimental","464","851644","0.0-4.0-8.53","false","54","3.15","","",""
"2485.100000023842","3","confid","","","html-slider-response","466","854637","0.0-4.0-10.53-0.53","","","","Rate your confidence","1",""
"539","i","choice","right","i","experimental","473","856973","0.0-4.0-8.54","true","55","3.25","","",""
"2440.0999999940395","3","confid","","","html-slider-response","475","859926","0.0-4.0-10.54-0.54","","","","Rate your confidence","1",""
"344.59999999403954","e","choice","left","e","experimental","482","862070","0.0-4.0-8.55","true","56","3.25","","",""
"2795.0999999940395","3","confid","","","html-slider-response","484","865372","0.0-4.0-10.55-0.55","","","","Rate your confidence","1",""
"1041.300000011921","i","choice","right","i","experimental","491","868214","0.0-4.0-8.56","true","57","3.15","","",""
"2103.2000000178814","3","confid","","","html-slider-response","493","870832","0.0-4.0-10.56-0.56","","","","Rate your confidence","1",""
"210.30000001192093","e","choice","left","e","experimental","500","872836","0.0-4.0-8.57","true","58","3.15","","",""
"2560.5","3","confid","","","html-slider-response","502","875899","0.0-4.0-10.57-0.57","","","","Rate your confidence","1",""
"607.5","e","choice","left","e","experimental","509","878306","0.0-4.0-8.58","true","59","3.05","","",""
"2478.0999999940395","3","confid","","","html-slider-response","511","881288","0.0-4.0-10.58-0.58","","","","Rate your confidence","1",""
"443.90000000596046","i","choice","right","i","experimental","518","883539","0.0-4.0-8.59","true","60","3.05","","",""
"2222.9000000059605","3","confid","","","html-slider-response","520","886267","0.0-4.0-10.59-0.59","","","","Rate your confidence","1",""
"434.5","i","choice","right","i","experimental","527","888496","0.0-4.0-8.60","true","61","2.9499999999999997","","",""
"20655.09999999404","3","confid","","","html-slider-response","529","909666","0.0-4.0-10.60-0.60","","","","Rate your confidence","1",""
"538.0999999940395","e","choice","left","e","experimental","536","911980","0.0-4.0-8.61","true","62","2.9499999999999997","","",""
"3091.100000023842","4","confid","","","html-slider-response","538","915587","0.0-4.0-10.61-0.61","","","","Rate your confidence","1",""
"629.2000000178814","i","choice","right","i","experimental","545","917996","0.0-4.0-8.62","true","63","2.8499999999999996","","",""
"1669.2999999821186","4","confid","","","html-slider-response","547","920171","0.0-4.0-10.62-0.62","","","","Rate your confidence","1",""
"193.5","e","choice","left","e","experimental","554","922168","0.0-4.0-8.63","true","64","2.8499999999999996","","",""
"2449.7000000178814","4","confid","","","html-slider-response","556","925122","0.0-4.0-10.63-0.63","","","","Rate your confidence","1",""
"285.60000002384186","e","choice","right","i","experimental","563","927193","0.0-4.0-8.64","false","65","2.7499999999999996","","",""
"1957.7000000178814","5","confid","","","html-slider-response","565","929657","0.0-4.0-10.64-0.64","","","","Rate your confidence","1",""
"644.7999999821186","e","choice","left","e","experimental","572","932093","0.0-4.0-8.65","true","66","2.8499999999999996","","",""
"3820.800000011921","2","confid","","","html-slider-response","574","936419","0.0-4.0-10.65-0.65","","","","Rate your confidence","1",""
"552.2000000178814","e","choice","left","e","experimental","581","938755","0.0-4.0-8.66","true","67","2.8499999999999996","","",""
"2883.2999999821186","4","confid","","","html-slider-response","583","942154","0.0-4.0-10.66-0.66","","","","Rate your confidence","1",""
"670.2999999821186","e","choice","right","i","experimental","590","944618","0.0-4.0-8.67","false","68","2.7499999999999996","","",""
"2379.7999999821186","4","confid","","","html-slider-response","592","947507","0.0-4.0-10.67-0.67","","","","Rate your confidence","1",""
"644.7999999821186","i","choice","right","i","experimental","600","1005914","0.0-4.0-8.68","true","69","2.8499999999999996","","",""
"2790.5","3","confid","","","html-slider-response","602","1009218","0.0-4.0-10.68-0.68","","","","Rate your confidence","1",""
"280.90000000596046","e","choice","left","e","experimental","609","1011284","0.0-4.0-8.69","true","70","2.8499999999999996","","",""
"3488.2999999821186","3","confid","","","html-slider-response","611","1015280","0.0-4.0-10.69-0.69","","","","Rate your confidence","1",""
"139.2999999821186","e","choice","left","e","experimental","618","1017206","0.0-4.0-8.70","true","71","2.7499999999999996","","",""
"2989.9000000059605","3","confid","","","html-slider-response","620","1020705","0.0-4.0-10.70-0.70","","","","Rate your confidence","1",""
"411.69999998807907","e","choice","right","i","experimental","627","1022923","0.0-4.0-8.71","false","72","2.7499999999999996","","",""
"1634.9000000059605","3","confid","","","html-slider-response","629","1025074","0.0-4.0-10.71-0.71","","","","Rate your confidence","1",""
"498.19999998807907","e","choice","left","e","experimental","636","1027391","0.0-4.0-8.72","true","73","2.8499999999999996","","",""
"2585.5999999940395","3","confid","","","html-slider-response","638","1030493","0.0-4.0-10.72-0.72","","","","Rate your confidence","1",""
"669.6999999880791","i","choice","right","i","experimental","645","1032950","0.0-4.0-8.73","true","74","2.8499999999999996","","",""
"2223.199999988079","3","confid","","","html-slider-response","647","1035680","0.0-4.0-10.73-0.73","","","","Rate your confidence","1",""
"601.6999999880791","i","choice","right","i","experimental","654","1038067","0.0-4.0-8.74","true","75","2.7499999999999996","","",""
"1760.0999999940395","3","confid","","","html-slider-response","656","1040337","0.0-4.0-10.74-0.74","","","","Rate your confidence","1",""
"90.09999999403954","e","choice","left","e","experimental","663","1042206","0.0-4.0-8.75","true","76","2.7499999999999996","","",""
"2393.199999988079","3","confid","","","html-slider-response","665","1045109","0.0-4.0-10.75-0.75","","","","Rate your confidence","1",""
"688","e","choice","right","i","experimental","672","1047582","0.0-4.0-8.76","false","77","2.6499999999999995","","",""
"2729.5999999940395","3","confid","","","html-slider-response","674","1050829","0.0-4.0-10.76-0.76","","","","Rate your confidence","1",""
"50.099999994039536","e","choice","left","e","experimental","681","1052661","0.0-4.0-8.77","true","78","2.7499999999999996","","",""
"1868.699999988079","3","confid","","","html-slider-response","683","1055039","0.0-4.0-10.77-0.77","","","","Rate your confidence","1",""
"741.5","i","choice","right","i","experimental","690","1057571","0.0-4.0-8.78","true","79","2.7499999999999996","","",""
"2894.5999999940395","3","confid","","","html-slider-response","692","1060979","0.0-4.0-10.78-0.78","","","","Rate your confidence","1",""
"518.6999999880791","e","choice","left","e","experimental","699","1063292","0.0-4.0-8.79","true","80","2.6499999999999995","","",""
"1780.199999988079","3","confid","","","html-slider-response","701","1065578","0.0-4.0-10.79-0.79","","","","Rate your confidence","1",""
"260.7000000178814","e","choice","left","e","experimental","708","1067656","0.0-4.0-8.80","true","81","2.6499999999999995","","",""
"4116.699999988079","3","confid","","","html-slider-response","710","1072283","0.0-4.0-10.80-0.80","","","","Rate your confidence","1",""
"78.30000001192093","e","choice","right","i","experimental","717","1074151","0.0-4.0-8.81","false","82","2.5499999999999994","","",""
"1988.0999999940395","3","confid","","","html-slider-response","719","1076651","0.0-4.0-10.81-0.81","","","","Rate your confidence","1",""
"632.3000000119209","i","choice","right","i","experimental","726","1079076","0.0-4.0-8.82","true","83","2.6499999999999995","","",""
"2496.7000000178814","3","confid","","","html-slider-response","728","1082083","0.0-4.0-10.82-0.82","","","","Rate your confidence","1",""
"430.40000000596046","e","choice","left","e","experimental","735","1084323","0.0-4.0-8.83","true","84","2.6499999999999995","","",""
"2235.9000000059605","3","confid","","","html-slider-response","737","1087063","0.0-4.0-10.83-0.83","","","","Rate your confidence","1",""
"596.5999999940395","i","choice","right","i","experimental","744","1089456","0.0-4.0-8.84","true","85","2.5499999999999994","","",""
"2131.4000000059605","3","confid","","","html-slider-response","746","1092100","0.0-4.0-10.84-0.84","","","","Rate your confidence","1",""
"233.90000000596046","e","choice","left","e","experimental","753","1094113","0.0-4.0-8.85","true","86","2.5499999999999994","","",""
"1921.5999999940395","3","confid","","","html-slider-response","755","1096548","0.0-4.0-10.85-0.85","","","","Rate your confidence","1",""
"213.5","i","choice","right","i","experimental","762","1098567","0.0-4.0-8.86","true","87","2.4499999999999993","","",""
"4247.0999999940395","4","confid","","","html-slider-response","764","1103325","0.0-4.0-10.86-0.86","","","","Rate your confidence","1",""
"148","e","choice","left","e","experimental","771","1105262","0.0-4.0-8.87","true","88","2.4499999999999993","","",""
"2091.2999999821186","2","confid","","","html-slider-response","773","1107867","0.0-4.0-10.87-0.87","","","","Rate your confidence","1",""
"354.09999999403954","i","choice","right","i","experimental","780","1110009","0.0-4.0-8.88","true","89","2.349999999999999","","",""
"1772.300000011921","4","confid","","","html-slider-response","782","1112293","0.0-4.0-10.88-0.88","","","","Rate your confidence","1",""
"45.5","e","choice","left","e","experimental","789","1114133","0.0-4.0-8.89","true","90","2.349999999999999","","",""
"2021.5","3","confid","","","html-slider-response","791","1116663","0.0-4.0-10.89-0.89","","","","Rate your confidence","1",""
"871.6999999880791","i","choice","left","e","experimental","798","1119318","0.0-4.0-8.90","false","91","2.249999999999999","","",""
"1915.800000011921","4","confid","","","html-slider-response","800","1121750","0.0-4.0-10.90-0.90","","","","Rate your confidence","1",""
"553.8000000119209","e","choice","right","i","experimental","807","1124084","0.0-4.0-8.91","false","92","2.349999999999999","","",""
"2611.7999999821186","2","confid","","","html-slider-response","809","1127205","0.0-4.0-10.91-0.91","","","","Rate your confidence","1",""
"1.699999988079071","e","choice","left","e","experimental","816","1128991","0.0-4.0-8.92","true","93","2.4499999999999993","","",""
"2560.7999999821186","3","confid","","","html-slider-response","818","1132062","0.0-4.0-10.92-0.92","","","","Rate your confidence","1",""
"143.2000000178814","e","choice","right","i","experimental","825","1134027","0.0-4.0-8.93","false","94","2.4499999999999993","","",""
"2077.899999976158","3","confid","","","html-slider-response","827","1136610","0.0-4.0-10.93-0.93","","","","Rate your confidence","1",""
"455.30000001192093","i","choice","left","e","experimental","834","1138861","0.0-4.0-8.94","false","95","2.5499999999999994","","",""
"2047.5","3","confid","","","html-slider-response","836","1141425","0.0-4.0-10.94-0.94","","","","Rate your confidence","1",""
"312","i","choice","right","i","experimental","843","1143530","0.0-4.0-8.95","true","96","2.6499999999999995","","",""
"2897.300000011921","4","confid","","","html-slider-response","845","1146936","0.0-4.0-10.95-0.95","","","","Rate your confidence","1",""
"270.09999999403954","e","choice","left","e","experimental","852","1148991","0.0-4.0-8.96","true","97","2.6499999999999995","","",""
"2818.800000011921","3","confid","","","html-slider-response","854","1152333","0.0-4.0-10.96-0.96","","","","Rate your confidence","1",""
"271.19999998807907","i","choice","right","i","experimental","861","1154400","0.0-4.0-8.97","true","98","2.5499999999999994","","",""
"2180.899999976158","3","confid","","","html-slider-response","863","1157096","0.0-4.0-10.97-0.97","","","","Rate your confidence","1",""
"401.59999999403954","e","choice","right","i","experimental","870","1159304","0.0-4.0-8.98","false","99","2.5499999999999994","","",""
"2730.800000011921","3","confid","","","html-slider-response","872","1162551","0.0-4.0-10.98-0.98","","","","Rate your confidence","1",""
"700.7000000178814","i","choice","left","e","experimental","879","1165042","0.0-4.0-8.99","false","100","2.6499999999999995","","",""
"4109.699999988079","3","confid","","","html-slider-response","881","1169665","0.0-4.0-10.99-0.99","","","","Rate your confidence","1",""
"18.799999982118607","e","choice","right","i","experimental","888","1171498","0.0-4.0-8.100","false","101","2.7499999999999996","","",""
"3296.7000000178814","3","confid","","","html-slider-response","890","1175307","0.0-4.0-10.100-0.100","","","","Rate your confidence","1",""
"681.1000000238419","e","choice","left","e","experimental","897","1177760","0.0-4.0-8.101","true","102","2.8499999999999996","","",""
"2485.9000000059605","2","confid","","","html-slider-response","899","1180760","0.0-4.0-10.101-0.101","","","","Rate your confidence","1",""
"2286.5999999940395","e","choice","left","e","experimental","906","1184842","0.0-4.0-8.102","true","103","2.8499999999999996","","",""
"2631.2000000178814","4","confid","","","html-slider-response","908","1187980","0.0-4.0-10.102-0.102","","","","Rate your confidence","1",""
"565.7000000178814","e","choice","right","i","experimental","915","1190329","0.0-4.0-8.103","false","104","2.7499999999999996","","",""
"4909.899999976158","4","confid","","","html-slider-response","917","1195748","0.0-4.0-10.103-0.103","","","","Rate your confidence","1",""
"456","e","choice","left","e","experimental","924","1198002","0.0-4.0-8.104","true","105","2.8499999999999996","","",""
"3244.5","4","confid","","","html-slider-response","926","1201749","0.0-4.0-10.104-0.104","","","","Rate your confidence","1",""
"431.90000000596046","i","choice","right","i","experimental","933","1203985","0.0-4.0-8.105","true","106","2.8499999999999996","","",""
"2897.4000000059605","4","confid","","","html-slider-response","935","1207390","0.0-4.0-10.105-0.105","","","","Rate your confidence","1",""
"0.19999998807907104","e","choice","left","e","experimental","942","1209186","0.0-4.0-8.106","true","107","2.7499999999999996","","",""
"2928.0999999940395","4","confid","","","html-slider-response","944","1212623","0.0-4.0-10.106-0.106","","","","Rate your confidence","1",""
"527.0999999940395","i","choice","right","i","experimental","951","1214944","0.0-4.0-8.107","true","108","2.7499999999999996","","",""
"3993","4","confid","","","html-slider-response","953","1219450","0.0-4.0-10.107-0.107","","","","Rate your confidence","1",""
"111.2000000178814","e","choice","left","e","experimental","960","1221356","0.0-4.0-8.108","true","109","2.6499999999999995","","",""
"2489.4000000059605","4","confid","","","html-slider-response","962","1224352","0.0-4.0-10.108-0.108","","","","Rate your confidence","1",""
"516.3000000119209","e","choice","right","i","experimental","969","1226658","0.0-4.0-8.109","false","110","2.6499999999999995","","",""
"1760.9000000059605","3","confid","","","html-slider-response","971","1228930","0.0-4.0-10.109-0.109","","","","Rate your confidence","1",""
"497.7000000178814","i","choice","left","e","experimental","979","1308274","0.0-4.0-8.110","false","111","2.7499999999999996","","",""
"3571.800000011921","3","confid","","","html-slider-response","981","1312351","0.0-4.0-10.110-0.110","","","","Rate your confidence","1",""
"556.3000000119209","i","choice","right","i","experimental","988","1314691","0.0-4.0-8.111","true","112","2.8499999999999996","","",""
"2525.5999999940395","3","confid","","","html-slider-response","990","1317733","0.0-4.0-10.111-0.111","","","","Rate your confidence","1",""
"395.40000000596046","i","choice","right","i","experimental","997","1319917","0.0-4.0-8.112","true","113","2.8499999999999996","","",""
"2721.699999988079","3","confid","","","html-slider-response","999","1323143","0.0-4.0-10.112-0.112","","","","Rate your confidence","1",""
"329.59999999403954","e","choice","left","e","experimental","1006","1325260","0.0-4.0-8.113","true","114","2.7499999999999996","","",""
"2841.9000000059605","3","confid","","","html-slider-response","1008","1328613","0.0-4.0-10.113-0.113","","","","Rate your confidence","1",""
"364.19999998807907","i","choice","right","i","experimental","1015","1330768","0.0-4.0-8.114","true","115","2.7499999999999996","","",""
"1788.9000000059605","3","confid","","","html-slider-response","1017","1333060","0.0-4.0-10.114-0.114","","","","Rate your confidence","1",""
"503.40000000596046","e","choice","left","e","experimental","1024","1335367","0.0-4.0-8.115","true","116","2.6499999999999995","","",""
"2243.399999976158","3","confid","","","html-slider-response","1026","1338117","0.0-4.0-10.115-0.115","","","","Rate your confidence","1",""
"239.5","e","choice","right","i","experimental","1033","1340157","0.0-4.0-8.116","false","117","2.6499999999999995","","",""
"2530.2999999821186","3","confid","","","html-slider-response","1035","1343204","0.0-4.0-10.116-0.116","","","","Rate your confidence","1",""
"419.59999999403954","i","choice","left","e","experimental","1042","1345410","0.0-4.0-8.117","false","118","2.7499999999999996","","",""
"1751.5","3","confid","","","html-slider-response","1044","1347672","0.0-4.0-10.117-0.117","","","","Rate your confidence","1",""
"427.89999997615814","i","choice","right","i","experimental","1051","1349890","0.0-4.0-8.118","true","119","2.8499999999999996","","",""
"3764.2000000178814","3","confid","","","html-slider-response","1053","1354169","0.0-4.0-10.118-0.118","","","","Rate your confidence","1",""
"108.19999998807907","e","choice","left","e","experimental","1060","1356053","0.0-4.0-8.119","true","120","2.8499999999999996","","",""
"2197.800000011921","3","confid","","","html-slider-response","1062","1358760","0.0-4.0-10.119-0.119","","","","Rate your confidence","1",""
"170.59999999403954","e","choice","left","e","experimental","1069","1360724","0.0-4.0-8.120","true","121","2.7499999999999996","","",""
"2075.5","3","confid","","","html-slider-response","1071","1363308","0.0-4.0-10.120-0.120","","","","Rate your confidence","1",""
"420.40000000596046","i","choice","right","i","experimental","1078","1365536","0.0-4.0-8.121","true","122","2.7499999999999996","","",""
"2033.300000011921","3","confid","","","html-slider-response","1080","1368072","0.0-4.0-10.121-0.121","","","","Rate your confidence","1",""
"347.30000001192093","e","choice","right","i","experimental","1087","1370222","0.0-4.0-8.122","false","123","2.6499999999999995","","",""
"2355.5","3","confid","","","html-slider-response","1089","1373082","0.0-4.0-10.122-0.122","","","","Rate your confidence","1",""
"239","e","choice","left","e","experimental","1096","1375111","0.0-4.0-8.123","true","124","2.7499999999999996","","",""
"2425.100000023842","4","confid","","","html-slider-response","1098","1378040","0.0-4.0-10.123-0.123","","","","Rate your confidence","1",""
"228.69999998807907","e","choice","left","e","experimental","1105","1380060","0.0-4.0-8.124","true","125","2.7499999999999996","","",""
"2126.5","5","confid","","","html-slider-response","1107","1382690","0.0-4.0-10.124-0.124","","","","Rate your confidence","1",""
"322.40000000596046","i","choice","right","i","experimental","1114","1384819","0.0-4.0-8.125","true","126","2.6499999999999995","","",""
"2021.5999999940395","4","confid","","","html-slider-response","1116","1387353","0.0-4.0-10.125-0.125","","","","Rate your confidence","1",""
"470.90000000596046","e","choice","left","e","experimental","1123","1389609","0.0-4.0-8.126","true","127","2.6499999999999995","","",""
"2583.5999999940395","3","confid","","","html-slider-response","1125","1392699","0.0-4.0-10.126-0.126","","","","Rate your confidence","1",""
"397.10000002384186","i","choice","right","i","experimental","1132","1394906","0.0-4.0-8.127","true","128","2.5499999999999994","","",""
"2176.4000000059605","3","confid","","","html-slider-response","1134","1397594","0.0-4.0-10.127-0.127","","","","Rate your confidence","1",""
"349.19999998807907","e","choice","right","i","experimental","1141","1399729","0.0-4.0-8.128","false","129","2.5499999999999994","","",""
"2083.7000000178814","3","confid","","","html-slider-response","1143","1402329","0.0-4.0-10.128-0.128","","","","Rate your confidence","1",""
"160.80000001192093","e","choice","left","e","experimental","1150","1404269","0.0-4.0-8.129","true","130","2.6499999999999995","","",""
"2684.600000023842","3","confid","","","html-slider-response","1152","1407460","0.0-4.0-10.129-0.129","","","","Rate your confidence","1",""
"283.80000001192093","e","choice","left","e","experimental","1159","1409562","0.0-4.0-8.130","true","131","2.6499999999999995","","",""
"1989.2000000178814","3","confid","","","html-slider-response","1161","1412059","0.0-4.0-10.130-0.130","","","","Rate your confidence","1",""
"499.69999998807907","e","choice","right","i","experimental","1168","1414336","0.0-4.0-8.131","false","132","2.5499999999999994","","",""
"2621.300000011921","3","confid","","","html-slider-response","1170","1417463","0.0-4.0-10.131-0.131","","","","Rate your confidence","1",""
"440.2000000178814","e","choice","left","e","experimental","1177","1419705","0.0-4.0-8.132","true","133","2.6499999999999995","","",""
"2420.5","3","confid","","","html-slider-response","1179","1422636","0.0-4.0-10.132-0.132","","","","Rate your confidence","1",""
"70.40000000596046","e","choice","right","i","experimental","1186","1424489","0.0-4.0-8.133","false","134","2.6499999999999995","","",""
"2738.9000000059605","3","confid","","","html-slider-response","1188","1427730","0.0-4.0-10.133-0.133","","","","Rate your confidence","1",""
"21","e","choice","left","e","experimental","1195","1429536","0.0-4.0-8.134","true","135","2.7499999999999996","","",""
"2725.7999999821186","3","confid","","","html-slider-response","1197","1432767","0.0-4.0-10.134-0.134","","","","Rate your confidence","1",""
"254.09999999403954","i","choice","right","i","experimental","1204","1434823","0.0-4.0-8.135","true","136","2.7499999999999996","","",""
"2500.5999999940395","5","confid","","","html-slider-response","1206","1437834","0.0-4.0-10.135-0.135","","","","Rate your confidence","1",""
"199.30000001192093","e","choice","left","e","experimental","1213","1439830","0.0-4.0-8.136","true","137","2.6499999999999995","","",""
"2023.4000000059605","5","confid","","","html-slider-response","1215","1442362","0.0-4.0-10.136-0.136","","","","Rate your confidence","1",""
"200.5","i","choice","right","i","experimental","1222","1444367","0.0-4.0-8.137","true","138","2.6499999999999995","","",""
"2356","4","confid","","","html-slider-response","1224","1447233","0.0-4.0-10.137-0.137","","","","Rate your confidence","1",""
"71.09999999403954","e","choice","right","i","experimental","1231","1449085","0.0-4.0-8.138","false","139","2.5499999999999994","","",""
"3371.0999999940395","3","confid","","","html-slider-response","1233","1452960","0.0-4.0-10.138-0.138","","","","Rate your confidence","1",""
"57.400000005960464","e","choice","left","e","experimental","1240","1454812","0.0-4.0-8.139","true","140","2.6499999999999995","","",""
"2597.9000000059605","3","confid","","","html-slider-response","1242","1457926","0.0-4.0-10.139-0.139","","","","Rate your confidence","1",""
"73.40000000596046","e","choice","left","e","experimental","1249","1459800","0.0-4.0-8.140","true","141","2.6499999999999995","","",""
"3135.300000011921","3","confid","","","html-slider-response","1251","1463450","0.0-4.0-10.140-0.140","","","","Rate your confidence","1",""
"382.19999998807907","i","choice","right","i","experimental","1258","1465615","0.0-4.0-8.141","true","142","2.5499999999999994","","",""
"3239.4000000059605","3","confid","","","html-slider-response","1260","1469364","0.0-4.0-10.141-0.141","","","","Rate your confidence","1",""
"141.90000000596046","e","choice","right","i","experimental","1267","1471298","0.0-4.0-8.142","false","143","2.5499999999999994","","",""
"3588.0999999940395","3","confid","","","html-slider-response","1269","1475393","0.0-4.0-10.142-0.142","","","","Rate your confidence","1",""
"661.3000000119209","e","choice","left","e","experimental","1276","1477864","0.0-4.0-8.143","true","144","2.6499999999999995","","",""
"2034.9000000059605","4","confid","","","html-slider-response","1278","1480402","0.0-4.0-10.143-0.143","","","","Rate your confidence","1",""
"370.09999999403954","e","choice","left","e","experimental","1285","1482550","0.0-4.0-8.144","true","145","2.6499999999999995","","",""
"2124","3","confid","","","html-slider-response","1287","1485181","0.0-4.0-10.144-0.144","","","","Rate your confidence","1",""
"392.59999999403954","e","choice","right","i","experimental","1294","1487381","0.0-4.0-8.145","false","146","2.5499999999999994","","",""
"2302.800000011921","4","confid","","","html-slider-response","1296","1490190","0.0-4.0-10.145-0.145","","","","Rate your confidence","1",""
"511.60000002384186","i","choice","right","i","experimental","1303","1492503","0.0-4.0-8.146","true","147","2.6499999999999995","","",""
"1608.0999999940395","4","confid","","","html-slider-response","1305","1494624","0.0-4.0-10.146-0.146","","","","Rate your confidence","1",""
"151","e","choice","left","e","experimental","1312","1496573","0.0-4.0-8.147","true","148","2.6499999999999995","","",""
"2321","4","confid","","","html-slider-response","1314","1499411","0.0-4.0-10.147-0.147","","","","Rate your confidence","1",""
"285.30000001192093","e","choice","right","i","experimental","1321","1501489","0.0-4.0-8.148","false","149","2.5499999999999994","","",""
"2817.4000000059605","4","confid","","","html-slider-response","1323","1504814","0.0-4.0-10.148-0.148","","","","Rate your confidence","1",""
"155.40000000596046","e","choice","left","e","experimental","1330","1506765","0.0-4.0-8.149","true","150","2.6499999999999995","","",""
"1787","3","confid","","","html-slider-response","1332","1509069","0.0-4.0-10.149-0.149","","","","Rate your confidence","1",""
"529.6999999880791","i","choice","right","i","experimental","1339","1511389","0.0-4.0-8.150","true","151","2.6499999999999995","","",""
"3351.699999988079","4","confid","","","html-slider-response","1341","1515248","0.0-4.0-10.150-0.150","","","","Rate your confidence","1",""
"57.400000005960464","e","choice","left","e","experimental","1348","1517087","0.0-4.0-8.151","true","152","2.5499999999999994","","",""
"1769.1000000238419","3","confid","","","html-slider-response","1350","1519366","0.0-4.0-10.151-0.151","","","","Rate your confidence","1",""
"283","e","choice","left","e","experimental","1358","1523007","0.0-4.0-8.152","true","153","2.5499999999999994","","",""
"1838.2000000178814","4","confid","","","html-slider-response","1360","1525351","0.0-4.0-10.152-0.152","","","","Rate your confidence","1",""
"400.80000001192093","i","choice","right","i","experimental","1367","1527546","0.0-4.0-8.153","true","154","2.4499999999999993","","",""
"1396.800000011921","3","confid","","","html-slider-response","1369","1529453","0.0-4.0-10.153-0.153","","","","Rate your confidence","1",""
"149","e","choice","right","i","experimental","1376","1531388","0.0-4.0-8.154","false","155","2.4499999999999993","","",""
"2025.300000011921","4","confid","","","html-slider-response","1378","1533930","0.0-4.0-10.154-0.154","","","","Rate your confidence","1",""
"19.299999982118607","e","choice","left","e","experimental","1385","1535746","0.0-4.0-8.155","true","156","2.5499999999999994","","",""
"1458.9000000059605","3","confid","","","html-slider-response","1387","1537716","0.0-4.0-10.155-0.155","","","","Rate your confidence","1",""
"344.90000000596046","e","choice","right","i","experimental","1394","1539859","0.0-4.0-8.156","false","157","2.5499999999999994","","",""
"2196.300000011921","4","confid","","","html-slider-response","1396","1542560","0.0-4.0-10.156-0.156","","","","Rate your confidence","1",""
"327.69999998807907","e","choice","left","e","experimental","1403","1544690","0.0-4.0-8.157","true","158","2.6499999999999995","","",""
"2701.800000011921","4","confid","","","html-slider-response","1405","1547901","0.0-4.0-10.157-0.157","","","","Rate your confidence","1",""
"382.90000000596046","e","choice","right","i","experimental","1412","1550087","0.0-4.0-8.158","false","159","2.6499999999999995","","",""
"1818.300000011921","4","confid","","","html-slider-response","1414","1552421","0.0-4.0-10.158-0.158","","","","Rate your confidence","1",""
"814.5999999940395","i","choice","left","e","experimental","1421","1555033","0.0-4.0-8.159","false","160","2.7499999999999996","","",""
"2406.699999988079","4","confid","","","html-slider-response","1423","1557964","0.0-4.0-10.159-0.159","","","","Rate your confidence","1",""
"260.40000000596046","e","choice","right","i","experimental","1430","1560006","0.0-4.0-8.160","false","161","2.8499999999999996","","",""
"2809.600000023842","4","confid","","","html-slider-response","1432","1563331","0.0-4.0-10.160-0.160","","","","Rate your confidence","1",""
"117.40000000596046","e","choice","left","e","experimental","1439","1565239","0.0-4.0-8.161","true","162","2.9499999999999997","","",""
"2568.7000000178814","4","confid","","","html-slider-response","1441","1568326","0.0-4.0-10.161-0.161","","","","Rate your confidence","1",""
"219.5","e","choice","left","e","experimental","1448","1570346","0.0-4.0-8.162","true","163","2.9499999999999997","","",""
"3532.199999988079","4","confid","","","html-slider-response","1450","1574384","0.0-4.0-10.162-0.162","","","","Rate your confidence","1",""
"365.40000000596046","i","choice","right","i","experimental","1457","1576544","0.0-4.0-8.163","true","164","2.8499999999999996","","",""
"1865.0999999940395","4","confid","","","html-slider-response","1459","1578919","0.0-4.0-10.163-0.163","","","","Rate your confidence","1",""
"330.7000000178814","e","choice","right","i","experimental","1466","1581040","0.0-4.0-8.164","false","165","2.8499999999999996","","",""
"2796.699999988079","3","confid","","","html-slider-response","1468","1584344","0.0-4.0-10.164-0.164","","","","Rate your confidence","1",""
"280.10000002384186","e","choice","left","e","experimental","1475","1586414","0.0-4.0-8.165","true","166","2.9499999999999997","","",""
"1753.5","4","confid","","","html-slider-response","1477","1588677","0.0-4.0-10.165-0.165","","","","Rate your confidence","1",""
"438.19999998807907","i","choice","right","i","experimental","1484","1590897","0.0-4.0-8.166","true","167","2.9499999999999997","","",""
"1861.300000011921","3","confid","","","html-slider-response","1486","1593262","0.0-4.0-10.166-0.166","","","","Rate your confidence","1",""
"460","e","choice","left","e","experimental","1493","1595531","0.0-4.0-8.167","true","168","2.8499999999999996","","",""
"2259.4000000059605","4","confid","","","html-slider-response","1495","1598307","0.0-4.0-10.167-0.167","","","","Rate your confidence","1",""
"354.39999997615814","e","choice","left","e","experimental","1502","1600448","0.0-4.0-8.168","true","169","2.8499999999999996","","",""
"2663.5999999940395","3","confid","","","html-slider-response","1504","1603626","0.0-4.0-10.168-0.168","","","","Rate your confidence","1",""
"560.1999999880791","i","choice","right","i","experimental","1511","1605975","0.0-4.0-8.169","true","170","2.7499999999999996","","",""
"2458.5","4","confid","","","html-slider-response","1513","1608951","0.0-4.0-10.169-0.169","","","","Rate your confidence","1",""
"212.90000000596046","e","choice","left","e","experimental","1520","1610954","0.0-4.0-8.170","true","171","2.7499999999999996","","",""
"1704.8999999761581","4","confid","","","html-slider-response","1522","1613177","0.0-4.0-10.170-0.170","","","","Rate your confidence","1",""
"572.5","i","choice","right","i","experimental","1529","1615555","0.0-4.0-8.171","true","172","2.6499999999999995","","",""
"3015.9000000059605","3","confid","","","html-slider-response","1531","1619077","0.0-4.0-10.171-0.171","","","","Rate your confidence","1",""
"421.5","e","choice","left","e","experimental","1538","1621307","0.0-4.0-8.172","true","173","2.6499999999999995","","",""
"2015.4000000059605","5","confid","","","html-slider-response","1540","1623835","0.0-4.0-10.172-0.172","","","","Rate your confidence","1",""
"151.09999999403954","i","choice","right","i","experimental","1547","1625769","0.0-4.0-8.173","true","174","2.5499999999999994","","",""
"1845.4000000059605","4","confid","","","html-slider-response","1549","1628117","0.0-4.0-10.173-0.173","","","","Rate your confidence","1",""
"740.4000000059605","i","choice","right","i","experimental","1556","1630638","0.0-4.0-8.174","true","175","2.5499999999999994","","",""
"2264.399999976158","3","confid","","","html-slider-response","1558","1633413","0.0-4.0-10.174-0.174","","","","Rate your confidence","1",""
"797.2000000178814","e","choice","left","e","experimental","1565","1636008","0.0-4.0-8.175","true","176","2.4499999999999993","","",""
"2550.0999999940395","4","confid","","","html-slider-response","1567","1639075","0.0-4.0-10.175-0.175","","","","Rate your confidence","1",""
"185","i","choice","right","i","experimental","1574","1641048","0.0-4.0-8.176","true","177","2.4499999999999993","","",""
"2579.7999999821186","3","confid","","","html-slider-response","1576","1644140","0.0-4.0-10.176-0.176","","","","Rate your confidence","1",""
"385.60000002384186","i","choice","left","e","experimental","1583","1646340","0.0-4.0-8.177","false","178","2.349999999999999","","",""
"2084.0999999940395","3","confid","","","html-slider-response","1585","1648939","0.0-4.0-10.177-0.177","","","","Rate your confidence","1",""
"627.3000000119209","i","choice","right","i","experimental","1592","1651357","0.0-4.0-8.178","true","179","2.4499999999999993","","",""
"2539.699999988079","3","confid","","","html-slider-response","1594","1654401","0.0-4.0-10.178-0.178","","","","Rate your confidence","1",""
"466.7999999821186","e","choice","left","e","experimental","1601","1656673","0.0-4.0-8.179","true","180","2.4499999999999993","","",""
"2522.5","3","confid","","","html-slider-response","1603","1659704","0.0-4.0-10.179-0.179","","","","Rate your confidence","1",""
"414.19999998807907","i","choice","right","i","experimental","1610","1661939","0.0-4.0-8.180","true","181","2.349999999999999","","",""
"1747.300000011921","3","confid","","","html-slider-response","1612","1664202","0.0-4.0-10.180-0.180","","","","Rate your confidence","1",""
"804","e","choice","left","e","experimental","1619","1666782","0.0-4.0-8.181","true","182","2.349999999999999","","",""
"2432.0999999940395","4","confid","","","html-slider-response","1621","1669728","0.0-4.0-10.181-0.181","","","","Rate your confidence","1",""
"396.5","e","choice","right","i","experimental","1628","1671900","0.0-4.0-8.182","false","183","2.249999999999999","","",""
"4019.2000000178814","3","confid","","","html-slider-response","1630","1676426","0.0-4.0-10.182-0.182","","","","Rate your confidence","1",""
"385.40000000596046","i","choice","left","e","experimental","1637","1678593","0.0-4.0-8.183","false","184","2.349999999999999","","",""
"3205.300000011921","4","confid","","","html-slider-response","1639","1682311","0.0-4.0-10.183-0.183","","","","Rate your confidence","1",""
"47.900000005960464","e","choice","left","e","experimental","1646","1684155","0.0-4.0-8.184","true","185","2.4499999999999993","","",""
"2930.899999976158","3","confid","","","html-slider-response","1648","1687594","0.0-4.0-10.184-0.184","","","","Rate your confidence","1",""
"176.59999999403954","i","choice","right","i","experimental","1655","1689592","0.0-4.0-8.185","true","186","2.4499999999999993","","",""
"2390.4000000059605","3","confid","","","html-slider-response","1657","1692487","0.0-4.0-10.185-0.185","","","","Rate your confidence","1",""
"476.90000000596046","i","choice","left","e","experimental","1664","1694769","0.0-4.0-8.186","false","187","2.349999999999999","","",""
"2892","4","confid","","","html-slider-response","1666","1698172","0.0-4.0-10.186-0.186","","","","Rate your confidence","1",""
"556.9000000059605","i","choice","right","i","experimental","1673","1700507","0.0-4.0-8.187","true","188","2.4499999999999993","","",""
"2594.5","3","confid","","","html-slider-response","1675","1703612","0.0-4.0-10.187-0.187","","","","Rate your confidence","1",""
"114.59999999403954","e","choice","left","e","experimental","1682","1705530","0.0-4.0-8.188","true","189","2.4499999999999993","","",""
"2105.7000000178814","4","confid","","","html-slider-response","1684","1708139","0.0-4.0-10.188-0.188","","","","Rate your confidence","1",""
"958.6999999880791","i","choice","right","i","experimental","1691","1710883","0.0-4.0-8.189","true","190","2.349999999999999","","",""
"1717.2999999821186","3","confid","","","html-slider-response","1693","1713111","0.0-4.0-10.189-0.189","","","","Rate your confidence","1",""
"570.1999999880791","e","choice","left","e","experimental","1700","1715489","0.0-4.0-8.190","true","191","2.349999999999999","","",""
"1999","3","confid","","","html-slider-response","1702","1718004","0.0-4.0-10.190-0.190","","","","Rate your confidence","1",""
"714.1999999880791","i","choice","right","i","experimental","1709","1720522","0.0-4.0-8.191","true","192","2.249999999999999","","",""
"2034.4000000059605","3","confid","","","html-slider-response","1711","1723063","0.0-4.0-10.191-0.191","","","","Rate your confidence","1",""
"552","e","choice","left","e","experimental","1718","1725415","0.0-4.0-8.192","true","193","2.249999999999999","","",""
"2669","3","confid","","","html-slider-response","1720","1728589","0.0-4.0-10.192-0.192","","","","Rate your confidence","1",""
"149.09999999403954","e","choice","right","i","experimental","1727","1730519","0.0-4.0-8.193","false","194","2.149999999999999","","",""
"4273.0999999940395","3","confid","","","html-slider-response","1729","1735301","0.0-4.0-10.193-0.193","","","","Rate your confidence","1","93071"
