"rt","response","task","target_side","correct_response","trial_type","trial_index","time_elapsed","internal_node_id","correct","trial_number","n_dots","stimulus","slider_start","participant"
"1098.5","i","choice","right","i","practice","10","26143","0.0-4.0-8.0","true","1","4.25","","",""
"421.5999999999767","e","choice","left","e","practice","18","28926","0.0-4.0-8.1","true","2","4.25","","",""
"823.3999999999942","e","choice","left","e","practice","26","32084","0.0-4.0-8.2","true","3","3.85","","",""
"1228.1999999999825","i","choice","right","i","practice","34","35691","0.0-4.0-8.3","true","4","3.85","","",""
"343.0999999999767","e","choice","left","e","practice","42","38368","0.0-4.0-8.4","true","5","3.45","","",""
"865.3999999999942","i","choice","right","i","practice","50","41557","0.0-4.0-8.5","true","6","3.45","","",""
"387.5","e","choice","left","e","practice","58","44291","0.0-4.0-8.6","true","7","3.25","","",""
"1064.2999999999884","i","choice","right","i","practice","66","47717","0.0-4.0-8.7","true","8","3.25","","",""
"423.70000000001164","e","choice","right","i","practice","74","50475","0.0-4.0-8.8","false","9","3.05","","",""
"550.8999999999942","i","choice","left","e","practice","82","53345","0.0-4.0-8.9","false","10","3.25","","",""
"262.9000000000233","e","choice","left","e","practice","90","55918","0.0-4.0-8.10","true","11","3.45","","",""
"71.40000000002328","i","choice","right","i","practice","98","58329","0.0-4.0-8.11","true","12","3.45","","",""
"277","e","choice","left","e","practice","106","60913","0.0-4.0-8.12","true","13","3.35","","",""
"551.1000000000058","e","choice","right","i","practice","114","63785","0.0-4.0-8.13","false","14","3.35","","",""
"938.1999999999825","i","choice","left","e","practice","122","67041","0.0-4.0-8.14","false","15","3.45","","",""
"372.3999999999942","i","choice","right","i","practice","130","69749","0.0-4.0-8.15","true","16","3.5500000000000003","","",""
"318.20000000001164","e","choice","left","e","practice","138","72378","0.0-4.0-8.16","true","17","3.5500000000000003","","",""
"208.30000000001746","i","choice","right","i","practice","146","74911","0.0-4.0-8.17","true","18","3.45","","",""
"264.79999999998836","i","choice","right","i","practice","154","77510","0.0-4.0-8.18","true","19","3.45","","",""
"399","e","choice","left","e","practice","162","80259","0.0-4.0-8.19","true","20","3.35","","",""
"535.7000000000116","e","choice","left","e","practice","170","83108","0.0-4.0-8.20","true","21","3.35","","",""
"253.5","i","choice","right","i","practice","178","85704","0.0-4.0-8.21","true","22","3.25","","",""
"542.8999999999942","i","choice","right","i","practice","186","88599","0.0-4.0-8.22","true","23","3.25","","",""
"272.79999999998836","e","choice","left","e","practice","194","91202","0.0-4.0-8.23","true","24","3.15","","",""
"1671.1000000000058","i","choice","right","i","practice","202","95221","0.0-4.0-8.24","true","25","3.15","","",""
"369.8999999999942","e","choice","left","e","practice","210","97929","0.0-4.0-8.25","true","26","3.05","","",""
"452.9000000000233","i","choice","right","i","experimental","221","125642","0.0-4.0-8.26","true","27","3.05","","",""
"2307.9000000000233","4","confid","","","html-slider-response","223","128461","0.0-4.0-10.26-0.26","","","","Rate your confidence","1",""
"368.30000000004657","e","choice","left","e","experimental","230","130650","0.0-4.0-8.27","true","28","2.9499999999999997","","",""
"2046.399999999965","5","confid","","","html-slider-response","232","133203","0.0-4.0-10.27-0.27","","","","Rate your confidence","1",""
"418.20000000001164","i","choice","left","e","experimental","239","135443","0.0-4.0-8.28","false","29","2.9499999999999997","","",""
"3167.7999999999884","3","confid","","","html-slider-response","241","139119","0.0-4.0-10.28-0.28","","","","Rate your confidence","1",""
"559.5999999999767","e","choice","right","i","experimental","248","141503","0.0-4.0-8.29","false","30","3.05","","",""
"1978.2999999999884","4","confid","","","html-slider-response","250","143990","0.0-4.0-10.29-0.29","","","","Rate your confidence","1",""
"280.5","i","choice","right","i","experimental","257","146073","0.0-4.0-8.30","true","31","3.15","","",""
"2392.6999999999534","5","confid","","","html-slider-response","259","148978","0.0-4.0-10.30-0.30","","","","Rate your confidence","1",""
"488.20000000001164","e","choice","left","e","experimental","266","151280","0.0-4.0-8.31","true","32","3.15","","",""
"3976.399999999965","4","confid","","","html-slider-response","268","155765","0.0-4.0-10.31-0.31","","","","Rate your confidence","1",""
"261.5","i","choice","right","i","experimental","275","157874","0.0-4.0-8.32","true","33","3.05","","",""
"2114.0999999999767","3","confid","","","html-slider-response","277","160500","0.0-4.0-10.32-0.32","","","","Rate your confidence","1",""
"229.5","e","choice","left","e","experimental","284","162566","0.0-4.0-8.33","true","34","3.05","","",""
"5504.700000000012","5","confid","","","html-slider-response","286","168582","0.0-4.0-10.33-0.33","","","","Rate your confidence","1",""
"632","i","choice","right","i","experimental","293","171019","0.0-4.0-8.34","true","35","2.9499999999999997","","",""
"1756.9000000000233","5","confid","","","html-slider-response","295","173288","0.0-4.0-10.34-0.34","","","","Rate your confidence","1",""
"326.70000000001164","e","choice","left","e","experimental","302","175426","0.0-4.0-8.35","true","36","2.9499999999999997","","",""
"2100.2000000000116","6","confid","","","html-slider-response","304","178039","0.0-4.0-10.35-0.35","","","","Rate your confidence","1",""
"362.20000000001164","i","choice","left","e","experimental","311","180219","0.0-4.0-8.36","false","37","2.8499999999999996","","",""
"2357.7999999999884","5","confid","","","html-slider-response","313","183084","0.0-4.0-10.36-0.36","","","","Rate your confidence","1",""
"248.59999999997672","i","choice","right","i","experimental","320","185151","0.0-4.0-8.37","true","38","2.9499999999999997","","",""
"3487.5999999999767","6","confid","","","html-slider-response","322","189151","0.0-4.0-10.37-0.37","","","","Rate your confidence","1",""
"321.5","e","choice","right","i","experimental","329","191284","0.0-4.0-8.38","false","39","2.9499999999999997","","",""
"2999.7000000000116","4","confid","","","html-slider-response","331","194794","0.0-4.0-10.38-0.38","","","","Rate your confidence","1",""
"514","e","choice","left","e","experimental","338","197113","0.0-4.0-8.39","true","40","3.05","","",""
"2001.3000000000466","5","confid","","","html-slider-response","340","199630","0.0-4.0-10.39-0.39","","","","Rate your confidence","1",""
"621.2000000000116","i","choice","left","e","experimental","347","202077","0.0-4.0-8.40","false","41","3.05","","",""
"2768.4000000000233","2","confid","","","html-slider-response","349","205350","0.0-4.0-10.40-0.40","","","","Rate your confidence","1",""
"465.29999999998836","i","choice","right","i","experimental","356","207641","0.0-4.0-8.41","true","42","3.15","","",""
"1837.5","3","confid","","","html-slider-response","358","209985","0.0-4.0-10.41-0.41","","","","Rate your confidence","1",""
"278.20000000001164","e","choice","left","e","experimental","365","212092","0.0-4.0-8.42","true","43","3.15","","",""
"2675.2999999999884","5","confid","","","html-slider-response","367","215281","0.0-4.0-10.42-0.42","","","","Rate your confidence","1",""
"304.9000000000233","i","choice","right","i","experimental","374","217404","0.0-4.0-8.43","true","44","3.05","","",""
"2243.5999999999767","4","confid","","","html-slider-response","376","220153","0.0-4.0-10.43-0.43","","","","Rate your confidence","1",""
"299.9000000000233","e","choice","left","e","experimental","383","222273","0.0-4.0-8.44","true","45","3.05","","",""
"1812","5","confid","","","html-slider-response","385","224600","0.0-4.0-10.44-0.44","","","","Rate your confidence","1",""
"389.29999999998836","i","choice","right","i","experimental","392","226812","0.0-4.0-8.45","true","46","2.9499999999999997","","",""
"1827.100000000035","3","confid","","","html-slider-response","394","229148","0.0-4.0-10.45-0.45","","","","Rate your confidence","1",""
"263.3999999999651","e","choice","left","e","experimental","401","231240","0.0-4.0-8.46","true","47","2.9499999999999997","","",""
"2261.5","6","confid","","","html-slider-response","403","234006","0.0-4.0-10.46-0.46","","","","Rate your confidence","1",""
"373.5999999999767","i","choice","right","i","experimental","410","236216","0.0-4.0-8.47","true","48","2.8499999999999996","","",""
"2128.7999999999884","6","confid","","","html-slider-response","412","238856","0.0-4.0-10.47-0.47","","","","Rate your confidence","1",""
"433.69999999995343","e","choice","left","e","experimental","419","241117","0.0-4.0-8.48","true","49","2.8499999999999996","","",""
"1370.5","5","confid","","","html-slider-response","421","243008","0.0-4.0-10.48-0.48","","","","Rate your confidence","1",""
"327.30000000004657","e","choice","right","i","experimental","428","245166","0.0-4.0-8.49","false","50","2.7499999999999996","","",""
"7169.200000000012","3","confid","","","html-slider-response","430","252840","0.0-4.0-10.49-0.49","","","","Rate your confidence","1",""
"524.3999999999651","e","choice","right","i","experimental","437","255182","0.0-4.0-8.50","false","51","2.8499999999999996","","",""
"2109","3","confid","","","html-slider-response","439","257798","0.0-4.0-10.50-0.50","","","","Rate your confidence","1",""
"295.8999999999651","e","choice","left","e","experimental","446","259899","0.0-4.0-8.51","true","52","2.9499999999999997","","",""
"1907.2000000000116","6","confid","","","html-slider-response","448","262317","0.0-4.0-10.51-0.51","","","","Rate your confidence","1",""
"276.6000000000349","e","choice","left","e","experimental","455","264411","0.0-4.0-8.52","true","53","2.9499999999999997","","",""
"2158.4000000000233","4","confid","","","html-slider-response","457","267088","0.0-4.0-10.52-0.52","","","","Rate your confidence","1",""
"537.1999999999534","i","choice","right","i","experimental","464","269436","0.0-4.0-8.53","true","54","2.8499999999999996","","",""
"1625.7999999999884","3","confid","","","html-slider-response","466","271572","0.0-4.0-10.53-0.53","","","","Rate your confidence","1",""
"725.4000000000233","e","choice","right","i","experimental","473","274150","0.0-4.0-8.54","false","55","2.8499999999999996","","",""
"2469.2000000000116","3","confid","","","html-slider-response","475","277127","0.0-4.0-10.54-0.54","","","","Rate your confidence","1",""
"1198.7999999999884","i","choice","left","e","experimental","482","280161","0.0-4.0-8.55","false","56","2.9499999999999997","","",""
"3024.0999999999767","1","confid","","","html-slider-response","484","283692","0.0-4.0-10.55-0.55","","","","Rate your confidence","1",""
"453.9000000000233","e","choice","left","e","experimental","491","285969","0.0-4.0-8.56","true","57","3.05","","",""
"1948.5999999999767","1","confid","","","html-slider-response","493","288426","0.0-4.0-10.56-0.56","","","","Rate your confidence","1",""
"391.5999999999767","i","choice","right","i","experimental","500","290644","0.0-4.0-8.57","true","58","3.05","","",""
"2293.899999999965","6","confid","","","html-slider-response","502","293451","0.0-4.0-10.57-0.57","","","","Rate your confidence","1",""
"430","i","choice","right","i","experimental","509","295705","0.0-4.0-8.58","true","59","2.9499999999999997","","",""
"3459","6","confid","","","html-slider-response","511","299683","0.0-4.0-10.58-0.58","","","","Rate your confidence","1",""
"1857.5999999999767","e","choice","left","e","experimental","518","303356","0.0-4.0-8.59","true","60","2.9499999999999997","","",""
"1905.6999999999534","2","confid","","","html-slider-response","520","305769","0.0-4.0-10.59-0.59","","","","Rate your confidence","1",""
"1354.1999999999534","e","choice","left","e","experimental","527","308947","0.0-4.0-8.60","true","61","2.8499999999999996","","",""
"2429.5","2","confid","","","html-slider-response","529","311886","0.0-4.0-10.60-0.60","","","","Rate your confidence","1",""
"860.9000000000233","i","choice","right","i","experimental","536","314581","0.0-4.0-8.61","true","62","2.8499999999999996","","",""
"5000.300000000047","3","confid","","","html-slider-response","538","320099","0.0-4.0-10.61-0.61","","","","Rate your confidence","1",""
"447.5999999999767","i","choice","right","i","experimental","545","322367","0.0-4.0-8.62","true","63","2.7499999999999996","","",""
"2725.600000000035","4","confid","","","html-slider-response","547","325613","0.0-4.0-10.62-0.62","","","","Rate your confidence","1",""
"287.8999999999651","e","choice","left","e","experimental","554","327717","0.0-4.0-8.63","true","64","2.7499999999999996","","",""
"2546.399999999965","6","confid","","","html-slider-response","556","330774","0.0-4.0-10.63-0.63","","","","Rate your confidence","1",""
"553.7999999999884","i","choice","left","e","experimental","563","333145","0.0-4.0-8.64","false","65","2.6499999999999995","","",""
"1981.7000000000116","3","confid","","","html-slider-response","565","335644","0.0-4.0-10.64-0.64","","","","Rate your confidence","1",""
"497.80000000004657","i","choice","right","i","experimental","572","337965","0.0-4.0-8.65","true","66","2.7499999999999996","","",""
"2368","3","confid","","","html-slider-response","574","340839","0.0-4.0-10.65-0.65","","","","Rate your confidence","1",""
"283.80000000004657","i","choice","right","i","experimental","581","342942","0.0-4.0-8.66","true","67","2.7499999999999996","","",""
"4856.100000000035","4","confid","","","html-slider-response","583","348310","0.0-4.0-10.66-0.66","","","","Rate your confidence","1",""
"366.4000000000233","e","choice","left","e","experimental","590","350480","0.0-4.0-8.67","true","68","2.6499999999999995","","",""
"2362.5","5","confid","","","html-slider-response","592","353348","0.0-4.0-10.67-0.67","","","","Rate your confidence","1",""
"312.70000000001164","e","choice","left","e","experimental","600","371808","0.0-4.0-8.68","true","69","2.6499999999999995","","",""
"2865.4000000000233","4","confid","","","html-slider-response","602","375194","0.0-4.0-10.68-0.68","","","","Rate your confidence","1",""
"886.4000000000233","i","choice","right","i","experimental","609","377915","0.0-4.0-8.69","true","70","2.5499999999999994","","",""
"2407.2999999999884","3","confid","","","html-slider-response","611","380830","0.0-4.0-10.69-0.69","","","","Rate your confidence","1",""
"778.3000000000466","e","choice","left","e","experimental","618","383442","0.0-4.0-8.70","true","71","2.5499999999999994","","",""
"1973.6999999999534","4","confid","","","html-slider-response","620","385923","0.0-4.0-10.70-0.70","","","","Rate your confidence","1",""
"486.39999999990687","i","choice","right","i","experimental","627","388246","0.0-4.0-8.71","true","72","2.4499999999999993","","",""
"2786.899999999907","4","confid","","","html-slider-response","629","391552","0.0-4.0-10.71-0.71","","","","Rate your confidence","1",""
"283.9000000000233","i","choice","right","i","experimental","636","393658","0.0-4.0-8.72","true","73","2.4499999999999993","","",""
"1747.5","3","confid","","","html-slider-response","638","395926","0.0-4.0-10.72-0.72","","","","Rate your confidence","1",""
"495.60000000009313","e","choice","left","e","experimental","645","398236","0.0-4.0-8.73","true","74","2.349999999999999","","",""
"2884.79999999993","3","confid","","","html-slider-response","647","401627","0.0-4.0-10.73-0.73","","","","Rate your confidence","1",""
"448.79999999993015","i","choice","right","i","experimental","654","403887","0.0-4.0-8.74","true","75","2.349999999999999","","",""
"2680.600000000093","4","confid","","","html-slider-response","656","407075","0.0-4.0-10.74-0.74","","","","Rate your confidence","1",""
"368.70000000006985","i","choice","left","e","experimental","663","409287","0.0-4.0-8.75","false","76","2.249999999999999","","",""
"2084.5","4","confid","","","html-slider-response","665","411875","0.0-4.0-10.75-0.75","","","","Rate your confidence","1",""
"501.5999999999767","i","choice","right","i","experimental","672","414204","0.0-4.0-8.76","true","77","2.349999999999999","","",""
"1944.2000000000698","4","confid","","","html-slider-response","674","416654","0.0-4.0-10.76-0.76","","","","Rate your confidence","1",""
"499.29999999993015","i","choice","left","e","experimental","681","418980","0.0-4.0-8.77","false","78","2.349999999999999","","",""
"1963","5","confid","","","html-slider-response","683","421455","0.0-4.0-10.77-0.77","","","","Rate your confidence","1",""
"410.0999999999767","i","choice","left","e","experimental","690","423677","0.0-4.0-8.78","false","79","2.4499999999999993","","",""
"1996.2999999999302","3","confid","","","html-slider-response","692","426184","0.0-4.0-10.78-0.78","","","","Rate your confidence","1",""
"614.3999999999069","e","choice","right","i","experimental","699","428615","0.0-4.0-8.79","false","80","2.5499999999999994","","",""
"3992.9000000000233","3","confid","","","html-slider-response","701","433114","0.0-4.0-10.79-0.79","","","","Rate your confidence","1",""
"328.20000000006985","e","choice","left","e","experimental","708","435265","0.0-4.0-8.80","true","81","2.6499999999999995","","",""
"2716.0999999999767","6","confid","","","html-slider-response","710","438492","0.0-4.0-10.80-0.80","","","","Rate your confidence","1",""
"1757.7000000000698","i","choice","right","i","experimental","717","442084","0.0-4.0-8.81","true","82","2.6499999999999995","","",""
"2683","1","confid","","","html-slider-response","719","445285","0.0-4.0-10.81-0.81","","","","Rate your confidence","1",""
"774.1999999999534","e","choice","left","e","experimental","726","447887","0.0-4.0-8.82","true","83","2.5499999999999994","","",""
"2770.5","4","confid","","","html-slider-response","728","451172","0.0-4.0-10.82-0.82","","","","Rate your confidence","1",""
"419.39999999990687","i","choice","right","i","experimental","735","453430","0.0-4.0-8.83","true","84","2.5499999999999994","","",""
"2373.5","4","confid","","","html-slider-response","737","456318","0.0-4.0-10.83-0.83","","","","Rate your confidence","1",""
"415","i","choice","left","e","experimental","744","458567","0.0-4.0-8.84","false","85","2.4499999999999993","","",""
"2501.6999999999534","2","confid","","","html-slider-response","746","461579","0.0-4.0-10.84-0.84","","","","Rate your confidence","1",""
"571.5","i","choice","right","i","experimental","753","463975","0.0-4.0-8.85","true","86","2.5499999999999994","","",""
"1714.5","2","confid","","","html-slider-response","755","466199","0.0-4.0-10.85-0.85","","","","Rate your confidence","1",""
"487.30000000004657","i","choice","left","e","experimental","762","468515","0.0-4.0-8.86","false","87","2.5499999999999994","","",""
"1881.3999999999069","5","confid","","","html-slider-response","764","470904","0.0-4.0-10.86-0.86","","","","Rate your confidence","1",""
"295.9000000000233","i","choice","right","i","experimental","771","473015","0.0-4.0-8.87","true","88","2.6499999999999995","","",""
"2236.1999999999534","6","confid","","","html-slider-response","773","475757","0.0-4.0-10.87-0.87","","","","Rate your confidence","1",""
"679.3000000000466","e","choice","left","e","experimental","780","478249","0.0-4.0-8.88","true","89","2.6499999999999995","","",""
"2321.1999999999534","1","confid","","","html-slider-response","782","481082","0.0-4.0-10.88-0.88","","","","Rate your confidence","1",""
"345.9000000000233","i","choice","right","i","experimental","789","483262","0.0-4.0-8.89","true","90","2.5499999999999994","","",""
"1627.1999999999534","2","confid","","","html-slider-response","791","485401","0.0-4.0-10.89-0.89","","","","Rate your confidence","1",""
"316.10000000009313","i","choice","left","e","experimental","798","487558","0.0-4.0-8.90","false","91","2.5499999999999994","","",""
"1620.8000000000466","4","confid","","","html-slider-response","800","489683","0.0-4.0-10.90-0.90","","","","Rate your confidence","1",""
"285.19999999995343","i","choice","right","i","experimental","807","491775","0.0-4.0-8.91","true","92","2.6499999999999995","","",""
"1916.3000000000466","5","confid","","","html-slider-response","809","494196","0.0-4.0-10.91-0.91","","","","Rate your confidence","1",""
"282.79999999993015","e","choice","right","i","experimental","816","496306","0.0-4.0-8.92","false","93","2.6499999999999995","","",""
"1806.6000000000931","4","confid","","","html-slider-response","818","498637","0.0-4.0-10.92-0.92","","","","Rate your confidence","1",""
"380","e","choice","left","e","experimental","825","500836","0.0-4.0-8.93","true","94","2.7499999999999996","","",""
"1753.1999999999534","6","confid","","","html-slider-response","827","503099","0.0-4.0-10.93-0.93","","","","Rate your confidence","1",""
"333.29999999993015","e","choice","left","e","experimental","834","505244","0.0-4.0-8.94","true","95","2.7499999999999996","","",""
"1997.2999999999302","2","confid","","","html-slider-response","836","507750","0.0-4.0-10.94-0.94","","","","Rate your confidence","1",""
"486.29999999993015","e","choice","right","i","experimental","843","510049","0.0-4.0-8.95","false","96","2.6499999999999995","","",""
"2453.799999999872","2","confid","","","html-slider-response","845","513010","0.0-4.0-10.95-0.95","","","","Rate your confidence","1",""
"733.9000000000233","e","choice","left","e","experimental","852","515563","0.0-4.0-8.96","true","97","2.7499999999999996","","",""
"2776.899999999907","2","confid","","","html-slider-response","854","518846","0.0-4.0-10.96-0.96","","","","Rate your confidence","1",""
"538.7999999999302","e","choice","right","i","experimental","861","521202","0.0-4.0-8.97","false","98","2.7499999999999996","","",""
"3714.29999999993","1","confid","","","html-slider-response","863","525432","0.0-4.0-10.97-0.97","","","","Rate your confidence","1",""
"598.5","i","choice","right","i","experimental","870","527836","0.0-4.0-8.98","true","99","2.8499999999999996","","",""
"7872","2","confid","","","html-slider-response","872","536220","0.0-4.0-10.98-0.98","","","","Rate your confidence","1",""
"6047.099999999977","e","choice","left","e","experimental","879","544093","0.0-4.0-8.99","true","100","2.8499999999999996","","",""
"9201.599999999977","1","confid","","","html-slider-response","881","553814","0.0-4.0-10.99-0.99","","","","Rate your confidence","1",""
"606.2000000000698","e","choice","left","e","experimental","888","556243","0.0-4.0-8.100","true","101","2.7499999999999996","","",""
"3306.5","2","confid","","","html-slider-response","890","560054","0.0-4.0-10.100-0.100","","","","Rate your confidence","1",""
"837.5","i","choice","right","i","experimental","897","562713","0.0-4.0-8.101","true","102","2.7499999999999996","","",""
"3215.8000000000466","2","confid","","","html-slider-response","899","566447","0.0-4.0-10.101-0.101","","","","Rate your confidence","1",""
"488.5","i","choice","right","i","experimental","906","568744","0.0-4.0-8.102","true","103","2.6499999999999995","","",""
"1797.6999999999534","3","confid","","","html-slider-response","908","571051","0.0-4.0-10.102-0.102","","","","Rate your confidence","1",""
"616.0999999999767","e","choice","left","e","experimental","915","573501","0.0-4.0-8.103","true","104","2.6499999999999995","","",""
"4553.099999999977","2","confid","","","html-slider-response","917","578566","0.0-4.0-10.103-0.103","","","","Rate your confidence","1",""
"1087.6999999999534","e","choice","left","e","experimental","924","581483","0.0-4.0-8.104","true","105","2.5499999999999994","","",""
"2064","4","confid","","","html-slider-response","926","584051","0.0-4.0-10.104-0.104","","","","Rate your confidence","1",""
"349.89999999990687","i","choice","right","i","experimental","933","586243","0.0-4.0-8.105","true","106","2.5499999999999994","","",""
"4495.599999999977","3","confid","","","html-slider-response","935","591249","0.0-4.0-10.105-0.105","","","","Rate your confidence","1",""
"791.9000000000233","i","choice","left","e","experimental","942","593886","0.0-4.0-8.106","false","107","2.4499999999999993","","",""
"2121.4000000000233","4","confid","","","html-slider-response","944","596518","0.0-4.0-10.106-0.106","","","","Rate your confidence","1",""
"376.79999999993015","e","choice","right","i","experimental","951","598716","0.0-4.0-8.107","false","108","2.5499999999999994","","",""
"2301.4000000000233","4","confid","","","html-slider-response","953","601528","0.0-4.0-10.107-0.107","","","","Rate your confidence","1",""
"414.80000000004657","i","choice","left","e","experimental","960","603754","0.0-4.0-8.108","false","109","2.6499999999999995","","",""
"2439.5999999999767","5","confid","","","html-slider-response","962","606703","0.0-4.0-10.108-0.108","","","","Rate your confidence","1",""
"479.5","i","choice","right","i","experimental","969","609000","0.0-4.0-8.109","true","110","2.7499999999999996","","",""
"1939.6999999999534","5","confid","","","html-slider-response","971","611461","0.0-4.0-10.109-0.109","","","","Rate your confidence","1",""
"308.69999999995343","e","choice","left","e","experimental","979","621831","0.0-4.0-8.110","true","111","2.7499999999999996","","",""
"3490.6999999999534","5","confid","","","html-slider-response","981","625831","0.0-4.0-10.110-0.110","","","","Rate your confidence","1",""
"322.29999999993015","i","choice","right","i","experimental","988","627981","0.0-4.0-8.111","true","112","2.6499999999999995","","",""
"2307.20000000007","6","confid","","","html-slider-response","990","630797","0.0-4.0-10.111-0.111","","","","Rate your confidence","1",""
"110.5","e","choice","left","e","experimental","997","632743","0.0-4.0-8.112","true","113","2.6499999999999995","","",""
"3223.20000000007","6","confid","","","html-slider-response","999","636485","0.0-4.0-10.112-0.112","","","","Rate your confidence","1",""
"246.69999999995343","i","choice","right","i","experimental","1006","638543","0.0-4.0-8.113","true","114","2.5499999999999994","","",""
"2451.70000000007","5","confid","","","html-slider-response","1008","641502","0.0-4.0-10.113-0.113","","","","Rate your confidence","1",""
"378.70000000006985","i","choice","right","i","experimental","1015","643696","0.0-4.0-8.114","true","115","2.5499999999999994","","",""
"2015.9000000000233","5","confid","","","html-slider-response","1017","646223","0.0-4.0-10.114-0.114","","","","Rate your confidence","1",""
"554.7999999999302","i","choice","left","e","experimental","1024","648631","0.0-4.0-8.115","false","116","2.4499999999999993","","",""
"3106.79999999993","4","confid","","","html-slider-response","1026","652248","0.0-4.0-10.115-0.115","","","","Rate your confidence","1",""
"291.4000000000233","i","choice","left","e","experimental","1033","654366","0.0-4.0-8.116","false","117","2.5499999999999994","","",""
"2474.4000000000233","3","confid","","","html-slider-response","1035","657359","0.0-4.0-10.116-0.116","","","","Rate your confidence","1",""
"291.5999999999767","i","choice","right","i","experimental","1042","659456","0.0-4.0-8.117","true","118","2.6499999999999995","","",""
"3089.0999999999767","5","confid","","","html-slider-response","1044","663052","0.0-4.0-10.117-0.117","","","","Rate your confidence","1",""
"364.0999999999767","e","choice","right","i","experimental","1051","665222","0.0-4.0-8.118","false","119","2.6499999999999995","","",""
"1615.5999999999767","5","confid","","","html-slider-response","1053","667349","0.0-4.0-10.118-0.118","","","","Rate your confidence","1",""
"666.5","i","choice","left","e","experimental","1060","669859","0.0-4.0-8.119","false","120","2.7499999999999996","","",""
"2466","2","confid","","","html-slider-response","1062","672833","0.0-4.0-10.119-0.119","","","","Rate your confidence","1",""
"302.5999999999767","e","choice","left","e","experimental","1069","674948","0.0-4.0-8.120","true","121","2.8499999999999996","","",""
"3312.1999999999534","6","confid","","","html-slider-response","1071","678765","0.0-4.0-10.120-0.120","","","","Rate your confidence","1",""
"840.5999999999767","i","choice","right","i","experimental","1078","681429","0.0-4.0-8.121","true","122","2.8499999999999996","","",""
"2311.29999999993","1","confid","","","html-slider-response","1080","684250","0.0-4.0-10.121-0.121","","","","Rate your confidence","1",""
"978.4000000000233","i","choice","right","i","experimental","1087","687020","0.0-4.0-8.122","true","123","2.7499999999999996","","",""
"2281.8000000000466","2","confid","","","html-slider-response","1089","689813","0.0-4.0-10.122-0.122","","","","Rate your confidence","1",""
"631.5","e","choice","left","e","experimental","1096","692271","0.0-4.0-8.123","true","124","2.7499999999999996","","",""
"2882.5999999999767","1","confid","","","html-slider-response","1098","695671","0.0-4.0-10.123-0.123","","","","Rate your confidence","1",""
"382.5999999999767","i","choice","right","i","experimental","1105","697897","0.0-4.0-8.124","true","125","2.6499999999999995","","",""
"2147.5","4","confid","","","html-slider-response","1107","700552","0.0-4.0-10.124-0.124","","","","Rate your confidence","1",""
"432.5","i","choice","left","e","experimental","1114","702824","0.0-4.0-8.125","false","126","2.6499999999999995","","",""
"1950.8000000000466","5","confid","","","html-slider-response","1116","705281","0.0-4.0-10.125-0.125","","","","Rate your confidence","1",""
"375.4000000000233","i","choice","left","e","experimental","1123","707468","0.0-4.0-8.126","false","127","2.7499999999999996","","",""
"1909.2999999999302","3","confid","","","html-slider-response","1125","709894","0.0-4.0-10.126-0.126","","","","Rate your confidence","1",""
"316.19999999995343","i","choice","right","i","experimental","1132","712035","0.0-4.0-8.127","true","128","2.8499999999999996","","",""
"1853","5","confid","","","html-slider-response","1134","714394","0.0-4.0-10.127-0.127","","","","Rate your confidence","1",""
"458.39999999990687","i","choice","right","i","experimental","1141","716703","0.0-4.0-8.128","true","129","2.8499999999999996","","",""
"4364.599999999977","4","confid","","","html-slider-response","1143","721579","0.0-4.0-10.128-0.128","","","","Rate your confidence","1",""
"389.29999999993015","i","choice","left","e","experimental","1150","723805","0.0-4.0-8.129","false","130","2.7499999999999996","","",""
"1601","4","confid","","","html-slider-response","1152","725911","0.0-4.0-10.129-0.129","","","","Rate your confidence","1",""
"405.39999999990687","i","choice","right","i","experimental","1159","728132","0.0-4.0-8.130","true","131","2.8499999999999996","","",""
"3469.0999999999767","5","confid","","","html-slider-response","1161","732112","0.0-4.0-10.130-0.130","","","","Rate your confidence","1",""
"500.69999999995343","i","choice","left","e","experimental","1168","734431","0.0-4.0-8.131","false","132","2.8499999999999996","","",""
"2525.29999999993","4","confid","","","html-slider-response","1170","737466","0.0-4.0-10.131-0.131","","","","Rate your confidence","1",""
"277.30000000004657","i","choice","right","i","experimental","1177","739560","0.0-4.0-8.132","true","133","2.9499999999999997","","",""
"1657.1999999999534","6","confid","","","html-slider-response","1179","741727","0.0-4.0-10.132-0.132","","","","Rate your confidence","1",""
"1423.6999999999534","i","choice","left","e","experimental","1186","744990","0.0-4.0-8.133","false","134","2.9499999999999997","","",""
"1672.5999999999767","1","confid","","","html-slider-response","1188","747176","0.0-4.0-10.133-0.133","","","","Rate your confidence","1",""
"441.79999999993015","e","choice","left","e","experimental","1195","749443","0.0-4.0-8.134","true","135","3.05","","",""
"2662.5","2","confid","","","html-slider-response","1197","752617","0.0-4.0-10.134-0.134","","","","Rate your confidence","1",""
"2767.5999999999767","i","choice","right","i","experimental","1204","757188","0.0-4.0-8.135","true","136","3.05","","",""
"2164.1999999999534","1","confid","","","html-slider-response","1206","759863","0.0-4.0-10.135-0.135","","","","Rate your confidence","1",""
"436.5","e","choice","right","i","experimental","1213","762136","0.0-4.0-8.136","false","137","2.9499999999999997","","",""
"2563.5999999999767","5","confid","","","html-slider-response","1215","765219","0.0-4.0-10.136-0.136","","","","Rate your confidence","1",""
"289.39999999990687","e","choice","left","e","experimental","1222","767352","0.0-4.0-8.137","true","138","3.05","","",""
"2435.29999999993","6","confid","","","html-slider-response","1224","770300","0.0-4.0-10.137-0.137","","","","Rate your confidence","1",""
"1045.6999999999534","i","choice","right","i","experimental","1231","773158","0.0-4.0-8.138","true","139","3.05","","",""
"2155.20000000007","3","confid","","","html-slider-response","1233","775826","0.0-4.0-10.138-0.138","","","","Rate your confidence","1",""
"281.69999999995343","i","choice","left","e","experimental","1240","777940","0.0-4.0-8.139","false","140","2.9499999999999997","","",""
"4884.70000000007","3","confid","","","html-slider-response","1242","783335","0.0-4.0-10.139-0.139","","","","Rate your confidence","1",""
"314.5999999999767","e","choice","left","e","experimental","1249","785478","0.0-4.0-8.140","true","141","3.05","","",""
"1648.7999999999302","4","confid","","","html-slider-response","1251","787645","0.0-4.0-10.140-0.140","","","","Rate your confidence","1",""
"479.19999999995343","i","choice","right","i","experimental","1258","789938","0.0-4.0-8.141","true","142","3.05","","",""
"2254","4","confid","","","html-slider-response","1260","792697","0.0-4.0-10.141-0.141","","","","Rate your confidence","1",""
"700.4000000000233","e","choice","left","e","experimental","1267","795347","0.0-4.0-8.142","true","143","2.9499999999999997","","",""
"2235.399999999907","3","confid","","","html-slider-response","1269","798087","0.0-4.0-10.142-0.142","","","","Rate your confidence","1",""
"270.5","i","choice","right","i","experimental","1276","800218","0.0-4.0-8.143","true","144","2.9499999999999997","","",""
"2038.5","6","confid","","","html-slider-response","1278","802772","0.0-4.0-10.143-0.143","","","","Rate your confidence","1",""
"242.5","i","choice","right","i","experimental","1285","804832","0.0-4.0-8.144","true","145","2.8499999999999996","","",""
"2437.1999999999534","6","confid","","","html-slider-response","1287","807775","0.0-4.0-10.144-0.144","","","","Rate your confidence","1",""
"267.0999999999767","i","choice","left","e","experimental","1294","809886","0.0-4.0-8.145","false","146","2.8499999999999996","","",""
"1890.5999999999767","5","confid","","","html-slider-response","1296","812289","0.0-4.0-10.145-0.145","","","","Rate your confidence","1",""
"504.30000000004657","e","choice","left","e","experimental","1303","814629","0.0-4.0-8.146","true","147","2.9499999999999997","","",""
"2106","3","confid","","","html-slider-response","1305","817241","0.0-4.0-10.146-0.146","","","","Rate your confidence","1",""
"1618.3000000000466","e","choice","right","i","experimental","1312","820692","0.0-4.0-8.147","false","148","2.9499999999999997","","",""
"3038.4000000000233","4","confid","","","html-slider-response","1314","824249","0.0-4.0-10.147-0.147","","","","Rate your confidence","1",""
"366.5","i","choice","right","i","experimental","1321","826465","0.0-4.0-8.148","true","149","3.05","","",""
"5835.400000000023","5","confid","","","html-slider-response","1323","832816","0.0-4.0-10.148-0.148","","","","Rate your confidence","1",""
"293.19999999995343","e","choice","left","e","experimental","1330","834919","0.0-4.0-8.149","true","150","3.05","","",""
"2109.5999999999767","4","confid","","","html-slider-response","1332","837537","0.0-4.0-10.149-0.149","","","","Rate your confidence","1",""
"356.20000000006985","i","choice","right","i","experimental","1339","839743","0.0-4.0-8.150","true","151","2.9499999999999997","","",""
"1837.5999999999767","5","confid","","","html-slider-response","1341","842093","0.0-4.0-10.150-0.150","","","","Rate your confidence","1",""
"493.5","i","choice","left","e","experimental","1348","844398","0.0-4.0-8.151","false","152","2.9499999999999997","","",""
"1489.2999999999302","3","confid","","","html-slider-response","1350","846406","0.0-4.0-10.151-0.151","","","","Rate your confidence","1",""
"183.29999999993015","i","choice","right","i","experimental","1358","882317","0.0-4.0-8.152","true","153","3.05","","",""
"2104.1999999999534","6","confid","","","html-slider-response","1360","884928","0.0-4.0-10.152-0.152","","","","Rate your confidence","1",""
"461.29999999993015","e","choice","left","e","experimental","1367","887230","0.0-4.0-8.153","true","154","3.05","","",""
"2827.20000000007","3","confid","","","html-slider-response","1369","890571","0.0-4.0-10.153-0.153","","","","Rate your confidence","1",""
"493.10000000009313","i","choice","right","i","experimental","1376","892884","0.0-4.0-8.154","true","155","2.9499999999999997","","",""
"2120.5","3","confid","","","html-slider-response","1378","895515","0.0-4.0-10.154-0.154","","","","Rate your confidence","1",""
"268.69999999995343","e","choice","left","e","experimental","1385","897603","0.0-4.0-8.155","true","156","2.9499999999999997","","",""
"1592.3000000000466","2","confid","","","html-slider-response","1387","899705","0.0-4.0-10.155-0.155","","","","Rate your confidence","1",""
"301.39999999990687","i","choice","right","i","experimental","1394","901858","0.0-4.0-8.156","true","157","2.8499999999999996","","",""
"2067.4000000000233","3","confid","","","html-slider-response","1396","904434","0.0-4.0-10.156-0.156","","","","Rate your confidence","1",""
"295.0999999999767","e","choice","left","e","experimental","1403","906575","0.0-4.0-8.157","true","158","2.8499999999999996","","",""
"3040.899999999907","4","confid","","","html-slider-response","1405","910127","0.0-4.0-10.157-0.157","","","","Rate your confidence","1",""
"496.5","e","choice","right","i","experimental","1412","912459","0.0-4.0-8.158","false","159","2.7499999999999996","","",""
"8065.5","4","confid","","","html-slider-response","1414","921038","0.0-4.0-10.158-0.158","","","","Rate your confidence","1",""
"1577.8999999999069","e","choice","left","e","experimental","1421","924446","0.0-4.0-8.159","true","160","2.8499999999999996","","",""
"3916","3","confid","","","html-slider-response","1423","928874","0.0-4.0-10.159-0.159","","","","Rate your confidence","1",""
"115.80000000004657","i","choice","right","i","experimental","1430","930836","0.0-4.0-8.160","true","161","2.8499999999999996","","",""
"1999","5","confid","","","html-slider-response","1432","933345","0.0-4.0-10.160-0.160","","","","Rate your confidence","1",""
"382.39999999990687","e","choice","left","e","experimental","1439","935584","0.0-4.0-8.161","true","162","2.7499999999999996","","",""
"1796.6999999999534","5","confid","","","html-slider-response","1441","937894","0.0-4.0-10.161-0.161","","","","Rate your confidence","1",""
"499.4000000001397","e","choice","left","e","experimental","1448","940211","0.0-4.0-8.162","true","163","2.7499999999999996","","",""
"3836.600000000093","4","confid","","","html-slider-response","1450","944565","0.0-4.0-10.162-0.162","","","","Rate your confidence","1",""
"2043.6999999999534","i","choice","right","i","experimental","1457","948419","0.0-4.0-8.163","true","164","2.6499999999999995","","",""
"17112.5","5","confid","","","html-slider-response","1459","966045","0.0-4.0-10.163-0.163","","","","Rate your confidence","1",""
"549.0999999998603","e","choice","left","e","experimental","1466","968420","0.0-4.0-8.164","true","165","2.6499999999999995","","",""
"3887.8000000000466","3","confid","","","html-slider-response","1468","972819","0.0-4.0-10.164-0.164","","","","Rate your confidence","1",""
"1040.1000000000931","i","choice","right","i","experimental","1475","975686","0.0-4.0-8.165","true","166","2.5499999999999994","","",""
"8032","2","confid","","","html-slider-response","1477","984225","0.0-4.0-10.165-0.165","","","","Rate your confidence","1",""
"344.0999999998603","e","choice","right","i","experimental","1484","986405","0.0-4.0-8.166","false","167","2.5499999999999994","","",""
"5966.199999999953","4","confid","","","html-slider-response","1486","992885","0.0-4.0-10.166-0.166","","","","Rate your confidence","1",""
"455.5","i","choice","left","e","experimental","1493","995174","0.0-4.0-8.167","false","168","2.6499999999999995","","",""
"4173.699999999953","3","confid","","","html-slider-response","1495","999859","0.0-4.0-10.167-0.167","","","","Rate your confidence","1",""
"651","e","choice","right","i","experimental","1502","1002329","0.0-4.0-8.168","false","169","2.7499999999999996","","",""
"4205.299999999814","3","confid","","","html-slider-response","1504","1007050","0.0-4.0-10.168-0.168","","","","Rate your confidence","1",""
"478.39999999990687","e","choice","left","e","experimental","1511","1009340","0.0-4.0-8.169","true","170","2.8499999999999996","","",""
"6869","3","confid","","","html-slider-response","1513","1016718","0.0-4.0-10.169-0.169","","","","Rate your confidence","1",""
"593.2000000001863","e","choice","left","e","experimental","1520","1019151","0.0-4.0-8.170","true","171","2.8499999999999996","","",""
"2316","2","confid","","","html-slider-response","1522","1021980","0.0-4.0-10.170-0.170","","","","Rate your confidence","1",""
"540.1999999999534","i","choice","right","i","experimental","1529","1024370","0.0-4.0-8.171","true","172","2.7499999999999996","","",""
"2170.600000000093","2","confid","","","html-slider-response","1531","1027062","0.0-4.0-10.171-0.171","","","","Rate your confidence","1",""
"385.10000000009313","i","choice","right","i","experimental","1538","1029254","0.0-4.0-8.172","true","173","2.7499999999999996","","",""
"2695.2999999998137","5","confid","","","html-slider-response","1540","1032454","0.0-4.0-10.172-0.172","","","","Rate your confidence","1",""
"327.19999999995343","e","choice","left","e","experimental","1547","1034610","0.0-4.0-8.173","true","174","2.6499999999999995","","",""
"2001","6","confid","","","html-slider-response","1549","1037125","0.0-4.0-10.173-0.173","","","","Rate your confidence","1",""
"340.19999999995343","i","choice","right","i","experimental","1556","1039278","0.0-4.0-8.174","true","175","2.6499999999999995","","",""
"2509.600000000093","4","confid","","","html-slider-response","1558","1042293","0.0-4.0-10.174-0.174","","","","Rate your confidence","1",""
"417.5","i","choice","left","e","experimental","1565","1044524","0.0-4.0-8.175","false","176","2.5499999999999994","","",""
"1686.1999999999534","4","confid","","","html-slider-response","1567","1046719","0.0-4.0-10.175-0.175","","","","Rate your confidence","1",""
"273","i","choice","right","i","experimental","1574","1048843","0.0-4.0-8.176","true","177","2.6499999999999995","","",""
"2119.899999999907","5","confid","","","html-slider-response","1576","1051478","0.0-4.0-10.176-0.176","","","","Rate your confidence","1",""
"319.30000000004657","i","choice","left","e","experimental","1583","1053634","0.0-4.0-8.177","false","178","2.6499999999999995","","",""
"5159.600000000093","4","confid","","","html-slider-response","1585","1059308","0.0-4.0-10.177-0.177","","","","Rate your confidence","1",""
"361","e","choice","left","e","experimental","1592","1061487","0.0-4.0-8.178","true","179","2.7499999999999996","","",""
"3601.0999999998603","4","confid","","","html-slider-response","1594","1065599","0.0-4.0-10.178-0.178","","","","Rate your confidence","1",""
"677.6000000000931","e","choice","right","i","experimental","1601","1068107","0.0-4.0-8.179","false","180","2.7499999999999996","","",""
"1761","5","confid","","","html-slider-response","1603","1070379","0.0-4.0-10.179-0.179","","","","Rate your confidence","1",""
"287.19999999995343","i","choice","right","i","experimental","1610","1072495","0.0-4.0-8.180","true","181","2.8499999999999996","","",""
"1585.5999999998603","5","confid","","","html-slider-response","1612","1074604","0.0-4.0-10.180-0.180","","","","Rate your confidence","1",""
"605.6999999999534","i","choice","left","e","experimental","1619","1077029","0.0-4.0-8.181","false","182","2.8499999999999996","","",""
"2085.1999999999534","5","confid","","","html-slider-response","1621","1079627","0.0-4.0-10.181-0.181","","","","Rate your confidence","1",""
"373.60000000009313","i","choice","right","i","experimental","1628","1081858","0.0-4.0-8.182","true","183","2.9499999999999997","","",""
"1797","6","confid","","","html-slider-response","1630","1084168","0.0-4.0-10.182-0.182","","","","Rate your confidence","1",""
"663","e","choice","left","e","experimental","1637","1086675","0.0-4.0-8.183","true","184","2.9499999999999997","","",""
"1899.3999999999069","4","confid","","","html-slider-response","1639","1089084","0.0-4.0-10.183-0.183","","","","Rate your confidence","1",""
"352","i","choice","left","e","experimental","1646","1091237","0.0-4.0-8.184","false","185","2.8499999999999996","","",""
"1889","5","confid","","","html-slider-response","1648","1093633","0.0-4.0-10.184-0.184","","","","Rate your confidence","1",""
"526.1000000000931","e","choice","right","i","experimental","1655","1095980","0.0-4.0-8.185","false","186","2.9499999999999997","","",""
"3045.5","4","confid","","","html-slider-response","1657","1099536","0.0-4.0-10.185-0.185","","","","Rate your confidence","1",""
"354.5","i","choice","right","i","experimental","1664","1101705","0.0-4.0-8.186","true","187","3.05","","",""
"1980.0999999998603","5","confid","","","html-slider-response","1666","1104192","0.0-4.0-10.186-0.186","","","","Rate your confidence","1",""
"320.30000000004657","i","choice","left","e","experimental","1673","1106359","0.0-4.0-8.187","false","188","3.05","","",""
"2582.899999999907","6","confid","","","html-slider-response","1675","1109453","0.0-4.0-10.187-0.187","","","","Rate your confidence","1",""
"384.4000000001397","i","choice","right","i","experimental","1682","1111666","0.0-4.0-8.188","true","189","3.15","","",""
"5265.700000000186","6","confid","","","html-slider-response","1684","1117444","0.0-4.0-10.188-0.188","","","","Rate your confidence","1",""
"395.39999999990687","e","choice","left","e","experimental","1691","1119669","0.0-4.0-8.189","true","190","3.15","","",""
"2822.899999999907","4","confid","","","html-slider-response","1693","1123001","0.0-4.0-10.189-0.189","","","","Rate your confidence","1",""
"366","i","choice","left","e","experimental","1700","1125211","0.0-4.0-8.190","false","191","3.05","","",""
"3597.3000000000466","6","confid","","","html-slider-response","1702","1129327","0.0-4.0-10.190-0.190","","","","Rate your confidence","1",""
"373.10000000009313","i","choice","right","i","experimental","1709","1131525","0.0-4.0-8.191","true","192","3.15","","",""
"3316.9000000001397","4","confid","","","html-slider-response","1711","1135352","0.0-4.0-10.191-0.191","","","","Rate your confidence","1",""
"561.1999999999534","e","choice","right","i","experimental","1718","1137725","0.0-4.0-8.192","false","193","3.15","","",""
"1910.5","2","confid","","","html-slider-response","1720","1140152","0.0-4.0-10.192-0.192","","","","Rate your confidence","1",""
"486.60000000009313","e","choice","left","e","experimental","1727","1142485","0.0-4.0-8.193","true","194","3.25","","",""
"2436.5","6","confid","","","html-slider-response","1729","1145428","0.0-4.0-10.193-0.193","","","","Rate your confidence","1","57140"
