"rt","response","task","target_side","correct_response","trial_type","trial_index","time_elapsed","internal_node_id","correct","trial_number","n_dots","stimulus","slider_start","participant"
"1001.9000000953674","i","choice","left","e","practice","10","97826","0.0-4.0-8.0","false","1","4.25","","",""
"465","i","choice","right","i","practice","18","100595","0.0-4.0-8.1","true","2","4.65","","",""
"467.8000000715256","i","choice","right","i","practice","26","103369","0.0-4.0-8.2","true","3","4.65","","",""
"662.6000000238419","e","choice","left","e","practice","34","106370","0.0-4.0-8.3","true","4","4.25","","",""
"297.7000000476837","i","choice","right","i","practice","42","109010","0.0-4.0-8.4","true","5","4.25","","",""
"776","e","choice","left","e","practice","50","112094","0.0-4.0-8.5","true","6","3.85","","",""
"320.39999997615814","e","choice","left","e","practice","58","114713","0.0-4.0-8.6","true","7","3.85","","",""
"565","i","choice","right","i","practice","66","117582","0.0-4.0-8.7","true","8","3.65","","",""
"609.5999999046326","e","choice","left","e","practice","74","120532","0.0-4.0-8.8","true","9","3.65","","",""
"478.39999997615814","e","choice","right","i","practice","82","123301","0.0-4.0-8.9","false","10","3.4499999999999997","","",""
"398","e","choice","left","e","practice","90","126044","0.0-4.0-8.10","true","11","3.65","","",""
"350.89999997615814","e","choice","right","i","practice","98","128731","0.0-4.0-8.11","false","12","3.65","","",""
"479.39999997615814","e","choice","left","e","practice","106","131515","0.0-4.0-8.12","true","13","3.75","","",""
"546.5","i","choice","right","i","practice","114","134364","0.0-4.0-8.13","true","14","3.75","","",""
"430.2999999523163","i","choice","right","i","practice","122","137133","0.0-4.0-8.14","true","15","3.65","","",""
"325.39999997615814","e","choice","left","e","practice","130","139798","0.0-4.0-8.15","true","16","3.65","","",""
"409","i","choice","right","i","practice","138","142518","0.0-4.0-8.16","true","17","3.55","","",""
"247.89999997615814","e","choice","left","e","practice","146","145090","0.0-4.0-8.17","true","18","3.55","","",""
"545.8999999761581","i","choice","right","i","practice","154","147971","0.0-4.0-8.18","true","19","3.4499999999999997","","",""
"286.7999999523163","e","choice","left","e","practice","162","150562","0.0-4.0-8.19","true","20","3.4499999999999997","","",""
"117.89999997615814","e","choice","right","i","practice","170","153013","0.0-4.0-8.20","false","21","3.3499999999999996","","",""
"68.40000009536743","e","choice","left","e","practice","178","155418","0.0-4.0-8.21","true","22","3.4499999999999997","","",""
"361","e","choice","right","i","practice","186","158085","0.0-4.0-8.22","false","23","3.4499999999999997","","",""
"512.8999999761581","e","choice","left","e","practice","194","160928","0.0-4.0-8.23","true","24","3.55","","",""
"367.39999997615814","e","choice","left","e","practice","202","163638","0.0-4.0-8.24","true","25","3.55","","",""
"434.2000000476837","i","choice","right","i","practice","210","166419","0.0-4.0-8.25","true","26","3.4499999999999997","","",""
"873.2000000476837","i","choice","right","i","experimental","221","191466","0.0-4.0-8.26","true","27","3.4499999999999997","","",""
"4606","5","confid","","","html-slider-response","223","196585","0.0-4.0-10.26-0.26","","","","Rate your confidence","1",""
"960.5","e","choice","left","e","experimental","230","199352","0.0-4.0-8.27","true","28","3.3499999999999996","","",""
"3875.7999999523163","5","confid","","","html-slider-response","232","203735","0.0-4.0-10.27-0.27","","","","Rate your confidence","1",""
"898.5999999046326","e","choice","left","e","experimental","239","206463","0.0-4.0-8.28","true","29","3.3499999999999996","","",""
"2900.8000000715256","6","confid","","","html-slider-response","241","209873","0.0-4.0-10.28-0.28","","","","Rate your confidence","1",""
"1540.6000000238419","i","choice","right","i","experimental","248","213263","0.0-4.0-8.29","true","30","3.2499999999999996","","",""
"3325","3","confid","","","html-slider-response","250","217095","0.0-4.0-10.29-0.29","","","","Rate your confidence","1",""
"608.7000000476837","e","choice","left","e","experimental","257","219513","0.0-4.0-8.30","true","31","3.2499999999999996","","",""
"4753.400000095367","5","confid","","","html-slider-response","259","224774","0.0-4.0-10.30-0.30","","","","Rate your confidence","1",""
"725.6000000238419","e","choice","right","i","experimental","266","227303","0.0-4.0-8.31","false","32","3.1499999999999995","","",""
"3199.1999999284744","4","confid","","","html-slider-response","268","231043","0.0-4.0-10.31-0.31","","","","Rate your confidence","1",""
"891.6000000238419","e","choice","right","i","experimental","275","233739","0.0-4.0-8.32","false","33","3.2499999999999996","","",""
"3544.5","3","confid","","","html-slider-response","277","237789","0.0-4.0-10.32-0.32","","","","Rate your confidence","1",""
"660.7999999523163","e","choice","left","e","experimental","284","240257","0.0-4.0-8.33","true","34","3.3499999999999996","","",""
"4063.5","4","confid","","","html-slider-response","286","244829","0.0-4.0-10.33-0.33","","","","Rate your confidence","1",""
"408.89999997615814","e","choice","left","e","experimental","293","247081","0.0-4.0-8.34","true","35","3.3499999999999996","","",""
"2597.6999999284744","5","confid","","","html-slider-response","295","250186","0.0-4.0-10.34-0.34","","","","Rate your confidence","1",""
"1368","e","choice","right","i","experimental","302","253424","0.0-4.0-8.35","false","36","3.2499999999999996","","",""
"2693.2000000476837","2","confid","","","html-slider-response","304","256625","0.0-4.0-10.35-0.35","","","","Rate your confidence","1",""
"346.89999997615814","e","choice","left","e","experimental","311","258776","0.0-4.0-8.36","true","37","3.3499999999999996","","",""
"2920.2999999523163","3","confid","","","html-slider-response","313","262249","0.0-4.0-10.36-0.36","","","","Rate your confidence","1",""
"434.2999999523163","i","choice","right","i","experimental","320","264492","0.0-4.0-8.37","true","38","3.3499999999999996","","",""
"5149.5","2","confid","","","html-slider-response","322","270151","0.0-4.0-10.37-0.37","","","","Rate your confidence","1",""
"179.60000002384186","e","choice","left","e","experimental","329","272169","0.0-4.0-8.38","true","39","3.2499999999999996","","",""
"2963.399999976158","4","confid","","","html-slider-response","331","275641","0.0-4.0-10.38-0.38","","","","Rate your confidence","1",""
"472.3000000715256","i","choice","right","i","experimental","338","277957","0.0-4.0-8.39","true","40","3.2499999999999996","","",""
"2517.600000023842","2","confid","","","html-slider-response","340","280983","0.0-4.0-10.39-0.39","","","","Rate your confidence","1",""
"304.40000009536743","e","choice","left","e","experimental","347","283091","0.0-4.0-8.40","true","41","3.1499999999999995","","",""
"3121.2000000476837","3","confid","","","html-slider-response","349","286753","0.0-4.0-10.40-0.40","","","","Rate your confidence","1",""
"225.5","i","choice","right","i","experimental","356","288776","0.0-4.0-8.41","true","42","3.1499999999999995","","",""
"3767.1999999284744","4","confid","","","html-slider-response","358","293051","0.0-4.0-10.41-0.41","","","","Rate your confidence","1",""
"324.2000000476837","e","choice","left","e","experimental","365","295212","0.0-4.0-8.42","true","43","3.0499999999999994","","",""
"2934.600000023842","3","confid","","","html-slider-response","367","298655","0.0-4.0-10.42-0.42","","","","Rate your confidence","1",""
"258.59999990463257","e","choice","right","i","experimental","374","300762","0.0-4.0-8.43","false","44","3.0499999999999994","","",""
"3176","4","confid","","","html-slider-response","376","304447","0.0-4.0-10.43-0.43","","","","Rate your confidence","1",""
"507.5","i","choice","right","i","experimental","383","306761","0.0-4.0-8.44","true","45","3.1499999999999995","","",""
"2547.9000000953674","2","confid","","","html-slider-response","385","309850","0.0-4.0-10.44-0.44","","","","Rate your confidence","1",""
"186.79999995231628","e","choice","left","e","experimental","392","311847","0.0-4.0-8.45","true","46","3.1499999999999995","","",""
"2741.7999999523163","4","confid","","","html-slider-response","394","315097","0.0-4.0-10.45-0.45","","","","Rate your confidence","1",""
"472.60000002384186","i","choice","right","i","experimental","401","317417","0.0-4.0-8.46","true","47","3.0499999999999994","","",""
"2699.2999999523163","2","confid","","","html-slider-response","403","320625","0.0-4.0-10.46-0.46","","","","Rate your confidence","1",""
"261.40000009536743","e","choice","left","e","experimental","410","322734","0.0-4.0-8.47","true","48","3.0499999999999994","","",""
"2964.0999999046326","6","confid","","","html-slider-response","412","326206","0.0-4.0-10.47-0.47","","","","Rate your confidence","1",""
"1496.0999999046326","e","choice","right","i","experimental","419","329507","0.0-4.0-8.48","false","49","2.9499999999999993","","",""
"3191.7999999523163","3","confid","","","html-slider-response","421","333206","0.0-4.0-10.48-0.48","","","","Rate your confidence","1",""
"254.40000009536743","e","choice","left","e","experimental","428","335257","0.0-4.0-8.49","true","50","3.0499999999999994","","",""
"3784.600000023842","3","confid","","","html-slider-response","430","339549","0.0-4.0-10.49-0.49","","","","Rate your confidence","1",""
"281.10000002384186","i","choice","left","e","experimental","437","341662","0.0-4.0-8.50","false","51","3.0499999999999994","","",""
"2961","2","confid","","","html-slider-response","439","345130","0.0-4.0-10.50-0.50","","","","Rate your confidence","1",""
"410.40000009536743","i","choice","right","i","experimental","446","347378","0.0-4.0-8.51","true","52","3.1499999999999995","","",""
"3463.7000000476837","3","confid","","","html-slider-response","448","351350","0.0-4.0-10.51-0.51","","","","Rate your confidence","1",""
"276.2999999523163","e","choice","left","e","experimental","455","353470","0.0-4.0-8.52","true","53","3.1499999999999995","","",""
"2628.899999976158","3","confid","","","html-slider-response","457","356607","0.0-4.0-10.52-0.52","","","","Rate your confidence","1",""
"346.8000000715256","i","choice","right","i","experimental","464","358807","0.0-4.0-8.53","true","54","3.0499999999999994","","",""
"2651.7999999523163","3","confid","","","html-slider-response","466","361968","0.0-4.0-10.53-0.53","","","","Rate your confidence","1",""
"1101.7000000476837","i","choice","left","e","experimental","473","364872","0.0-4.0-8.54","false","55","3.0499999999999994","","",""
"3259","2","confid","","","html-slider-response","475","368636","0.0-4.0-10.54-0.54","","","","Rate your confidence","1",""
"854","i","choice","right","i","experimental","482","371298","0.0-4.0-8.55","true","56","3.1499999999999995","","",""
"19312","2","confid","","","html-slider-response","484","391117","0.0-4.0-10.55-0.55","","","","Rate your confidence","1",""
"277.3000000715256","i","choice","right","i","experimental","491","393239","0.0-4.0-8.56","true","57","3.1499999999999995","","",""
"3202.600000023842","3","confid","","","html-slider-response","493","396951","0.0-4.0-10.56-0.56","","","","Rate your confidence","1",""
"271.60000002384186","e","choice","left","e","experimental","500","399028","0.0-4.0-8.57","true","58","3.0499999999999994","","",""
"2475.2000000476837","3","confid","","","html-slider-response","502","402013","0.0-4.0-10.57-0.57","","","","Rate your confidence","1",""
"1445.7000000476837","e","choice","left","e","experimental","509","405265","0.0-4.0-8.58","true","59","3.0499999999999994","","",""
"3869.7999999523163","1","confid","","","html-slider-response","511","409642","0.0-4.0-10.58-0.58","","","","Rate your confidence","1",""
"264","i","choice","right","i","experimental","518","411711","0.0-4.0-8.59","true","60","2.9499999999999993","","",""
"4792.200000047684","4","confid","","","html-slider-response","520","417013","0.0-4.0-10.59-0.59","","","","Rate your confidence","1",""
"587.8999999761581","e","choice","right","i","experimental","527","419406","0.0-4.0-8.60","false","61","2.9499999999999993","","",""
"2269.899999976158","2","confid","","","html-slider-response","529","422186","0.0-4.0-10.60-0.60","","","","Rate your confidence","1",""
"631.8000000715256","e","choice","left","e","experimental","536","424650","0.0-4.0-8.61","true","62","3.0499999999999994","","",""
"1918.1000000238419","3","confid","","","html-slider-response","538","427076","0.0-4.0-10.61-0.61","","","","Rate your confidence","1",""
"344.60000002384186","i","choice","left","e","experimental","545","429260","0.0-4.0-8.62","false","63","3.0499999999999994","","",""
"2491.7000000476837","2","confid","","","html-slider-response","547","432261","0.0-4.0-10.62-0.62","","","","Rate your confidence","1",""
"281","i","choice","right","i","experimental","554","434343","0.0-4.0-8.63","true","64","3.1499999999999995","","",""
"2882.8000000715256","3","confid","","","html-slider-response","556","437735","0.0-4.0-10.63-0.63","","","","Rate your confidence","1",""
"275.3000000715256","i","choice","right","i","experimental","563","439849","0.0-4.0-8.64","true","65","3.1499999999999995","","",""
"1846.3999999761581","4","confid","","","html-slider-response","565","442203","0.0-4.0-10.64-0.64","","","","Rate your confidence","1",""
"268.2000000476837","i","choice","left","e","experimental","572","444276","0.0-4.0-8.65","false","66","3.0499999999999994","","",""
"2405.8000000715256","3","confid","","","html-slider-response","574","447189","0.0-4.0-10.65-0.65","","","","Rate your confidence","1",""
"351.60000002384186","i","choice","right","i","experimental","581","449366","0.0-4.0-8.66","true","67","3.1499999999999995","","",""
"1939.3000000715256","2","confid","","","html-slider-response","583","451813","0.0-4.0-10.66-0.66","","","","Rate your confidence","1",""
"321.5","e","choice","left","e","experimental","590","453963","0.0-4.0-8.67","true","68","3.1499999999999995","","",""
"2005.2000000476837","3","confid","","","html-slider-response","592","456474","0.0-4.0-10.67-0.67","","","","Rate your confidence","1",""
"277.89999997615814","i","choice","right","i","experimental","600","461684","0.0-4.0-8.68","true","69","3.0499999999999994","","",""
"2426.899999976158","2","confid","","","html-slider-response","602","464618","0.0-4.0-10.68-0.68","","","","Rate your confidence","1",""
"286.5","e","choice","left","e","experimental","609","466750","0.0-4.0-8.69","true","70","3.0499999999999994","","",""
"2784.100000023842","4","confid","","","html-slider-response","611","470042","0.0-4.0-10.69-0.69","","","","Rate your confidence","1",""
"304.60000002384186","e","choice","right","i","experimental","618","472191","0.0-4.0-8.70","false","71","2.9499999999999993","","",""
"2281.8000000715256","3","confid","","","html-slider-response","620","474982","0.0-4.0-10.70-0.70","","","","Rate your confidence","1",""
"607.6999999284744","e","choice","left","e","experimental","627","477393","0.0-4.0-8.71","true","72","3.0499999999999994","","",""
"2947.1999999284744","5","confid","","","html-slider-response","629","480848","0.0-4.0-10.71-0.71","","","","Rate your confidence","1",""
"335.2999999523163","e","choice","left","e","experimental","636","482989","0.0-4.0-8.72","true","73","3.0499999999999994","","",""
"2667.6999999284744","2","confid","","","html-slider-response","638","486165","0.0-4.0-10.72-0.72","","","","Rate your confidence","1",""
"485.2999999523163","e","choice","right","i","experimental","645","488490","0.0-4.0-8.73","false","74","2.9499999999999993","","",""
"2514","2","confid","","","html-slider-response","647","491514","0.0-4.0-10.73-0.73","","","","Rate your confidence","1",""
"351.3000000715256","i","choice","right","i","experimental","654","493721","0.0-4.0-8.74","true","75","3.0499999999999994","","",""
"2312.2999999523163","3","confid","","","html-slider-response","656","496541","0.0-4.0-10.74-0.74","","","","Rate your confidence","1",""
"259.6999999284744","e","choice","left","e","experimental","663","498605","0.0-4.0-8.75","true","76","3.0499999999999994","","",""
"2976.100000023842","3","confid","","","html-slider-response","665","502116","0.0-4.0-10.75-0.75","","","","Rate your confidence","1",""
"275","i","choice","left","e","experimental","672","504195","0.0-4.0-8.76","false","77","2.9499999999999993","","",""
"2108.899999976158","2","confid","","","html-slider-response","674","506812","0.0-4.0-10.76-0.76","","","","Rate your confidence","1",""
"670.2000000476837","e","choice","right","i","experimental","681","509314","0.0-4.0-8.77","false","78","3.0499999999999994","","",""
"2661.899999976158","3","confid","","","html-slider-response","683","512483","0.0-4.0-10.77-0.77","","","","Rate your confidence","1",""
"194.80000007152557","i","choice","right","i","experimental","690","514522","0.0-4.0-8.78","true","79","3.1499999999999995","","",""
"2959","3","confid","","","html-slider-response","692","517988","0.0-4.0-10.78-0.78","","","","Rate your confidence","1",""
"243.39999997615814","e","choice","left","e","experimental","699","520073","0.0-4.0-8.79","true","80","3.1499999999999995","","",""
"2481","3","confid","","","html-slider-response","701","523061","0.0-4.0-10.79-0.79","","","","Rate your confidence","1",""
"42.60000002384186","e","choice","left","e","experimental","708","524906","0.0-4.0-8.80","true","81","3.0499999999999994","","",""
"2320.899999976158","4","confid","","","html-slider-response","710","527735","0.0-4.0-10.80-0.80","","","","Rate your confidence","1",""
"792.8999999761581","e","choice","right","i","experimental","717","530337","0.0-4.0-8.81","false","82","3.0499999999999994","","",""
"2482","2","confid","","","html-slider-response","719","533336","0.0-4.0-10.81-0.81","","","","Rate your confidence","1",""
"337.6999999284744","i","choice","left","e","experimental","726","535478","0.0-4.0-8.82","false","83","3.1499999999999995","","",""
"3292.899999976158","1","confid","","","html-slider-response","728","539279","0.0-4.0-10.82-0.82","","","","Rate your confidence","1",""
"368.89999997615814","e","choice","right","i","experimental","735","541455","0.0-4.0-8.83","false","84","3.2499999999999996","","",""
"3293.8000000715256","2","confid","","","html-slider-response","737","545258","0.0-4.0-10.83-0.83","","","","Rate your confidence","1",""
"351.7999999523163","e","choice","left","e","experimental","744","547470","0.0-4.0-8.84","true","85","3.3499999999999996","","",""
"2284.100000023842","3","confid","","","html-slider-response","746","550261","0.0-4.0-10.84-0.84","","","","Rate your confidence","1",""
"279.3000000715256","i","choice","right","i","experimental","753","552385","0.0-4.0-8.85","true","86","3.3499999999999996","","",""
"1641.3999999761581","3","confid","","","html-slider-response","755","554534","0.0-4.0-10.85-0.85","","","","Rate your confidence","1",""
"355.8000000715256","i","choice","left","e","experimental","762","556695","0.0-4.0-8.86","false","87","3.2499999999999996","","",""
"2813.5999999046326","2","confid","","","html-slider-response","764","560015","0.0-4.0-10.86-0.86","","","","Rate your confidence","1",""
"356.5","i","choice","right","i","experimental","771","562177","0.0-4.0-8.87","true","88","3.3499999999999996","","",""
"2325.7999999523163","3","confid","","","html-slider-response","773","565011","0.0-4.0-10.87-0.87","","","","Rate your confidence","1",""
"298.5","e","choice","left","e","experimental","780","567111","0.0-4.0-8.88","true","89","3.3499999999999996","","",""
"3300","4","confid","","","html-slider-response","782","570918","0.0-4.0-10.88-0.88","","","","Rate your confidence","1",""
"306.5","i","choice","right","i","experimental","789","573073","0.0-4.0-8.89","true","90","3.2499999999999996","","",""
"2762.8000000715256","4","confid","","","html-slider-response","791","576344","0.0-4.0-10.89-0.89","","","","Rate your confidence","1",""
"121.29999995231628","i","choice","right","i","experimental","798","578275","0.0-4.0-8.90","true","91","3.2499999999999996","","",""
"2327","2","confid","","","html-slider-response","800","581113","0.0-4.0-10.90-0.90","","","","Rate your confidence","1",""
"330.10000002384186","e","choice","left","e","experimental","807","583243","0.0-4.0-8.91","true","92","3.1499999999999995","","",""
"2105.5","3","confid","","","html-slider-response","809","585852","0.0-4.0-10.91-0.91","","","","Rate your confidence","1",""
"318.7999999523163","e","choice","left","e","experimental","816","587980","0.0-4.0-8.92","true","93","3.1499999999999995","","",""
"2182.7000000476837","4","confid","","","html-slider-response","818","590671","0.0-4.0-10.92-0.92","","","","Rate your confidence","1",""
"642.4000000953674","e","choice","right","i","experimental","825","593121","0.0-4.0-8.93","false","94","3.0499999999999994","","",""
"2748.5999999046326","2","confid","","","html-slider-response","827","596377","0.0-4.0-10.93-0.93","","","","Rate your confidence","1",""
"283.10000002384186","i","choice","right","i","experimental","834","598511","0.0-4.0-8.94","true","95","3.1499999999999995","","",""
"2053.5","4","confid","","","html-slider-response","836","601074","0.0-4.0-10.94-0.94","","","","Rate your confidence","1",""
"500.1999999284744","e","choice","left","e","experimental","843","603382","0.0-4.0-8.95","true","96","3.1499999999999995","","",""
"2355.5","3","confid","","","html-slider-response","845","606261","0.0-4.0-10.95-0.95","","","","Rate your confidence","1",""
"320.2999999523163","i","choice","right","i","experimental","852","608420","0.0-4.0-8.96","true","97","3.0499999999999994","","",""
"2233.2000000476837","4","confid","","","html-slider-response","854","611162","0.0-4.0-10.96-0.96","","","","Rate your confidence","1",""
"256.3000000715256","e","choice","left","e","experimental","861","613233","0.0-4.0-8.97","true","98","3.0499999999999994","","",""
"2522","3","confid","","","html-slider-response","863","616263","0.0-4.0-10.97-0.97","","","","Rate your confidence","1",""
"300.1999999284744","e","choice","right","i","experimental","870","618372","0.0-4.0-8.98","false","99","2.9499999999999993","","",""
"2033.4000000953674","4","confid","","","html-slider-response","872","620917","0.0-4.0-10.98-0.98","","","","Rate your confidence","1",""
"348.89999997615814","e","choice","left","e","experimental","879","623108","0.0-4.0-8.99","true","100","3.0499999999999994","","",""
"1739.7000000476837","2","confid","","","html-slider-response","881","625357","0.0-4.0-10.99-0.99","","","","Rate your confidence","1",""
"228.10000002384186","e","choice","left","e","experimental","888","627432","0.0-4.0-8.100","true","101","3.0499999999999994","","",""
"1710.8000000715256","4","confid","","","html-slider-response","890","629651","0.0-4.0-10.100-0.100","","","","Rate your confidence","1",""
"359.39999997615814","e","choice","right","i","experimental","897","631816","0.0-4.0-8.101","false","102","2.9499999999999993","","",""
"1956.6000000238419","3","confid","","","html-slider-response","899","634280","0.0-4.0-10.101-0.101","","","","Rate your confidence","1",""
"380.89999997615814","e","choice","left","e","experimental","906","636478","0.0-4.0-8.102","true","103","3.0499999999999994","","",""
"2180.399999976158","2","confid","","","html-slider-response","908","639166","0.0-4.0-10.102-0.102","","","","Rate your confidence","1",""
"1070.6000000238419","i","choice","right","i","experimental","915","642043","0.0-4.0-8.103","true","104","3.0499999999999994","","",""
"3543.2000000476837","1","confid","","","html-slider-response","917","646094","0.0-4.0-10.103-0.103","","","","Rate your confidence","1",""
"597.8000000715256","i","choice","right","i","experimental","924","648534","0.0-4.0-8.104","true","105","2.9499999999999993","","",""
"2082.7000000476837","2","confid","","","html-slider-response","926","651123","0.0-4.0-10.104-0.104","","","","Rate your confidence","1",""
"275.5","e","choice","left","e","experimental","933","653204","0.0-4.0-8.105","true","106","2.9499999999999993","","",""
"3425.7999999523163","4","confid","","","html-slider-response","935","657139","0.0-4.0-10.105-0.105","","","","Rate your confidence","1",""
"285.60000002384186","e","choice","left","e","experimental","942","659232","0.0-4.0-8.106","true","107","2.849999999999999","","",""
"2827","3","confid","","","html-slider-response","944","662569","0.0-4.0-10.106-0.106","","","","Rate your confidence","1",""
"195.29999995231628","e","choice","right","i","experimental","951","664571","0.0-4.0-8.107","false","108","2.849999999999999","","",""
"2434.600000023842","3","confid","","","html-slider-response","953","667512","0.0-4.0-10.107-0.107","","","","Rate your confidence","1",""
"329.6999999284744","i","choice","left","e","experimental","960","669683","0.0-4.0-8.108","false","109","2.9499999999999993","","",""
"2081.6999999284744","4","confid","","","html-slider-response","962","672275","0.0-4.0-10.108-0.108","","","","Rate your confidence","1",""
"116.20000004768372","i","choice","right","i","experimental","969","674230","0.0-4.0-8.109","true","110","3.0499999999999994","","",""
"2337.5999999046326","3","confid","","","html-slider-response","971","677078","0.0-4.0-10.109-0.109","","","","Rate your confidence","1",""
"857.6000000238419","i","choice","right","i","experimental","979","681134","0.0-4.0-8.110","true","111","3.0499999999999994","","",""
"3050.100000023842","3","confid","","","html-slider-response","981","684691","0.0-4.0-10.110-0.110","","","","Rate your confidence","1",""
"334.60000002384186","e","choice","left","e","experimental","988","686834","0.0-4.0-8.111","true","112","2.9499999999999993","","",""
"2229.7999999523163","4","confid","","","html-slider-response","990","689573","0.0-4.0-10.111-0.111","","","","Rate your confidence","1",""
"674","e","choice","right","i","experimental","997","692096","0.0-4.0-8.112","false","113","2.9499999999999993","","",""
"2325.8000000715256","4","confid","","","html-slider-response","999","694929","0.0-4.0-10.112-0.112","","","","Rate your confidence","1",""
"247.29999995231628","e","choice","left","e","experimental","1006","697023","0.0-4.0-8.113","true","114","3.0499999999999994","","",""
"4678.5","3","confid","","","html-slider-response","1008","702208","0.0-4.0-10.113-0.113","","","","Rate your confidence","1",""
"236.69999992847443","i","choice","right","i","experimental","1015","704253","0.0-4.0-8.114","true","115","3.0499999999999994","","",""
"2367.2000000476837","3","confid","","","html-slider-response","1017","707128","0.0-4.0-10.114-0.114","","","","Rate your confidence","1",""
"244.89999997615814","e","choice","left","e","experimental","1024","709177","0.0-4.0-8.115","true","116","2.9499999999999993","","",""
"2137.2000000476837","5","confid","","","html-slider-response","1026","711825","0.0-4.0-10.115-0.115","","","","Rate your confidence","1",""
"102.89999997615814","e","choice","left","e","experimental","1033","713730","0.0-4.0-8.116","true","117","2.9499999999999993","","",""
"2169.399999976158","4","confid","","","html-slider-response","1035","716404","0.0-4.0-10.116-0.116","","","","Rate your confidence","1",""
"519.7000000476837","i","choice","right","i","experimental","1042","718768","0.0-4.0-8.117","true","118","2.849999999999999","","",""
"1615.8999999761581","2","confid","","","html-slider-response","1044","720891","0.0-4.0-10.117-0.117","","","","Rate your confidence","1",""
"299.5","e","choice","right","i","experimental","1051","723039","0.0-4.0-8.118","false","119","2.849999999999999","","",""
"2021.6000000238419","2","confid","","","html-slider-response","1053","725571","0.0-4.0-10.118-0.118","","","","Rate your confidence","1",""
"293.10000002384186","e","choice","left","e","experimental","1060","727677","0.0-4.0-8.119","true","120","2.9499999999999993","","",""
"1976.5","3","confid","","","html-slider-response","1062","730160","0.0-4.0-10.119-0.119","","","","Rate your confidence","1",""
"295.8000000715256","e","choice","left","e","experimental","1069","732271","0.0-4.0-8.120","true","121","2.9499999999999993","","",""
"1924","4","confid","","","html-slider-response","1071","734702","0.0-4.0-10.120-0.120","","","","Rate your confidence","1",""
"93","e","choice","right","i","experimental","1078","736603","0.0-4.0-8.121","false","122","2.849999999999999","","",""
"2209","3","confid","","","html-slider-response","1080","739319","0.0-4.0-10.121-0.121","","","","Rate your confidence","1",""
"300.40000009536743","i","choice","right","i","experimental","1087","741427","0.0-4.0-8.122","true","123","2.9499999999999993","","",""
"2510.399999976158","2","confid","","","html-slider-response","1089","744446","0.0-4.0-10.122-0.122","","","","Rate your confidence","1",""
"175.79999995231628","e","choice","left","e","experimental","1096","746432","0.0-4.0-8.123","true","124","2.9499999999999993","","",""
"2468.1999999284744","3","confid","","","html-slider-response","1098","749408","0.0-4.0-10.123-0.123","","","","Rate your confidence","1",""
"164.79999995231628","i","choice","right","i","experimental","1105","751417","0.0-4.0-8.124","true","125","2.849999999999999","","",""
"1819.1000000238419","3","confid","","","html-slider-response","1107","753744","0.0-4.0-10.124-0.124","","","","Rate your confidence","1",""
"225.30000007152557","i","choice","left","e","experimental","1114","755776","0.0-4.0-8.125","false","126","2.849999999999999","","",""
"2162.2999999523163","3","confid","","","html-slider-response","1116","758451","0.0-4.0-10.125-0.125","","","","Rate your confidence","1",""
"284.60000002384186","e","choice","left","e","experimental","1123","760543","0.0-4.0-8.126","true","127","2.9499999999999993","","",""
"2238.4000000953674","3","confid","","","html-slider-response","1125","763289","0.0-4.0-10.126-0.126","","","","Rate your confidence","1",""
"278.7999999523163","i","choice","right","i","experimental","1132","765400","0.0-4.0-8.127","true","128","2.9499999999999993","","",""
"1990.6000000238419","3","confid","","","html-slider-response","1134","767898","0.0-4.0-10.127-0.127","","","","Rate your confidence","1",""
"341.3000000715256","e","choice","right","i","experimental","1141","770088","0.0-4.0-8.128","false","129","2.849999999999999","","",""
"1589.3999999761581","3","confid","","","html-slider-response","1143","772187","0.0-4.0-10.128-0.128","","","","Rate your confidence","1",""
"490","e","choice","left","e","experimental","1150","774522","0.0-4.0-8.129","true","130","2.9499999999999993","","",""
"1982.5","2","confid","","","html-slider-response","1152","777013","0.0-4.0-10.129-0.129","","","","Rate your confidence","1",""
"300","i","choice","right","i","experimental","1159","779122","0.0-4.0-8.130","true","131","2.9499999999999993","","",""
"3003.399999976158","3","confid","","","html-slider-response","1161","782635","0.0-4.0-10.130-0.130","","","","Rate your confidence","1",""
"215.79999995231628","e","choice","left","e","experimental","1168","784650","0.0-4.0-8.131","true","132","2.849999999999999","","",""
"2365.100000023842","2","confid","","","html-slider-response","1170","787525","0.0-4.0-10.131-0.131","","","","Rate your confidence","1",""
"255.69999992847443","e","choice","left","e","experimental","1177","789587","0.0-4.0-8.132","true","133","2.849999999999999","","",""
"2306.6999999284744","4","confid","","","html-slider-response","1179","792400","0.0-4.0-10.132-0.132","","","","Rate your confidence","1",""
"324.8000000715256","e","choice","right","i","experimental","1186","794578","0.0-4.0-8.133","false","134","2.749999999999999","","",""
"1606","3","confid","","","html-slider-response","1188","796693","0.0-4.0-10.133-0.133","","","","Rate your confidence","1",""
"224.39999997615814","e","choice","right","i","experimental","1195","798726","0.0-4.0-8.134","false","135","2.849999999999999","","",""
"1998.8999999761581","2","confid","","","html-slider-response","1197","801234","0.0-4.0-10.134-0.134","","","","Rate your confidence","1",""
"248.5","e","choice","left","e","experimental","1204","803289","0.0-4.0-8.135","true","136","2.9499999999999993","","",""
"2186.100000023842","2","confid","","","html-slider-response","1206","805984","0.0-4.0-10.135-0.135","","","","Rate your confidence","1",""
"290.2000000476837","e","choice","left","e","experimental","1213","808113","0.0-4.0-8.136","true","137","2.9499999999999993","","",""
"1884.8999999761581","3","confid","","","html-slider-response","1215","810508","0.0-4.0-10.136-0.136","","","","Rate your confidence","1",""
"510.60000002384186","e","choice","right","i","experimental","1222","812866","0.0-4.0-8.137","false","138","2.849999999999999","","",""
"3218.600000023842","1","confid","","","html-slider-response","1224","816593","0.0-4.0-10.137-0.137","","","","Rate your confidence","1",""
"193.20000004768372","i","choice","left","e","experimental","1231","818594","0.0-4.0-8.138","false","139","2.9499999999999993","","",""
"1996.0999999046326","4","confid","","","html-slider-response","1233","821099","0.0-4.0-10.138-0.138","","","","Rate your confidence","1",""
"452.2999999523163","e","choice","right","i","experimental","1240","823358","0.0-4.0-8.139","false","140","3.0499999999999994","","",""
"2878.399999976158","3","confid","","","html-slider-response","1242","826746","0.0-4.0-10.139-0.139","","","","Rate your confidence","1",""
"56","i","choice","right","i","experimental","1249","828650","0.0-4.0-8.140","true","141","3.1499999999999995","","",""
"2265.1999999284744","2","confid","","","html-slider-response","1251","831423","0.0-4.0-10.140-0.140","","","","Rate your confidence","1",""
"220.20000004768372","e","choice","left","e","experimental","1258","833441","0.0-4.0-8.141","true","142","3.1499999999999995","","",""
"2069.399999976158","3","confid","","","html-slider-response","1260","836021","0.0-4.0-10.141-0.141","","","","Rate your confidence","1",""
"234.39999997615814","e","choice","right","i","experimental","1267","838068","0.0-4.0-8.142","false","143","3.0499999999999994","","",""
"4002.399999976158","3","confid","","","html-slider-response","1269","842581","0.0-4.0-10.142-0.142","","","","Rate your confidence","1",""
"117","e","choice","left","e","experimental","1276","844508","0.0-4.0-8.143","true","144","3.1499999999999995","","",""
"2043","2","confid","","","html-slider-response","1278","847059","0.0-4.0-10.143-0.143","","","","Rate your confidence","1",""
"313.3000000715256","e","choice","right","i","experimental","1285","849225","0.0-4.0-8.144","false","145","3.1499999999999995","","",""
"1956.6000000238419","4","confid","","","html-slider-response","1287","851692","0.0-4.0-10.144-0.144","","","","Rate your confidence","1",""
"339.89999997615814","e","choice","left","e","experimental","1294","853875","0.0-4.0-8.145","true","146","3.2499999999999996","","",""
"2191.7999999523163","3","confid","","","html-slider-response","1296","856575","0.0-4.0-10.145-0.145","","","","Rate your confidence","1",""
"425.10000002384186","e","choice","right","i","experimental","1303","858813","0.0-4.0-8.146","false","147","3.2499999999999996","","",""
"2671.600000023842","3","confid","","","html-slider-response","1305","861992","0.0-4.0-10.146-0.146","","","","Rate your confidence","1",""
"293.8000000715256","e","choice","left","e","experimental","1312","864097","0.0-4.0-8.147","true","148","3.3499999999999996","","",""
"1916.6999999284744","4","confid","","","html-slider-response","1314","866523","0.0-4.0-10.147-0.147","","","","Rate your confidence","1",""
"311","e","choice","left","e","experimental","1321","868689","0.0-4.0-8.148","true","149","3.3499999999999996","","",""
"2597.2000000476837","3","confid","","","html-slider-response","1323","871794","0.0-4.0-10.148-0.148","","","","Rate your confidence","1",""
"431.60000002384186","e","choice","right","i","experimental","1330","874078","0.0-4.0-8.149","false","150","3.2499999999999996","","",""
"2528.5","4","confid","","","html-slider-response","1332","877117","0.0-4.0-10.149-0.149","","","","Rate your confidence","1",""
"304","e","choice","left","e","experimental","1339","879237","0.0-4.0-8.150","true","151","3.3499999999999996","","",""
"2008.7999999523163","3","confid","","","html-slider-response","1341","881753","0.0-4.0-10.150-0.150","","","","Rate your confidence","1",""
"1069.8999999761581","i","choice","right","i","experimental","1348","884636","0.0-4.0-8.151","true","152","3.3499999999999996","","",""
"2792.7999999523163","1","confid","","","html-slider-response","1350","887937","0.0-4.0-10.151-0.151","","","","Rate your confidence","1",""
"306.89999997615814","i","choice","left","e","experimental","1358","891129","0.0-4.0-8.152","false","153","3.2499999999999996","","",""
"1600.7000000476837","2","confid","","","html-slider-response","1360","893238","0.0-4.0-10.152-0.152","","","","Rate your confidence","1",""
"180.19999992847443","i","choice","right","i","experimental","1367","895260","0.0-4.0-8.153","true","154","3.3499999999999996","","",""
"2251.899999976158","2","confid","","","html-slider-response","1369","898025","0.0-4.0-10.153-0.153","","","","Rate your confidence","1",""
"284.5","e","choice","left","e","experimental","1376","900161","0.0-4.0-8.154","true","155","3.3499999999999996","","",""
"3412.6999999284744","3","confid","","","html-slider-response","1378","904082","0.0-4.0-10.154-0.154","","","","Rate your confidence","1",""
"259.89999997615814","i","choice","right","i","experimental","1385","906154","0.0-4.0-8.155","true","156","3.2499999999999996","","",""
"2038.7000000476837","2","confid","","","html-slider-response","1387","908702","0.0-4.0-10.155-0.155","","","","Rate your confidence","1",""
"387.7000000476837","e","choice","left","e","experimental","1394","910894","0.0-4.0-8.156","true","157","3.2499999999999996","","",""
"1579.3000000715256","3","confid","","","html-slider-response","1396","912983","0.0-4.0-10.156-0.156","","","","Rate your confidence","1",""
"239.19999992847443","e","choice","right","i","experimental","1403","915066","0.0-4.0-8.157","false","158","3.1499999999999995","","",""
"2333.399999976158","4","confid","","","html-slider-response","1405","917908","0.0-4.0-10.157-0.157","","","","Rate your confidence","1",""
"522","e","choice","right","i","experimental","1412","920282","0.0-4.0-8.158","false","159","3.2499999999999996","","",""
"1698.3000000715256","2","confid","","","html-slider-response","1414","922489","0.0-4.0-10.158-0.158","","","","Rate your confidence","1",""
"137.70000004768372","e","choice","left","e","experimental","1421","924481","0.0-4.0-8.159","true","160","3.3499999999999996","","",""
"2806","5","confid","","","html-slider-response","1423","927796","0.0-4.0-10.159-0.159","","","","Rate your confidence","1",""
"106.29999995231628","e","choice","left","e","experimental","1430","929711","0.0-4.0-8.160","true","161","3.3499999999999996","","",""
"1974.8000000715256","6","confid","","","html-slider-response","1432","932194","0.0-4.0-10.160-0.160","","","","Rate your confidence","1",""
"765.8999999761581","i","choice","right","i","experimental","1439","934772","0.0-4.0-8.161","true","162","3.2499999999999996","","",""
"2378","1","confid","","","html-slider-response","1441","937658","0.0-4.0-10.161-0.161","","","","Rate your confidence","1",""
"280","e","choice","left","e","experimental","1448","939747","0.0-4.0-8.162","true","163","3.2499999999999996","","",""
"2089.899999976158","5","confid","","","html-slider-response","1450","942346","0.0-4.0-10.162-0.162","","","","Rate your confidence","1",""
"373.39999997615814","e","choice","right","i","experimental","1457","944526","0.0-4.0-8.163","false","164","3.1499999999999995","","",""
"1790","5","confid","","","html-slider-response","1459","946825","0.0-4.0-10.163-0.163","","","","Rate your confidence","1",""
"360.1999999284744","e","choice","left","e","experimental","1466","949038","0.0-4.0-8.164","true","165","3.2499999999999996","","",""
"1775.8999999761581","5","confid","","","html-slider-response","1468","951324","0.0-4.0-10.164-0.164","","","","Rate your confidence","1",""
"392.60000002384186","i","choice","right","i","experimental","1475","953531","0.0-4.0-8.165","true","166","3.2499999999999996","","",""
"2090.7999999523163","2","confid","","","html-slider-response","1477","956164","0.0-4.0-10.165-0.165","","","","Rate your confidence","1",""
"315.8000000715256","e","choice","left","e","experimental","1484","958296","0.0-4.0-8.166","true","167","3.1499999999999995","","",""
"1898.6000000238419","4","confid","","","html-slider-response","1486","960705","0.0-4.0-10.166-0.166","","","","Rate your confidence","1",""
"100.30000007152557","e","choice","right","i","experimental","1493","962653","0.0-4.0-8.167","false","168","3.1499999999999995","","",""
"3095.0999999046326","4","confid","","","html-slider-response","1495","966257","0.0-4.0-10.167-0.167","","","","Rate your confidence","1",""
"252.89999997615814","i","choice","right","i","experimental","1502","968361","0.0-4.0-8.168","true","169","3.2499999999999996","","",""
"2187.399999976158","4","confid","","","html-slider-response","1504","971059","0.0-4.0-10.168-0.168","","","","Rate your confidence","1",""
"292.39999997615814","e","choice","left","e","experimental","1511","973163","0.0-4.0-8.169","true","170","3.2499999999999996","","",""
"1778.5","3","confid","","","html-slider-response","1513","975451","0.0-4.0-10.169-0.169","","","","Rate your confidence","1",""
"366.6999999284744","e","choice","left","e","experimental","1520","977627","0.0-4.0-8.170","true","171","3.1499999999999995","","",""
"2515.5","3","confid","","","html-slider-response","1522","980652","0.0-4.0-10.170-0.170","","","","Rate your confidence","1",""
"307.7999999523163","i","choice","right","i","experimental","1529","982774","0.0-4.0-8.171","true","172","3.1499999999999995","","",""
"1890.8000000715256","4","confid","","","html-slider-response","1531","985174","0.0-4.0-10.171-0.171","","","","Rate your confidence","1",""
"182.70000004768372","i","choice","right","i","experimental","1538","987205","0.0-4.0-8.172","true","173","3.0499999999999994","","",""
"2007.5","3","confid","","","html-slider-response","1540","989722","0.0-4.0-10.172-0.172","","","","Rate your confidence","1",""
"293","e","choice","left","e","experimental","1547","991832","0.0-4.0-8.173","true","174","3.0499999999999994","","",""
"1766.3000000715256","2","confid","","","html-slider-response","1549","994106","0.0-4.0-10.173-0.173","","","","Rate your confidence","1",""
"47.40000009536743","i","choice","right","i","experimental","1556","995964","0.0-4.0-8.174","true","175","2.9499999999999993","","",""
"2082.899999976158","2","confid","","","html-slider-response","1558","998558","0.0-4.0-10.174-0.174","","","","Rate your confidence","1",""
"294.39999997615814","e","choice","left","e","experimental","1565","1000665","0.0-4.0-8.175","true","176","2.9499999999999993","","",""
"1810","3","confid","","","html-slider-response","1567","1002984","0.0-4.0-10.175-0.175","","","","Rate your confidence","1",""
"285.40000009536743","e","choice","left","e","experimental","1574","1005119","0.0-4.0-8.176","true","177","2.849999999999999","","",""
"1747.1000000238419","2","confid","","","html-slider-response","1576","1007378","0.0-4.0-10.176-0.176","","","","Rate your confidence","1",""
"301.5","i","choice","right","i","experimental","1583","1009527","0.0-4.0-8.177","true","178","2.849999999999999","","",""
"2602","2","confid","","","html-slider-response","1585","1012639","0.0-4.0-10.177-0.177","","","","Rate your confidence","1",""
"184","e","choice","right","i","experimental","1592","1014636","0.0-4.0-8.178","false","179","2.749999999999999","","",""
"2431.5","3","confid","","","html-slider-response","1594","1017575","0.0-4.0-10.178-0.178","","","","Rate your confidence","1",""
"269.89999997615814","e","choice","left","e","experimental","1601","1019655","0.0-4.0-8.179","true","180","2.849999999999999","","",""
"3856.6999999284744","2","confid","","","html-slider-response","1603","1024021","0.0-4.0-10.179-0.179","","","","Rate your confidence","1",""
"446.7000000476837","e","choice","left","e","experimental","1610","1026279","0.0-4.0-8.180","true","181","2.849999999999999","","",""
"2284.899999976158","3","confid","","","html-slider-response","1612","1029073","0.0-4.0-10.180-0.180","","","","Rate your confidence","1",""
"283.3000000715256","i","choice","right","i","experimental","1619","1031214","0.0-4.0-8.181","true","182","2.749999999999999","","",""
"2501.7000000476837","2","confid","","","html-slider-response","1621","1034225","0.0-4.0-10.181-0.181","","","","Rate your confidence","1",""
"84.79999995231628","i","choice","left","e","experimental","1628","1036163","0.0-4.0-8.182","false","183","2.749999999999999","","",""
"2127","2","confid","","","html-slider-response","1630","1038799","0.0-4.0-10.182-0.182","","","","Rate your confidence","1",""
"287.5","e","choice","right","i","experimental","1637","1040892","0.0-4.0-8.183","false","184","2.849999999999999","","",""
"3254.2999999523163","3","confid","","","html-slider-response","1639","1044687","0.0-4.0-10.183-0.183","","","","Rate your confidence","1",""
"305.5","e","choice","left","e","experimental","1646","1046806","0.0-4.0-8.184","true","185","2.9499999999999993","","",""
"2376.2000000476837","3","confid","","","html-slider-response","1648","1049695","0.0-4.0-10.184-0.184","","","","Rate your confidence","1",""
"296.6999999284744","e","choice","right","i","experimental","1655","1051834","0.0-4.0-8.185","false","186","2.9499999999999993","","",""
"1995.8999999761581","3","confid","","","html-slider-response","1657","1054340","0.0-4.0-10.185-0.185","","","","Rate your confidence","1",""
"292.3000000715256","e","choice","left","e","experimental","1664","1056481","0.0-4.0-8.186","true","187","3.0499999999999994","","",""
"1734.1999999284744","3","confid","","","html-slider-response","1666","1058724","0.0-4.0-10.186-0.186","","","","Rate your confidence","1",""
"144.19999992847443","i","choice","right","i","experimental","1673","1060715","0.0-4.0-8.187","true","188","3.0499999999999994","","",""
"1988.8000000715256","4","confid","","","html-slider-response","1675","1063215","0.0-4.0-10.187-0.187","","","","Rate your confidence","1",""
"143.60000002384186","i","choice","left","e","experimental","1682","1065173","0.0-4.0-8.188","false","189","2.9499999999999993","","",""
"2293.899999976158","2","confid","","","html-slider-response","1684","1067976","0.0-4.0-10.188-0.188","","","","Rate your confidence","1",""
"364.5","e","choice","right","i","experimental","1691","1070142","0.0-4.0-8.189","false","190","3.0499999999999994","","",""
"2914.7999999523163","4","confid","","","html-slider-response","1693","1073567","0.0-4.0-10.189-0.189","","","","Rate your confidence","1",""
"303","i","choice","right","i","experimental","1700","1075681","0.0-4.0-8.190","true","191","3.1499999999999995","","",""
"2422","3","confid","","","html-slider-response","1702","1078611","0.0-4.0-10.190-0.190","","","","Rate your confidence","1",""
"192.40000009536743","e","choice","left","e","experimental","1709","1080653","0.0-4.0-8.191","true","192","3.1499999999999995","","",""
"2245.2999999523163","5","confid","","","html-slider-response","1711","1083407","0.0-4.0-10.191-0.191","","","","Rate your confidence","1",""
"113.29999995231628","e","choice","left","e","experimental","1718","1085371","0.0-4.0-8.192","true","193","3.0499999999999994","","",""
"2507.8000000715256","3","confid","","","html-slider-response","1720","1088388","0.0-4.0-10.192-0.192","","","","Rate your confidence","1",""
"47","i","choice","right","i","experimental","1727","1090247","0.0-4.0-8.193","true","194","3.0499999999999994","","",""
"2216","4","confid","","","html-slider-response","1729","1092972","0.0-4.0-10.193-0.193","","","","Rate your confidence","1","77679"
