"rt","response","task","target_side","correct_response","trial_type","trial_index","time_elapsed","internal_node_id","correct","trial_number","n_dots","stimulus","slider_start","participant"
"324.89999997615814","e","choice","left","e","practice","10","127473","0.0-4.0-8.0","true","1","4.25","","",""
"4214","i","choice","right","i","practice","18","134010","0.0-4.0-8.1","true","2","4.25","","",""
"89.89999997615814","e","choice","right","i","practice","26","136418","0.0-4.0-8.2","false","3","3.85","","",""
"2078.8000000715256","e","choice","left","e","practice","34","140786","0.0-4.0-8.3","true","4","4.25","","",""
"283","e","choice","right","i","practice","42","143386","0.0-4.0-8.4","false","5","4.25","","",""
"130.20000004768372","e","choice","left","e","practice","50","145837","0.0-4.0-8.5","true","6","4.65","","",""
"694.3000000715256","e","choice","left","e","practice","58","148822","0.0-4.0-8.6","true","7","4.65","","",""
"784.7000000476837","e","choice","right","i","practice","66","151903","0.0-4.0-8.7","false","8","4.45","","",""
"71.89999997615814","e","choice","left","e","practice","74","154291","0.0-4.0-8.8","true","9","4.65","","",""
"327.6999999284744","i","choice","right","i","practice","82","156913","0.0-4.0-8.9","true","10","4.65","","",""
"1460.3999999761581","e","choice","right","i","practice","90","160664","0.0-4.0-8.10","false","11","4.45","","",""
"28.5","e","choice","left","e","practice","98","162978","0.0-4.0-8.11","true","12","4.55","","",""
"183.10000002384186","i","choice","right","i","practice","106","165453","0.0-4.0-8.12","true","13","4.55","","",""
"763.7999999523163","e","choice","left","e","practice","114","168533","0.0-4.0-8.13","true","14","4.45","","",""
"216.5","e","choice","left","e","practice","122","171068","0.0-4.0-8.14","true","15","4.45","","",""
"535.8999999761581","i","choice","right","i","practice","130","173922","0.0-4.0-8.15","true","16","4.3500000000000005","","",""
"1384.2000000476837","e","choice","right","i","practice","138","177622","0.0-4.0-8.16","false","17","4.3500000000000005","","",""
"79.19999992847443","e","choice","left","e","practice","146","179996","0.0-4.0-8.17","true","18","4.45","","",""
"160.90000009536743","e","choice","left","e","practice","154","182446","0.0-4.0-8.18","true","19","4.45","","",""
"54.89999997615814","i","choice","right","i","practice","162","184797","0.0-4.0-8.19","true","20","4.3500000000000005","","",""
"86.59999990463257","e","choice","left","e","practice","170","187182","0.0-4.0-8.20","true","21","4.3500000000000005","","",""
"572.7999999523163","i","choice","right","i","practice","178","190048","0.0-4.0-8.21","true","22","4.250000000000001","","",""
"339.7000000476837","i","choice","right","i","practice","186","192713","0.0-4.0-8.22","true","23","4.250000000000001","","",""
"405","e","choice","left","e","practice","194","195411","0.0-4.0-8.23","true","24","4.150000000000001","","",""
"675.3999999761581","i","choice","right","i","practice","202","198377","0.0-4.0-8.24","true","25","4.150000000000001","","",""
"141.89999997615814","e","choice","left","e","practice","210","200843","0.0-4.0-8.25","true","26","4.050000000000002","","",""
"55.10000002384186","e","choice","left","e","experimental","221","239395","0.0-4.0-8.26","true","27","4.050000000000002","","",""
"8506.300000071526","6","confid","","","html-slider-response","223","248406","0.0-4.0-10.26-0.26","","","","Rate your confidence","1",""
"604","i","choice","right","i","experimental","230","250806","0.0-4.0-8.27","true","28","3.9500000000000015","","",""
"4979.800000071526","5","confid","","","html-slider-response","232","256292","0.0-4.0-10.27-0.27","","","","Rate your confidence","1",""
"201.89999997615814","e","choice","left","e","experimental","239","258280","0.0-4.0-8.28","true","29","3.9500000000000015","","",""
"4667.299999952316","5","confid","","","html-slider-response","241","263460","0.0-4.0-10.28-0.28","","","","Rate your confidence","1",""
"1023.1000000238419","i","choice","right","i","experimental","248","266272","0.0-4.0-8.29","true","30","3.8500000000000014","","",""
"6620.5","2","confid","","","html-slider-response","250","273396","0.0-4.0-10.29-0.29","","","","Rate your confidence","1",""
"619.5","e","choice","left","e","experimental","257","275814","0.0-4.0-8.30","true","31","3.8500000000000014","","",""
"3816.100000023842","6","confid","","","html-slider-response","259","280136","0.0-4.0-10.30-0.30","","","","Rate your confidence","1",""
"76","e","choice","right","i","experimental","266","282026","0.0-4.0-8.31","false","32","3.7500000000000013","","",""
"3705.3000000715256","5","confid","","","html-slider-response","268","286236","0.0-4.0-10.31-0.31","","","","Rate your confidence","1",""
"638.6000000238419","i","choice","right","i","experimental","275","288686","0.0-4.0-8.32","true","33","3.8500000000000014","","",""
"6536.599999904633","4","confid","","","html-slider-response","277","295727","0.0-4.0-10.32-0.32","","","","Rate your confidence","1",""
"162.5","e","choice","left","e","experimental","284","297678","0.0-4.0-8.33","true","34","3.8500000000000014","","",""
"3856.600000023842","6","confid","","","html-slider-response","286","302039","0.0-4.0-10.33-0.33","","","","Rate your confidence","1",""
"44.300000071525574","e","choice","left","e","experimental","293","303871","0.0-4.0-8.34","true","35","3.7500000000000013","","",""
"3694.5","5","confid","","","html-slider-response","295","308070","0.0-4.0-10.34-0.34","","","","Rate your confidence","1",""
"875.1000000238419","i","choice","right","i","experimental","302","310751","0.0-4.0-8.35","true","36","3.7500000000000013","","",""
"5001.800000071526","3","confid","","","html-slider-response","304","316257","0.0-4.0-10.35-0.35","","","","Rate your confidence","1",""
"728.7000000476837","e","choice","left","e","experimental","311","318773","0.0-4.0-8.36","true","37","3.6500000000000012","","",""
"3428.7000000476837","4","confid","","","html-slider-response","313","322706","0.0-4.0-10.36-0.36","","","","Rate your confidence","1",""
"1240.8999999761581","e","choice","right","i","experimental","320","325735","0.0-4.0-8.37","false","38","3.6500000000000012","","",""
"5830.099999904633","1","confid","","","html-slider-response","322","332067","0.0-4.0-10.37-0.37","","","","Rate your confidence","1",""
"36","i","choice","right","i","experimental","329","333891","0.0-4.0-8.38","true","39","3.7500000000000013","","",""
"3708.5","5","confid","","","html-slider-response","331","338114","0.0-4.0-10.38-0.38","","","","Rate your confidence","1",""
"1485.5999999046326","e","choice","left","e","experimental","338","341414","0.0-4.0-8.39","true","40","3.7500000000000013","","",""
"4177.300000071526","6","confid","","","html-slider-response","340","346096","0.0-4.0-10.39-0.39","","","","Rate your confidence","1",""
"237.89999997615814","i","choice","right","i","experimental","347","348157","0.0-4.0-8.40","true","41","3.6500000000000012","","",""
"3731.8000000715256","4","confid","","","html-slider-response","349","352394","0.0-4.0-10.40-0.40","","","","Rate your confidence","1",""
"579.7999999523163","e","choice","left","e","experimental","356","354794","0.0-4.0-8.41","true","42","3.6500000000000012","","",""
"3016","5","confid","","","html-slider-response","358","358316","0.0-4.0-10.41-0.41","","","","Rate your confidence","1",""
"0.30000007152557373","e","choice","left","e","experimental","365","360102","0.0-4.0-8.42","true","43","3.550000000000001","","",""
"3551.399999976158","5","confid","","","html-slider-response","367","364158","0.0-4.0-10.42-0.42","","","","Rate your confidence","1",""
"4.600000023841858","i","choice","right","i","experimental","374","365956","0.0-4.0-8.43","true","44","3.550000000000001","","",""
"4134.799999952316","5","confid","","","html-slider-response","376","370595","0.0-4.0-10.43-0.43","","","","Rate your confidence","1",""
"214.5","e","choice","right","i","experimental","383","372598","0.0-4.0-8.44","false","45","3.450000000000001","","",""
"2810.399999976158","5","confid","","","html-slider-response","385","375912","0.0-4.0-10.44-0.44","","","","Rate your confidence","1",""
"879.7999999523163","e","choice","left","e","experimental","392","378577","0.0-4.0-8.45","true","46","3.550000000000001","","",""
"2694.399999976158","6","confid","","","html-slider-response","394","381776","0.0-4.0-10.45-0.45","","","","Rate your confidence","1",""
"126.30000007152557","e","choice","left","e","experimental","401","383712","0.0-4.0-8.46","true","47","3.550000000000001","","",""
"3498.5999999046326","5","confid","","","html-slider-response","403","387715","0.0-4.0-10.46-0.46","","","","Rate your confidence","1",""
"1493","i","choice","right","i","experimental","410","390993","0.0-4.0-8.47","true","48","3.450000000000001","","",""
"8287.200000047684","1","confid","","","html-slider-response","412","399785","0.0-4.0-10.47-0.47","","","","Rate your confidence","1",""
"105.79999995231628","e","choice","right","i","experimental","419","401679","0.0-4.0-8.48","false","49","3.450000000000001","","",""
"2870","4","confid","","","html-slider-response","421","405053","0.0-4.0-10.48-0.48","","","","Rate your confidence","1",""
"0.8999999761581421","e","choice","left","e","experimental","428","406845","0.0-4.0-8.49","true","50","3.550000000000001","","",""
"5102.5","5","confid","","","html-slider-response","430","412452","0.0-4.0-10.49-0.49","","","","Rate your confidence","1",""
"486.7000000476837","i","choice","right","i","experimental","437","414754","0.0-4.0-8.50","true","51","3.550000000000001","","",""
"4667.600000023842","6","confid","","","html-slider-response","439","419926","0.0-4.0-10.50-0.50","","","","Rate your confidence","1",""
"50.299999952316284","e","choice","left","e","experimental","446","421766","0.0-4.0-8.51","true","52","3.450000000000001","","",""
"3397","6","confid","","","html-slider-response","448","425668","0.0-4.0-10.51-0.51","","","","Rate your confidence","1",""
"1022.8999999761581","i","choice","right","i","experimental","455","428476","0.0-4.0-8.52","true","53","3.450000000000001","","",""
"3520.6999999284744","2","confid","","","html-slider-response","457","432500","0.0-4.0-10.52-0.52","","","","Rate your confidence","1",""
"458.09999990463257","e","choice","left","e","experimental","464","434753","0.0-4.0-8.53","true","54","3.350000000000001","","",""
"3189.5","6","confid","","","html-slider-response","466","438448","0.0-4.0-10.53-0.53","","","","Rate your confidence","1",""
"472.2999999523163","e","choice","left","e","experimental","473","440706","0.0-4.0-8.54","true","55","3.350000000000001","","",""
"3343","6","confid","","","html-slider-response","475","444554","0.0-4.0-10.54-0.54","","","","Rate your confidence","1",""
"973.5","i","choice","right","i","experimental","482","447344","0.0-4.0-8.55","true","56","3.250000000000001","","",""
"4024.100000023842","2","confid","","","html-slider-response","484","451873","0.0-4.0-10.55-0.55","","","","Rate your confidence","1",""
"191.29999995231628","i","choice","right","i","experimental","491","453872","0.0-4.0-8.56","true","57","3.250000000000001","","",""
"2882.7000000476837","4","confid","","","html-slider-response","493","457259","0.0-4.0-10.56-0.56","","","","Rate your confidence","1",""
"178.60000002384186","e","choice","left","e","experimental","500","459240","0.0-4.0-8.57","true","58","3.150000000000001","","",""
"2925.600000023842","4","confid","","","html-slider-response","502","462672","0.0-4.0-10.57-0.57","","","","Rate your confidence","1",""
"893.6999999284744","i","choice","right","i","experimental","509","465352","0.0-4.0-8.58","true","59","3.150000000000001","","",""
"2539.5","3","confid","","","html-slider-response","511","468396","0.0-4.0-10.58-0.58","","","","Rate your confidence","1",""
"419.8000000715256","e","choice","left","e","experimental","518","470606","0.0-4.0-8.59","true","60","3.0500000000000007","","",""
"2942.399999976158","6","confid","","","html-slider-response","520","474053","0.0-4.0-10.59-0.59","","","","Rate your confidence","1",""
"679.3999999761581","i","choice","right","i","experimental","527","476542","0.0-4.0-8.60","true","61","3.0500000000000007","","",""
"5744.5","3","confid","","","html-slider-response","529","482791","0.0-4.0-10.60-0.60","","","","Rate your confidence","1",""
"62.199999928474426","i","choice","left","e","experimental","536","484664","0.0-4.0-8.61","false","62","2.9500000000000006","","",""
"2297.399999976158","3","confid","","","html-slider-response","538","487465","0.0-4.0-10.61-0.61","","","","Rate your confidence","1",""
"163.79999995231628","e","choice","left","e","experimental","545","489416","0.0-4.0-8.62","true","63","3.0500000000000007","","",""
"3692.5","4","confid","","","html-slider-response","547","493615","0.0-4.0-10.62-0.62","","","","Rate your confidence","1",""
"65.79999995231628","i","choice","right","i","experimental","554","495464","0.0-4.0-8.63","true","64","3.0500000000000007","","",""
"4244.399999976158","4","confid","","","html-slider-response","556","500212","0.0-4.0-10.63-0.63","","","","Rate your confidence","1",""
"80.60000002384186","e","choice","left","e","experimental","563","502083","0.0-4.0-8.64","true","65","2.9500000000000006","","",""
"2610.899999976158","5","confid","","","html-slider-response","565","505198","0.0-4.0-10.64-0.64","","","","Rate your confidence","1",""
"654.4000000953674","i","choice","right","i","experimental","572","507641","0.0-4.0-8.65","true","66","2.9500000000000006","","",""
"2620.6999999284744","5","confid","","","html-slider-response","574","510766","0.0-4.0-10.65-0.65","","","","Rate your confidence","1",""
"609.2999999523163","i","choice","right","i","experimental","581","513188","0.0-4.0-8.66","true","67","2.8500000000000005","","",""
"3021","4","confid","","","html-slider-response","583","516713","0.0-4.0-10.66-0.66","","","","Rate your confidence","1",""
"488.90000009536743","e","choice","left","e","experimental","590","519013","0.0-4.0-8.67","true","68","2.8500000000000005","","",""
"3398.399999976158","5","confid","","","html-slider-response","592","522915","0.0-4.0-10.67-0.67","","","","Rate your confidence","1",""
"264.39999997615814","i","choice","right","i","experimental","600","537091","0.0-4.0-8.68","true","69","2.7500000000000004","","",""
"4212.300000071526","4","confid","","","html-slider-response","602","541809","0.0-4.0-10.68-0.68","","","","Rate your confidence","1",""
"4.600000023841858","e","choice","left","e","experimental","609","543603","0.0-4.0-8.69","true","70","2.7500000000000004","","",""
"3199.9000000953674","5","confid","","","html-slider-response","611","547308","0.0-4.0-10.69-0.69","","","","Rate your confidence","1",""
"231.5","e","choice","left","e","experimental","618","549324","0.0-4.0-8.70","true","71","2.6500000000000004","","",""
"3299.5999999046326","4","confid","","","html-slider-response","620","553128","0.0-4.0-10.70-0.70","","","","Rate your confidence","1",""
"243.5","i","choice","right","i","experimental","627","555187","0.0-4.0-8.71","true","72","2.6500000000000004","","",""
"4946.899999976158","2","confid","","","html-slider-response","629","560639","0.0-4.0-10.71-0.71","","","","Rate your confidence","1",""
"270.09999990463257","i","choice","left","e","experimental","636","562722","0.0-4.0-8.72","false","73","2.5500000000000003","","",""
"4476.899999976158","2","confid","","","html-slider-response","638","567704","0.0-4.0-10.72-0.72","","","","Rate your confidence","1",""
"130","i","choice","right","i","experimental","645","569647","0.0-4.0-8.73","true","74","2.6500000000000004","","",""
"3431.7000000476837","4","confid","","","html-slider-response","647","573584","0.0-4.0-10.73-0.73","","","","Rate your confidence","1",""
"273","e","choice","left","e","experimental","654","575640","0.0-4.0-8.74","true","75","2.6500000000000004","","",""
"4589.299999952316","2","confid","","","html-slider-response","656","580735","0.0-4.0-10.74-0.74","","","","Rate your confidence","1",""
"705.6000000238419","i","choice","right","i","experimental","663","583231","0.0-4.0-8.75","true","76","2.5500000000000003","","",""
"3915.1999999284744","2","confid","","","html-slider-response","665","587653","0.0-4.0-10.75-0.75","","","","Rate your confidence","1",""
"667.1000000238419","e","choice","left","e","experimental","672","590108","0.0-4.0-8.76","true","77","2.5500000000000003","","",""
"2899.399999976158","5","confid","","","html-slider-response","674","593513","0.0-4.0-10.76-0.76","","","","Rate your confidence","1",""
"78.10000002384186","e","choice","right","i","experimental","681","595405","0.0-4.0-8.77","false","78","2.45","","",""
"2402.7999999523163","4","confid","","","html-slider-response","683","598313","0.0-4.0-10.77-0.77","","","","Rate your confidence","1",""
"56.5","e","choice","left","e","experimental","690","600156","0.0-4.0-8.78","true","79","2.5500000000000003","","",""
"3696.600000023842","5","confid","","","html-slider-response","692","604358","0.0-4.0-10.78-0.78","","","","Rate your confidence","1",""
"361.5","i","choice","right","i","experimental","699","606504","0.0-4.0-8.79","true","80","2.5500000000000003","","",""
"3988.1999999284744","3","confid","","","html-slider-response","701","610997","0.0-4.0-10.79-0.79","","","","Rate your confidence","1",""
"514.3000000715256","e","choice","left","e","experimental","708","613300","0.0-4.0-8.80","true","81","2.45","","",""
"3182.7000000476837","6","confid","","","html-slider-response","710","616987","0.0-4.0-10.80-0.80","","","","Rate your confidence","1",""
"183.70000004768372","i","choice","right","i","experimental","717","618958","0.0-4.0-8.81","true","82","2.45","","",""
"4571.100000023842","4","confid","","","html-slider-response","719","624034","0.0-4.0-10.81-0.81","","","","Rate your confidence","1",""
"1230.8999999761581","i","choice","right","i","experimental","726","627048","0.0-4.0-8.82","true","83","2.35","","",""
"3906.7000000476837","1","confid","","","html-slider-response","728","631459","0.0-4.0-10.82-0.82","","","","Rate your confidence","1",""
"134.5","e","choice","left","e","experimental","735","633381","0.0-4.0-8.83","true","84","2.35","","",""
"3210","5","confid","","","html-slider-response","737","637095","0.0-4.0-10.83-0.83","","","","Rate your confidence","1",""
"1092.7000000476837","i","choice","left","e","experimental","744","639980","0.0-4.0-8.84","false","85","2.25","","",""
"3985.6999999284744","2","confid","","","html-slider-response","746","644472","0.0-4.0-10.84-0.84","","","","Rate your confidence","1",""
"272","i","choice","right","i","experimental","753","646532","0.0-4.0-8.85","true","86","2.35","","",""
"2829.399999976158","3","confid","","","html-slider-response","755","649866","0.0-4.0-10.85-0.85","","","","Rate your confidence","1",""
"1273.6000000238419","e","choice","left","e","experimental","762","652930","0.0-4.0-8.86","true","87","2.35","","",""
"4876.600000023842","1","confid","","","html-slider-response","764","658312","0.0-4.0-10.86-0.86","","","","Rate your confidence","1",""
"722","i","choice","right","i","experimental","771","660842","0.0-4.0-8.87","true","88","2.25","","",""
"2970.6999999284744","4","confid","","","html-slider-response","773","664317","0.0-4.0-10.87-0.87","","","","Rate your confidence","1",""
"1171.8999999761581","e","choice","right","i","experimental","780","667291","0.0-4.0-8.88","false","89","2.25","","",""
"3101.399999976158","1","confid","","","html-slider-response","782","670898","0.0-4.0-10.88-0.88","","","","Rate your confidence","1",""
"1510","i","choice","left","e","experimental","789","674194","0.0-4.0-8.89","false","90","2.35","","",""
"4402.600000023842","1","confid","","","html-slider-response","791","679102","0.0-4.0-10.89-0.89","","","","Rate your confidence","1",""
"1322.7000000476837","e","choice","right","i","experimental","798","682214","0.0-4.0-8.90","false","91","2.45","","",""
"5022.899999976158","2","confid","","","html-slider-response","800","687742","0.0-4.0-10.90-0.90","","","","Rate your confidence","1",""
"920","i","choice","left","e","experimental","807","690453","0.0-4.0-8.91","false","92","2.5500000000000003","","",""
"3950.2999999523163","4","confid","","","html-slider-response","809","694908","0.0-4.0-10.91-0.91","","","","Rate your confidence","1",""
"132.79999995231628","e","choice","left","e","experimental","816","696829","0.0-4.0-8.92","true","93","2.6500000000000004","","",""
"3239.100000023842","6","confid","","","html-slider-response","818","700572","0.0-4.0-10.92-0.92","","","","Rate your confidence","1",""
"212.70000004768372","e","choice","right","i","experimental","825","702576","0.0-4.0-8.93","false","94","2.6500000000000004","","",""
"4189.100000023842","4","confid","","","html-slider-response","827","707270","0.0-4.0-10.93-0.93","","","","Rate your confidence","1",""
"910.2999999523163","i","choice","right","i","experimental","834","709973","0.0-4.0-8.94","true","95","2.7500000000000004","","",""
"2594.399999976158","2","confid","","","html-slider-response","836","713073","0.0-4.0-10.94-0.94","","","","Rate your confidence","1",""
"1.7999999523162842","e","choice","left","e","experimental","843","714863","0.0-4.0-8.95","true","96","2.7500000000000004","","",""
"2566.3000000715256","5","confid","","","html-slider-response","845","717934","0.0-4.0-10.95-0.95","","","","Rate your confidence","1",""
"6.399999976158142","e","choice","left","e","experimental","852","719735","0.0-4.0-8.96","true","97","2.6500000000000004","","",""
"3089.399999976158","5","confid","","","html-slider-response","854","723330","0.0-4.0-10.96-0.96","","","","Rate your confidence","1",""
"1245.6000000238419","e","choice","right","i","experimental","861","726364","0.0-4.0-8.97","false","98","2.6500000000000004","","",""
"2467.5","4","confid","","","html-slider-response","863","729336","0.0-4.0-10.97-0.97","","","","Rate your confidence","1",""
"97.19999992847443","e","choice","right","i","experimental","870","731219","0.0-4.0-8.98","false","99","2.7500000000000004","","",""
"3364.5999999046326","4","confid","","","html-slider-response","872","735089","0.0-4.0-10.98-0.98","","","","Rate your confidence","1",""
"707.5","e","choice","left","e","experimental","879","737582","0.0-4.0-8.99","true","100","2.8500000000000005","","",""
"2930.600000023842","2","confid","","","html-slider-response","881","741018","0.0-4.0-10.99-0.99","","","","Rate your confidence","1",""
"299.10000002384186","i","choice","right","i","experimental","888","743105","0.0-4.0-8.100","true","101","2.8500000000000005","","",""
"2567.7000000476837","3","confid","","","html-slider-response","890","746178","0.0-4.0-10.100-0.100","","","","Rate your confidence","1",""
"906.5","e","choice","left","e","experimental","897","748886","0.0-4.0-8.101","true","102","2.7500000000000004","","",""
"4980.5","2","confid","","","html-slider-response","899","754371","0.0-4.0-10.101-0.101","","","","Rate your confidence","1",""
"217.19999992847443","i","choice","right","i","experimental","906","756396","0.0-4.0-8.102","true","103","2.7500000000000004","","",""
"5699.699999928474","3","confid","","","html-slider-response","908","762602","0.0-4.0-10.102-0.102","","","","Rate your confidence","1",""
"2496.5","i","choice","left","e","experimental","915","766894","0.0-4.0-8.103","false","104","2.6500000000000004","","",""
"3492.5","1","confid","","","html-slider-response","917","770893","0.0-4.0-10.103-0.103","","","","Rate your confidence","1",""
"26.399999976158142","e","choice","left","e","experimental","924","772727","0.0-4.0-8.104","true","105","2.7500000000000004","","",""
"5086.800000071526","5","confid","","","html-slider-response","926","778320","0.0-4.0-10.104-0.104","","","","Rate your confidence","1",""
"661.1999999284744","i","choice","right","i","experimental","933","780771","0.0-4.0-8.105","true","106","2.7500000000000004","","",""
"4578.700000047684","2","confid","","","html-slider-response","935","785855","0.0-4.0-10.105-0.105","","","","Rate your confidence","1",""
"277.60000002384186","i","choice","right","i","experimental","942","787919","0.0-4.0-8.106","true","107","2.6500000000000004","","",""
"3360.3000000715256","2","confid","","","html-slider-response","944","791784","0.0-4.0-10.106-0.106","","","","Rate your confidence","1",""
"26.09999990463257","e","choice","left","e","experimental","951","793601","0.0-4.0-8.107","true","108","2.6500000000000004","","",""
"4089.5999999046326","5","confid","","","html-slider-response","953","798195","0.0-4.0-10.107-0.107","","","","Rate your confidence","1",""
"605.5","e","choice","right","i","experimental","960","800609","0.0-4.0-8.108","false","109","2.5500000000000003","","",""
"3679.4000000953674","3","confid","","","html-slider-response","962","804795","0.0-4.0-10.108-0.108","","","","Rate your confidence","1",""
"94.29999995231628","i","choice","left","e","experimental","969","806696","0.0-4.0-8.109","false","110","2.6500000000000004","","",""
"2395","4","confid","","","html-slider-response","971","809595","0.0-4.0-10.109-0.109","","","","Rate your confidence","1",""
"678.5","i","choice","right","i","experimental","979","1107992","0.0-4.0-8.110","true","111","2.7500000000000004","","",""
"3926.8000000715256","1","confid","","","html-slider-response","981","1112424","0.0-4.0-10.110-0.110","","","","Rate your confidence","1",""
"512.7000000476837","e","choice","left","e","experimental","988","1114714","0.0-4.0-8.111","true","112","2.7500000000000004","","",""
"2380","6","confid","","","html-slider-response","990","1117600","0.0-4.0-10.111-0.111","","","","Rate your confidence","1",""
"79.80000007152557","e","choice","right","i","experimental","997","1119463","0.0-4.0-8.112","false","113","2.6500000000000004","","",""
"2313","4","confid","","","html-slider-response","999","1122280","0.0-4.0-10.112-0.112","","","","Rate your confidence","1",""
"186.60000002384186","e","choice","left","e","experimental","1006","1124255","0.0-4.0-8.113","true","114","2.7500000000000004","","",""
"3967.7000000476837","3","confid","","","html-slider-response","1008","1128728","0.0-4.0-10.113-0.113","","","","Rate your confidence","1",""
"624","i","choice","right","i","experimental","1015","1131127","0.0-4.0-8.114","true","115","2.7500000000000004","","",""
"3127.3000000715256","2","confid","","","html-slider-response","1017","1134760","0.0-4.0-10.114-0.114","","","","Rate your confidence","1",""
"2.399999976158142","e","choice","left","e","experimental","1024","1136544","0.0-4.0-8.115","true","116","2.6500000000000004","","",""
"2712.7999999523163","5","confid","","","html-slider-response","1026","1139760","0.0-4.0-10.115-0.115","","","","Rate your confidence","1",""
"94.60000002384186","e","choice","left","e","experimental","1033","1141641","0.0-4.0-8.116","true","117","2.6500000000000004","","",""
"2804.2000000476837","6","confid","","","html-slider-response","1035","1144952","0.0-4.0-10.116-0.116","","","","Rate your confidence","1",""
"519.7000000476837","e","choice","right","i","experimental","1042","1147259","0.0-4.0-8.117","false","118","2.5500000000000003","","",""
"3921.2999999523163","4","confid","","","html-slider-response","1044","1151688","0.0-4.0-10.117-0.117","","","","Rate your confidence","1",""
"138.09999990463257","e","choice","left","e","experimental","1051","1153612","0.0-4.0-8.118","true","119","2.6500000000000004","","",""
"2177.7999999523163","5","confid","","","html-slider-response","1053","1156296","0.0-4.0-10.118-0.118","","","","Rate your confidence","1",""
"689.1000000238419","i","choice","right","i","experimental","1060","1158763","0.0-4.0-8.119","true","120","2.6500000000000004","","",""
"3405.1999999284744","1","confid","","","html-slider-response","1062","1162671","0.0-4.0-10.119-0.119","","","","Rate your confidence","1",""
"167.60000002384186","i","choice","right","i","experimental","1069","1164646","0.0-4.0-8.120","true","121","2.5500000000000003","","",""
"1888.1000000238419","3","confid","","","html-slider-response","1071","1167039","0.0-4.0-10.120-0.120","","","","Rate your confidence","1",""
"48.699999928474426","e","choice","left","e","experimental","1078","1168887","0.0-4.0-8.121","true","122","2.5500000000000003","","",""
"3725.2999999523163","5","confid","","","html-slider-response","1080","1173119","0.0-4.0-10.121-0.121","","","","Rate your confidence","1",""
"14.599999904632568","e","choice","left","e","experimental","1087","1174924","0.0-4.0-8.122","true","123","2.45","","",""
"1922.3999999761581","5","confid","","","html-slider-response","1089","1177351","0.0-4.0-10.122-0.122","","","","Rate your confidence","1",""
"2743.7999999523163","i","choice","right","i","experimental","1096","1181881","0.0-4.0-8.123","true","124","2.45","","",""
"4428.299999952316","2","confid","","","html-slider-response","1098","1186813","0.0-4.0-10.123-0.123","","","","Rate your confidence","1",""
"77.80000007152557","e","choice","right","i","experimental","1105","1188682","0.0-4.0-8.124","false","125","2.35","","",""
"1779.5","5","confid","","","html-slider-response","1107","1190968","0.0-4.0-10.124-0.124","","","","Rate your confidence","1",""
"638","e","choice","left","e","experimental","1114","1193420","0.0-4.0-8.125","true","126","2.45","","",""
"1762.5","6","confid","","","html-slider-response","1116","1195688","0.0-4.0-10.125-0.125","","","","Rate your confidence","1",""
"3684.5","e","choice","left","e","experimental","1123","1201185","0.0-4.0-8.126","true","127","2.45","","",""
"4124.900000095367","2","confid","","","html-slider-response","1125","1205816","0.0-4.0-10.126-0.126","","","","Rate your confidence","1",""
"785.1000000238419","i","choice","right","i","experimental","1132","1208400","0.0-4.0-8.127","true","128","2.35","","",""
"2822.2999999523163","4","confid","","","html-slider-response","1134","1211728","0.0-4.0-10.127-0.127","","","","Rate your confidence","1",""
"346.7000000476837","i","choice","right","i","experimental","1141","1213865","0.0-4.0-8.128","true","129","2.35","","",""
"3205","3","confid","","","html-slider-response","1143","1217576","0.0-4.0-10.128-0.128","","","","Rate your confidence","1",""
"390.60000002384186","e","choice","left","e","experimental","1150","1219755","0.0-4.0-8.129","true","130","2.25","","",""
"1659.2999999523163","5","confid","","","html-slider-response","1152","1221920","0.0-4.0-10.129-0.129","","","","Rate your confidence","1",""
"64.5","i","choice","left","e","experimental","1159","1223777","0.0-4.0-8.130","false","131","2.25","","",""
"2004.7999999523163","4","confid","","","html-slider-response","1161","1226287","0.0-4.0-10.130-0.130","","","","Rate your confidence","1",""
"1675.2000000476837","e","choice","right","i","experimental","1168","1229754","0.0-4.0-8.131","false","132","2.35","","",""
"2708.2000000476837","1","confid","","","html-slider-response","1170","1232967","0.0-4.0-10.131-0.131","","","","Rate your confidence","1",""
"1900.9000000953674","i","choice","left","e","experimental","1177","1236680","0.0-4.0-8.132","false","133","2.45","","",""
"2710.100000023842","2","confid","","","html-slider-response","1179","1239895","0.0-4.0-10.132-0.132","","","","Rate your confidence","1",""
"260.8000000715256","i","choice","right","i","experimental","1186","1241969","0.0-4.0-8.133","true","134","2.5500000000000003","","",""
"96916.30000007153","3","confid","","","html-slider-response","1188","1339391","0.0-4.0-10.133-0.133","","","","Rate your confidence","1",""
"1342.4000000953674","i","choice","left","e","experimental","1195","1342514","0.0-4.0-8.134","false","135","2.5500000000000003","","",""
"2285.100000023842","2","confid","","","html-slider-response","1197","1345303","0.0-4.0-10.134-0.134","","","","Rate your confidence","1",""
"2903","e","choice","right","i","experimental","1204","1349995","0.0-4.0-8.135","false","136","2.6500000000000004","","",""
"2394.2999999523163","2","confid","","","html-slider-response","1206","1352895","0.0-4.0-10.135-0.135","","","","Rate your confidence","1",""
"2159.399999976158","e","choice","left","e","experimental","1213","1356839","0.0-4.0-8.136","true","137","2.7500000000000004","","",""
"3223.600000023842","2","confid","","","html-slider-response","1215","1360567","0.0-4.0-10.136-0.136","","","","Rate your confidence","1",""
"26.90000009536743","i","choice","right","i","experimental","1222","1362398","0.0-4.0-8.137","true","138","2.7500000000000004","","",""
"2693.899999976158","4","confid","","","html-slider-response","1224","1365599","0.0-4.0-10.137-0.137","","","","Rate your confidence","1",""
"267.2000000476837","i","choice","right","i","experimental","1231","1367657","0.0-4.0-8.138","true","139","2.6500000000000004","","",""
"1980.2999999523163","4","confid","","","html-slider-response","1233","1370143","0.0-4.0-10.138-0.138","","","","Rate your confidence","1",""
"2590","e","choice","left","e","experimental","1240","1374521","0.0-4.0-8.139","true","140","2.6500000000000004","","",""
"2100.8000000715256","1","confid","","","html-slider-response","1242","1377127","0.0-4.0-10.139-0.139","","","","Rate your confidence","1",""
"1067.2999999523163","i","choice","right","i","experimental","1249","1380012","0.0-4.0-8.140","true","141","2.5500000000000003","","",""
"3841.5","2","confid","","","html-slider-response","1251","1384359","0.0-4.0-10.140-0.140","","","","Rate your confidence","1",""
"107.70000004768372","e","choice","left","e","experimental","1258","1386248","0.0-4.0-8.141","true","142","2.5500000000000003","","",""
"3062","5","confid","","","html-slider-response","1260","1389815","0.0-4.0-10.141-0.141","","","","Rate your confidence","1",""
"127.80000007152557","i","choice","right","i","experimental","1267","1391731","0.0-4.0-8.142","true","143","2.45","","",""
"2649.7999999523163","5","confid","","","html-slider-response","1269","1394887","0.0-4.0-10.142-0.142","","","","Rate your confidence","1",""
"288.59999990463257","e","choice","left","e","experimental","1276","1396979","0.0-4.0-8.143","true","144","2.45","","",""
"2907.9000000953674","4","confid","","","html-slider-response","1278","1400392","0.0-4.0-10.143-0.143","","","","Rate your confidence","1",""
"68.20000004768372","e","choice","right","i","experimental","1285","1402266","0.0-4.0-8.144","false","145","2.35","","",""
"2493.5","3","confid","","","html-slider-response","1287","1405264","0.0-4.0-10.144-0.144","","","","Rate your confidence","1",""
"505.90000009536743","e","choice","left","e","experimental","1294","1407582","0.0-4.0-8.145","true","146","2.45","","",""
"1896.5","5","confid","","","html-slider-response","1296","1409984","0.0-4.0-10.145-0.145","","","","Rate your confidence","1",""
"92.89999997615814","i","choice","right","i","experimental","1303","1411863","0.0-4.0-8.146","true","147","2.45","","",""
"2617.6999999284744","4","confid","","","html-slider-response","1305","1414984","0.0-4.0-10.146-0.146","","","","Rate your confidence","1",""
"174.09999990463257","i","choice","left","e","experimental","1312","1416943","0.0-4.0-8.147","false","148","2.35","","",""
"1879.1000000238419","5","confid","","","html-slider-response","1314","1419328","0.0-4.0-10.147-0.147","","","","Rate your confidence","1",""
"86.70000004768372","e","choice","right","i","experimental","1321","1421223","0.0-4.0-8.148","false","149","2.45","","",""
"2168.600000023842","5","confid","","","html-slider-response","1323","1423896","0.0-4.0-10.148-0.148","","","","Rate your confidence","1",""
"1620.6999999284744","i","choice","left","e","experimental","1330","1427316","0.0-4.0-8.149","false","150","2.5500000000000003","","",""
"3746.5","3","confid","","","html-slider-response","1332","1431568","0.0-4.0-10.149-0.149","","","","Rate your confidence","1",""
"365.7999999523163","e","choice","left","e","experimental","1339","1433724","0.0-4.0-8.150","true","151","2.6500000000000004","","",""
"2995.7000000476837","5","confid","","","html-slider-response","1341","1437224","0.0-4.0-10.150-0.150","","","","Rate your confidence","1",""
"124.20000004768372","i","choice","right","i","experimental","1348","1439121","0.0-4.0-8.151","true","152","2.6500000000000004","","",""
"4917.200000047684","4","confid","","","html-slider-response","1350","1444544","0.0-4.0-10.151-0.151","","","","Rate your confidence","1",""
"742.4000000953674","e","choice","left","e","experimental","1358","1455102","0.0-4.0-8.152","true","153","2.5500000000000003","","",""
"2474.399999976158","1","confid","","","html-slider-response","1360","1458080","0.0-4.0-10.152-0.152","","","","Rate your confidence","1",""
"124.60000002384186","i","choice","right","i","experimental","1367","1459984","0.0-4.0-8.153","true","154","2.5500000000000003","","",""
"337680.5","2","confid","","","html-slider-response","1369","1798169","0.0-4.0-10.153-0.153","","","","Rate your confidence","1",""
"1009.2999999523163","i","choice","right","i","experimental","1376","1800988","0.0-4.0-8.154","true","155","2.45","","",""
"2971.399999976158","4","confid","","","html-slider-response","1378","1804464","0.0-4.0-10.154-0.154","","","","Rate your confidence","1",""
"221.70000004768372","e","choice","left","e","experimental","1385","1806477","0.0-4.0-8.155","true","156","2.45","","",""
"3155.9000000953674","5","confid","","","html-slider-response","1387","1810136","0.0-4.0-10.155-0.155","","","","Rate your confidence","1",""
"5.799999952316284","e","choice","left","e","experimental","1394","1811921","0.0-4.0-8.156","true","157","2.35","","",""
"3024.100000023842","6","confid","","","html-slider-response","1396","1815448","0.0-4.0-10.156-0.156","","","","Rate your confidence","1",""
"52.200000047683716","e","choice","right","i","experimental","1403","1817279","0.0-4.0-8.157","false","158","2.35","","",""
"2151.899999976158","5","confid","","","html-slider-response","1405","1819936","0.0-4.0-10.157-0.157","","","","Rate your confidence","1",""
"201.10000002384186","e","choice","left","e","experimental","1412","1821940","0.0-4.0-8.158","true","159","2.45","","",""
"2899.7999999523163","5","confid","","","html-slider-response","1414","1825345","0.0-4.0-10.158-0.158","","","","Rate your confidence","1",""
"297.59999990463257","e","choice","right","i","experimental","1421","1827444","0.0-4.0-8.159","false","160","2.45","","",""
"7471.199999928474","1","confid","","","html-slider-response","1423","1835424","0.0-4.0-10.159-0.159","","","","Rate your confidence","1",""
"264.39999997615814","e","choice","left","e","experimental","1430","1837467","0.0-4.0-8.160","true","161","2.5500000000000003","","",""
"3227.600000023842","5","confid","","","html-slider-response","1432","1841200","0.0-4.0-10.160-0.160","","","","Rate your confidence","1",""
"2471.2000000476837","i","choice","right","i","experimental","1439","1845471","0.0-4.0-8.161","true","162","2.5500000000000003","","",""
"3616.100000023842","3","confid","","","html-slider-response","1441","1849600","0.0-4.0-10.161-0.161","","","","Rate your confidence","1",""
"966.1999999284744","e","choice","right","i","experimental","1448","1852357","0.0-4.0-8.162","false","163","2.45","","",""
"1800.8999999761581","4","confid","","","html-slider-response","1450","1854664","0.0-4.0-10.162-0.162","","","","Rate your confidence","1",""
"560.3000000715256","i","choice","left","e","experimental","1457","1857000","0.0-4.0-8.163","false","164","2.5500000000000003","","",""
"2560.8000000715256","1","confid","","","html-slider-response","1459","1860064","0.0-4.0-10.163-0.163","","","","Rate your confidence","1",""
"773.6000000238419","e","choice","right","i","experimental","1466","1862636","0.0-4.0-8.164","false","165","2.6500000000000004","","",""
"1968.1000000238419","4","confid","","","html-slider-response","1468","1865112","0.0-4.0-10.164-0.164","","","","Rate your confidence","1",""
"2955.600000023842","e","choice","left","e","experimental","1475","1869857","0.0-4.0-8.165","true","166","2.7500000000000004","","",""
"2136.100000023842","1","confid","","","html-slider-response","1477","1872496","0.0-4.0-10.165-0.165","","","","Rate your confidence","1",""
"424.60000002384186","i","choice","right","i","experimental","1484","1874709","0.0-4.0-8.166","true","167","2.7500000000000004","","",""
"5615.699999928474","3","confid","","","html-slider-response","1486","1880856","0.0-4.0-10.166-0.166","","","","Rate your confidence","1",""
"2256","i","choice","left","e","experimental","1493","1884900","0.0-4.0-8.167","false","168","2.6500000000000004","","",""
"3421.399999976158","2","confid","","","html-slider-response","1495","1888824","0.0-4.0-10.167-0.167","","","","Rate your confidence","1",""
"481.60000002384186","i","choice","left","e","experimental","1502","1891144","0.0-4.0-8.168","false","169","2.7500000000000004","","",""
"1950.3000000715256","5","confid","","","html-slider-response","1504","1893601","0.0-4.0-10.168-0.168","","","","Rate your confidence","1",""
"1129.8999999761581","e","choice","right","i","experimental","1511","1896536","0.0-4.0-8.169","false","170","2.8500000000000005","","",""
"2405.3000000715256","3","confid","","","html-slider-response","1513","1899448","0.0-4.0-10.169-0.169","","","","Rate your confidence","1",""
"54.89999997615814","i","choice","right","i","experimental","1520","1901299","0.0-4.0-8.170","true","171","2.9500000000000006","","",""
"3485.5","5","confid","","","html-slider-response","1522","1905288","0.0-4.0-10.170-0.170","","","","Rate your confidence","1",""
"105.30000007152557","i","choice","left","e","experimental","1529","1907188","0.0-4.0-8.171","false","172","2.9500000000000006","","",""
"2012.2999999523163","5","confid","","","html-slider-response","1531","1909705","0.0-4.0-10.171-0.171","","","","Rate your confidence","1",""
"138.80000007152557","i","choice","left","e","experimental","1538","1911639","0.0-4.0-8.172","false","173","3.0500000000000007","","",""
"2847.399999976158","6","confid","","","html-slider-response","1540","1914992","0.0-4.0-10.172-0.172","","","","Rate your confidence","1",""
"241.79999995231628","i","choice","right","i","experimental","1547","1917024","0.0-4.0-8.173","true","174","3.150000000000001","","",""
"3528.1999999284744","4","confid","","","html-slider-response","1549","1921057","0.0-4.0-10.173-0.173","","","","Rate your confidence","1",""
"101.69999992847443","e","choice","left","e","experimental","1556","1922938","0.0-4.0-8.174","true","175","3.150000000000001","","",""
"1925.8999999761581","5","confid","","","html-slider-response","1558","1925369","0.0-4.0-10.174-0.174","","","","Rate your confidence","1",""
"55.199999928474426","e","choice","right","i","experimental","1565","1927254","0.0-4.0-8.175","false","176","3.0500000000000007","","",""
"3801.1999999284744","4","confid","","","html-slider-response","1567","1931563","0.0-4.0-10.175-0.175","","","","Rate your confidence","1",""
"1035.3999999761581","i","choice","right","i","experimental","1574","1934388","0.0-4.0-8.176","true","177","3.150000000000001","","",""
"1794.3999999761581","5","confid","","","html-slider-response","1576","1936697","0.0-4.0-10.176-0.176","","","","Rate your confidence","1",""
"106","i","choice","left","e","experimental","1583","1938594","0.0-4.0-8.177","false","178","3.150000000000001","","",""
"4296.899999976158","3","confid","","","html-slider-response","1585","1943425","0.0-4.0-10.177-0.177","","","","Rate your confidence","1",""
"235.5","e","choice","left","e","experimental","1592","1945444","0.0-4.0-8.178","true","179","3.250000000000001","","",""
"1930.8999999761581","5","confid","","","html-slider-response","1594","1947881","0.0-4.0-10.178-0.178","","","","Rate your confidence","1",""
"11.399999976158142","i","choice","right","i","experimental","1601","1949685","0.0-4.0-8.179","true","180","3.250000000000001","","",""
"3073.6999999284744","5","confid","","","html-slider-response","1603","1953265","0.0-4.0-10.179-0.179","","","","Rate your confidence","1",""
"2847.899999976158","i","choice","right","i","experimental","1610","1957932","0.0-4.0-8.180","true","181","3.150000000000001","","",""
"3085.9000000953674","3","confid","","","html-slider-response","1612","1961521","0.0-4.0-10.180-0.180","","","","Rate your confidence","1",""
"1839.7000000476837","e","choice","left","e","experimental","1619","1965154","0.0-4.0-8.181","true","182","3.150000000000001","","",""
"2422.5","6","confid","","","html-slider-response","1621","1968081","0.0-4.0-10.181-0.181","","","","Rate your confidence","1",""
"1982.9000000953674","i","choice","right","i","experimental","1628","1971853","0.0-4.0-8.182","true","183","3.0500000000000007","","",""
"3266.2000000476837","6","confid","","","html-slider-response","1630","1975625","0.0-4.0-10.182-0.182","","","","Rate your confidence","1",""
"2858.0999999046326","e","choice","left","e","experimental","1637","1980262","0.0-4.0-8.183","true","184","3.0500000000000007","","",""
"3619.5","5","confid","","","html-slider-response","1639","1984385","0.0-4.0-10.183-0.183","","","","Rate your confidence","1",""
"875.1999999284744","e","choice","right","i","experimental","1646","1987060","0.0-4.0-8.184","false","185","2.9500000000000006","","",""
"2196.7999999523163","6","confid","","","html-slider-response","1648","1989761","0.0-4.0-10.184-0.184","","","","Rate your confidence","1",""
"630.8999999761581","e","choice","left","e","experimental","1655","1992207","0.0-4.0-8.185","true","186","3.0500000000000007","","",""
"2065","6","confid","","","html-slider-response","1657","1994777","0.0-4.0-10.185-0.185","","","","Rate your confidence","1",""
"986.1000000238419","e","choice","right","i","experimental","1664","1997556","0.0-4.0-8.186","false","187","3.0500000000000007","","",""
"2371.0999999046326","4","confid","","","html-slider-response","1666","2000433","0.0-4.0-10.186-0.186","","","","Rate your confidence","1",""
"1562.9000000953674","e","choice","left","e","experimental","1673","2003785","0.0-4.0-8.187","true","188","3.150000000000001","","",""
"2525.5","4","confid","","","html-slider-response","1675","2006817","0.0-4.0-10.187-0.187","","","","Rate your confidence","1",""
"2080.4000000953674","e","choice","left","e","experimental","1682","2010686","0.0-4.0-8.188","true","189","3.150000000000001","","",""
"3664.7999999523163","2","confid","","","html-slider-response","1684","2014857","0.0-4.0-10.188-0.188","","","","Rate your confidence","1",""
"1362.7999999523163","i","choice","right","i","experimental","1691","2018011","0.0-4.0-8.189","true","190","3.0500000000000007","","",""
"3357.100000023842","6","confid","","","html-slider-response","1693","2021872","0.0-4.0-10.189-0.189","","","","Rate your confidence","1",""
"1161.2000000476837","e","choice","left","e","experimental","1700","2024852","0.0-4.0-8.190","true","191","3.0500000000000007","","",""
"1756.8000000715256","6","confid","","","html-slider-response","1702","2027113","0.0-4.0-10.190-0.190","","","","Rate your confidence","1",""
"3044.7999999523163","i","choice","right","i","experimental","1709","2031971","0.0-4.0-8.191","true","192","2.9500000000000006","","",""
"2627.2999999523163","3","confid","","","html-slider-response","1711","2035105","0.0-4.0-10.191-0.191","","","","Rate your confidence","1",""
"1209.5","i","choice","right","i","experimental","1718","2038106","0.0-4.0-8.192","true","193","2.9500000000000006","","",""
"1751.5999999046326","5","confid","","","html-slider-response","1720","2040377","0.0-4.0-10.192-0.192","","","","Rate your confidence","1",""
"1362.2000000476837","e","choice","left","e","experimental","1727","2043535","0.0-4.0-8.193","true","194","2.8500000000000005","","",""
"1681.1000000238419","6","confid","","","html-slider-response","1729","2045721","0.0-4.0-10.193-0.193","","","","Rate your confidence","1","44341"
