"rt","response","task","target_side","correct_response","trial_type","trial_index","time_elapsed","internal_node_id","correct","trial_number","n_dots","stimulus","slider_start","participant"
"916.2999999821186","i","choice","right","i","practice","10","68079","0.0-4.0-8.0","true","1","4.25","","",""
"358.90000000596046","e","choice","left","e","practice","18","70751","0.0-4.0-8.1","true","2","4.25","","",""
"273.2000000178814","i","choice","right","i","practice","26","73330","0.0-4.0-8.2","true","3","3.85","","",""
"614.6999999880791","e","choice","left","e","practice","34","76240","0.0-4.0-8.3","true","4","3.85","","",""
"323.69999998807907","i","choice","right","i","practice","42","78854","0.0-4.0-8.4","true","5","3.45","","",""
"264.89999997615814","e","choice","left","e","practice","50","81418","0.0-4.0-8.5","true","6","3.45","","",""
"239.40000000596046","i","choice","right","i","practice","58","83958","0.0-4.0-8.6","true","7","3.25","","",""
"258.59999999403954","e","choice","left","e","practice","66","86530","0.0-4.0-8.7","true","8","3.25","","",""
"441.2000000178814","e","choice","left","e","practice","74","89254","0.0-4.0-8.8","true","9","3.05","","",""
"265.90000000596046","i","choice","right","i","practice","82","91798","0.0-4.0-8.9","true","10","3.05","","",""
"375.69999998807907","i","choice","right","i","practice","90","94468","0.0-4.0-8.10","true","11","2.8499999999999996","","",""
"250.59999999403954","e","choice","left","e","practice","98","97027","0.0-4.0-8.11","true","12","2.8499999999999996","","",""
"241.40000000596046","e","choice","left","e","practice","106","99580","0.0-4.0-8.12","true","13","2.7499999999999996","","",""
"263.09999999403954","i","choice","right","i","practice","114","102137","0.0-4.0-8.13","true","14","2.7499999999999996","","",""
"262","i","choice","right","i","practice","122","104694","0.0-4.0-8.14","true","15","2.6499999999999995","","",""
"264.39999997615814","e","choice","left","e","practice","130","107273","0.0-4.0-8.15","true","16","2.6499999999999995","","",""
"261.2000000178814","i","choice","left","e","practice","138","109849","0.0-4.0-8.16","false","17","2.5499999999999994","","",""
"320.40000000596046","i","choice","right","i","practice","146","112463","0.0-4.0-8.17","true","18","2.6499999999999995","","",""
"298","i","choice","left","e","practice","154","115054","0.0-4.0-8.18","false","19","2.6499999999999995","","",""
"525","i","choice","right","i","practice","162","117872","0.0-4.0-8.19","true","20","2.7499999999999996","","",""
"500.40000000596046","e","choice","left","e","practice","170","120655","0.0-4.0-8.20","true","21","2.7499999999999996","","",""
"257.39999997615814","i","choice","right","i","practice","178","123208","0.0-4.0-8.21","true","22","2.6499999999999995","","",""
"260.5","e","choice","left","e","practice","186","125763","0.0-4.0-8.22","true","23","2.6499999999999995","","",""
"279.5","i","choice","right","i","practice","194","128349","0.0-4.0-8.23","true","24","2.5499999999999994","","",""
"282.59999999403954","i","choice","left","e","practice","202","130927","0.0-4.0-8.24","false","25","2.5499999999999994","","",""
"270.7000000178814","i","choice","right","i","practice","210","133491","0.0-4.0-8.25","true","26","2.6499999999999995","","",""
"230.7999999821186","i","choice","right","i","experimental","221","147939","0.0-4.0-8.26","true","27","2.6499999999999995","","",""
"3584.4000000059605","5","confid","","","html-slider-response","223","152028","0.0-4.0-10.26-0.26","","","","Rate your confidence","1",""
"284.90000000596046","i","choice","left","e","experimental","230","154103","0.0-4.0-8.27","false","28","2.5499999999999994","","",""
"2306.7000000178814","5","confid","","","html-slider-response","232","156915","0.0-4.0-10.27-0.27","","","","Rate your confidence","1",""
"270.19999998807907","i","choice","right","i","experimental","239","158977","0.0-4.0-8.28","true","29","2.6499999999999995","","",""
"4061.5","6","confid","","","html-slider-response","241","163545","0.0-4.0-10.28-0.28","","","","Rate your confidence","1",""
"264","i","choice","left","e","experimental","248","165598","0.0-4.0-8.29","false","30","2.6499999999999995","","",""
"4573.600000023842","6","confid","","","html-slider-response","250","170675","0.0-4.0-10.29-0.29","","","","Rate your confidence","1",""
"433.7999999821186","e","choice","left","e","experimental","257","172918","0.0-4.0-8.30","true","31","2.7499999999999996","","",""
"2684.4000000059605","5","confid","","","html-slider-response","259","176109","0.0-4.0-10.30-0.30","","","","Rate your confidence","1",""
"240.69999998807907","i","choice","right","i","experimental","266","178159","0.0-4.0-8.31","true","32","2.7499999999999996","","",""
"8026.5999999940395","3","confid","","","html-slider-response","268","186691","0.0-4.0-10.31-0.31","","","","Rate your confidence","1",""
"255.59999999403954","i","choice","left","e","experimental","275","188737","0.0-4.0-8.32","false","33","2.6499999999999995","","",""
"3595.699999988079","3","confid","","","html-slider-response","277","192858","0.0-4.0-10.32-0.32","","","","Rate your confidence","1",""
"256.19999998807907","i","choice","right","i","experimental","284","194915","0.0-4.0-8.33","true","34","2.7499999999999996","","",""
"2538.800000011921","6","confid","","","html-slider-response","286","197961","0.0-4.0-10.33-0.33","","","","Rate your confidence","1",""
"274.30000001192093","i","choice","right","i","experimental","293","200046","0.0-4.0-8.34","true","35","2.7499999999999996","","",""
"2561.7000000178814","6","confid","","","html-slider-response","295","203110","0.0-4.0-10.34-0.34","","","","Rate your confidence","1",""
"2073.399999976158","i","choice","left","e","experimental","302","206986","0.0-4.0-8.35","false","36","2.6499999999999995","","",""
"2692.399999976158","3","confid","","","html-slider-response","304","210183","0.0-4.0-10.35-0.35","","","","Rate your confidence","1",""
"235.09999999403954","i","choice","right","i","experimental","311","212229","0.0-4.0-8.36","true","37","2.7499999999999996","","",""
"2413.899999976158","6","confid","","","html-slider-response","313","215147","0.0-4.0-10.36-0.36","","","","Rate your confidence","1",""
"748","e","choice","left","e","experimental","320","217687","0.0-4.0-8.37","true","38","2.7499999999999996","","",""
"2285.5","5","confid","","","html-slider-response","322","220478","0.0-4.0-10.37-0.37","","","","Rate your confidence","1",""
"252.60000002384186","i","choice","left","e","experimental","329","222524","0.0-4.0-8.38","false","39","2.6499999999999995","","",""
"2340","6","confid","","","html-slider-response","331","225370","0.0-4.0-10.38-0.38","","","","Rate your confidence","1",""
"312","i","choice","right","i","experimental","338","227492","0.0-4.0-8.39","true","40","2.7499999999999996","","",""
"2504.4000000059605","3","confid","","","html-slider-response","340","230501","0.0-4.0-10.39-0.39","","","","Rate your confidence","1",""
"1486.300000011921","e","choice","left","e","experimental","347","233799","0.0-4.0-8.40","true","41","2.7499999999999996","","",""
"3155.5","3","confid","","","html-slider-response","349","237459","0.0-4.0-10.40-0.40","","","","Rate your confidence","1",""
"253","i","choice","right","i","experimental","356","239500","0.0-4.0-8.41","true","42","2.6499999999999995","","",""
"2924.800000011921","6","confid","","","html-slider-response","358","242929","0.0-4.0-10.41-0.41","","","","Rate your confidence","1",""
"356.90000000596046","i","choice","right","i","experimental","365","245078","0.0-4.0-8.42","true","43","2.6499999999999995","","",""
"2296.5","4","confid","","","html-slider-response","367","247880","0.0-4.0-10.42-0.42","","","","Rate your confidence","1",""
"373.19999998807907","e","choice","left","e","experimental","374","250062","0.0-4.0-8.43","true","44","2.5499999999999994","","",""
"1882.5999999940395","3","confid","","","html-slider-response","376","252454","0.0-4.0-10.43-0.43","","","","Rate your confidence","1",""
"867.1999999880791","e","choice","left","e","experimental","383","255114","0.0-4.0-8.44","true","45","2.5499999999999994","","",""
"2513","3","confid","","","html-slider-response","385","258131","0.0-4.0-10.44-0.44","","","","Rate your confidence","1",""
"221.39999997615814","i","choice","right","i","experimental","392","260144","0.0-4.0-8.45","true","46","2.4499999999999993","","",""
"2413.7999999821186","6","confid","","","html-slider-response","394","263083","0.0-4.0-10.45-0.45","","","","Rate your confidence","1",""
"631.3000000119209","e","choice","left","e","experimental","401","265506","0.0-4.0-8.46","true","47","2.4499999999999993","","",""
"3300.9000000059605","2","confid","","","html-slider-response","403","269311","0.0-4.0-10.46-0.46","","","","Rate your confidence","1",""
"258.39999997615814","i","choice","right","i","experimental","410","271365","0.0-4.0-8.47","true","48","2.349999999999999","","",""
"2130.4000000059605","4","confid","","","html-slider-response","412","274001","0.0-4.0-10.47-0.47","","","","Rate your confidence","1",""
"298.40000000596046","i","choice","left","e","experimental","419","276108","0.0-4.0-8.48","false","49","2.349999999999999","","",""
"2642.4000000059605","6","confid","","","html-slider-response","421","279256","0.0-4.0-10.48-0.48","","","","Rate your confidence","1",""
"251.19999998807907","i","choice","right","i","experimental","428","281301","0.0-4.0-8.49","true","50","2.4499999999999993","","",""
"2278.4000000059605","3","confid","","","html-slider-response","430","284085","0.0-4.0-10.49-0.49","","","","Rate your confidence","1",""
"275","i","choice","right","i","experimental","437","286148","0.0-4.0-8.50","true","51","2.4499999999999993","","",""
"2364.9000000059605","6","confid","","","html-slider-response","439","289018","0.0-4.0-10.50-0.50","","","","Rate your confidence","1",""
"590.4000000059605","i","choice","left","e","experimental","446","291403","0.0-4.0-8.51","false","52","2.349999999999999","","",""
"2015.199999988079","4","confid","","","html-slider-response","448","293925","0.0-4.0-10.51-0.51","","","","Rate your confidence","1",""
"218.09999999403954","i","choice","right","i","experimental","455","295969","0.0-4.0-8.52","true","53","2.4499999999999993","","",""
"4640.4000000059605","2","confid","","","html-slider-response","457","301117","0.0-4.0-10.52-0.52","","","","Rate your confidence","1",""
"690.8999999761581","e","choice","left","e","experimental","464","303615","0.0-4.0-8.53","true","54","2.4499999999999993","","",""
"2207.699999988079","2","confid","","","html-slider-response","466","306329","0.0-4.0-10.53-0.53","","","","Rate your confidence","1",""
"283.09999999403954","i","choice","right","i","experimental","473","308405","0.0-4.0-8.54","true","55","2.349999999999999","","",""
"2379.5","6","confid","","","html-slider-response","475","311290","0.0-4.0-10.54-0.54","","","","Rate your confidence","1",""
"295.90000000596046","i","choice","left","e","experimental","482","313375","0.0-4.0-8.55","false","56","2.349999999999999","","",""
"3759.399999976158","1","confid","","","html-slider-response","484","317639","0.0-4.0-10.55-0.55","","","","Rate your confidence","1",""
"707.0999999940395","e","choice","left","e","experimental","491","320137","0.0-4.0-8.56","true","57","2.4499999999999993","","",""
"2502.300000011921","4","confid","","","html-slider-response","493","323146","0.0-4.0-10.56-0.56","","","","Rate your confidence","1",""
"210.59999999403954","i","choice","right","i","experimental","500","325168","0.0-4.0-8.57","true","58","2.4499999999999993","","",""
"1927","5","confid","","","html-slider-response","502","327600","0.0-4.0-10.57-0.57","","","","Rate your confidence","1",""
"237.40000000596046","i","choice","left","e","experimental","509","329625","0.0-4.0-8.58","false","59","2.349999999999999","","",""
"3187.7000000178814","6","confid","","","html-slider-response","511","333318","0.0-4.0-10.58-0.58","","","","Rate your confidence","1",""
"239.30000001192093","i","choice","right","i","experimental","518","335368","0.0-4.0-8.59","true","60","2.4499999999999993","","",""
"2562.2000000178814","6","confid","","","html-slider-response","520","338436","0.0-4.0-10.59-0.59","","","","Rate your confidence","1",""
"244.59999999403954","i","choice","right","i","experimental","527","340472","0.0-4.0-8.60","true","61","2.4499999999999993","","",""
"3845.2000000178814","6","confid","","","html-slider-response","529","344821","0.0-4.0-10.60-0.60","","","","Rate your confidence","1",""
"231.2000000178814","i","choice","left","e","experimental","536","346839","0.0-4.0-8.61","false","62","2.349999999999999","","",""
"2190.300000011921","5","confid","","","html-slider-response","538","349555","0.0-4.0-10.61-0.61","","","","Rate your confidence","1",""
"258","i","choice","right","i","experimental","545","351607","0.0-4.0-8.62","true","63","2.4499999999999993","","",""
"3059.0999999940395","6","confid","","","html-slider-response","547","355171","0.0-4.0-10.62-0.62","","","","Rate your confidence","1",""
"381.40000000596046","e","choice","left","e","experimental","554","357363","0.0-4.0-8.63","true","64","2.4499999999999993","","",""
"3115.199999988079","4","confid","","","html-slider-response","556","360984","0.0-4.0-10.63-0.63","","","","Rate your confidence","1",""
"261.40000000596046","i","choice","left","e","experimental","563","363055","0.0-4.0-8.64","false","65","2.349999999999999","","",""
"1991.7999999821186","2","confid","","","html-slider-response","565","365554","0.0-4.0-10.64-0.64","","","","Rate your confidence","1",""
"244.09999999403954","i","choice","right","i","experimental","572","367591","0.0-4.0-8.65","true","66","2.4499999999999993","","",""
"3453.5999999940395","6","confid","","","html-slider-response","574","371548","0.0-4.0-10.65-0.65","","","","Rate your confidence","1",""
"243.80000001192093","i","choice","right","i","experimental","581","373582","0.0-4.0-8.66","true","67","2.4499999999999993","","",""
"2387.699999988079","4","confid","","","html-slider-response","583","376474","0.0-4.0-10.66-0.66","","","","Rate your confidence","1",""
"295.90000000596046","e","choice","left","e","experimental","590","378555","0.0-4.0-8.67","true","68","2.349999999999999","","",""
"4136.699999988079","6","confid","","","html-slider-response","592","383195","0.0-4.0-10.67-0.67","","","","Rate your confidence","1",""
"58.30000001192093","i","choice","right","i","experimental","600","517118","0.0-4.0-8.68","true","69","2.349999999999999","","",""
"2120.5","6","confid","","","html-slider-response","602","519743","0.0-4.0-10.68-0.68","","","","Rate your confidence","1",""
"217.80000001192093","i","choice","left","e","experimental","609","521754","0.0-4.0-8.69","false","70","2.249999999999999","","",""
"2184.4000000059605","4","confid","","","html-slider-response","611","524443","0.0-4.0-10.69-0.69","","","","Rate your confidence","1",""
"230.2999999821186","i","choice","left","e","experimental","618","526463","0.0-4.0-8.70","false","71","2.349999999999999","","",""
"3621.300000011921","3","confid","","","html-slider-response","620","530590","0.0-4.0-10.70-0.70","","","","Rate your confidence","1",""
"290.59999999403954","i","choice","right","i","experimental","627","532695","0.0-4.0-8.71","true","72","2.4499999999999993","","",""
"2637.9000000059605","6","confid","","","html-slider-response","629","535836","0.0-4.0-10.71-0.71","","","","Rate your confidence","1",""
"799.5999999940395","i","choice","left","e","experimental","636","538443","0.0-4.0-8.72","false","73","2.4499999999999993","","",""
"2212.0999999940395","3","confid","","","html-slider-response","638","541159","0.0-4.0-10.72-0.72","","","","Rate your confidence","1",""
"511.2000000178814","e","choice","right","i","experimental","645","543469","0.0-4.0-8.73","false","74","2.5499999999999994","","",""
"2384.699999988079","2","confid","","","html-slider-response","647","546378","0.0-4.0-10.73-0.73","","","","Rate your confidence","1",""
"1043","i","choice","right","i","experimental","654","549209","0.0-4.0-8.74","true","75","2.6499999999999995","","",""
"2091.899999976158","2","confid","","","html-slider-response","656","551806","0.0-4.0-10.74-0.74","","","","Rate your confidence","1",""
"634","i","choice","left","e","experimental","663","554236","0.0-4.0-8.75","false","76","2.6499999999999995","","",""
"2616.5","2","confid","","","html-slider-response","665","557357","0.0-4.0-10.75-0.75","","","","Rate your confidence","1",""
"231","i","choice","right","i","experimental","672","559395","0.0-4.0-8.76","true","77","2.7499999999999996","","",""
"2051.800000011921","6","confid","","","html-slider-response","674","561953","0.0-4.0-10.76-0.76","","","","Rate your confidence","1",""
"395.69999998807907","e","choice","left","e","experimental","681","564159","0.0-4.0-8.77","true","78","2.7499999999999996","","",""
"2577.9000000059605","5","confid","","","html-slider-response","683","567242","0.0-4.0-10.77-0.77","","","","Rate your confidence","1",""
"662.5","e","choice","left","e","experimental","690","569691","0.0-4.0-8.78","true","79","2.6499999999999995","","",""
"4457.5999999940395","5","confid","","","html-slider-response","692","574654","0.0-4.0-10.78-0.78","","","","Rate your confidence","1",""
"290.10000002384186","i","choice","right","i","experimental","699","576737","0.0-4.0-8.79","true","80","2.6499999999999995","","",""
"2775.9000000059605","5","confid","","","html-slider-response","701","580017","0.0-4.0-10.79-0.79","","","","Rate your confidence","1",""
"206.7999999821186","i","choice","right","i","experimental","708","582026","0.0-4.0-8.80","true","81","2.5499999999999994","","",""
"2076.5","6","confid","","","html-slider-response","710","584608","0.0-4.0-10.80-0.80","","","","Rate your confidence","1",""
"284.09999999403954","e","choice","left","e","experimental","717","586685","0.0-4.0-8.81","true","82","2.5499999999999994","","",""
"2456.800000011921","6","confid","","","html-slider-response","719","589647","0.0-4.0-10.81-0.81","","","","Rate your confidence","1",""
"541.3000000119209","e","choice","right","i","experimental","726","591983","0.0-4.0-8.82","false","83","2.4499999999999993","","",""
"3154.2000000178814","6","confid","","","html-slider-response","728","595641","0.0-4.0-10.82-0.82","","","","Rate your confidence","1",""
"226","e","choice","left","e","experimental","735","597658","0.0-4.0-8.83","true","84","2.5499999999999994","","",""
"2141.7000000178814","6","confid","","","html-slider-response","737","600306","0.0-4.0-10.83-0.83","","","","Rate your confidence","1",""
"317.2000000178814","i","choice","left","e","experimental","744","602434","0.0-4.0-8.84","false","85","2.5499999999999994","","",""
"3049.7999999821186","1","confid","","","html-slider-response","746","605989","0.0-4.0-10.84-0.84","","","","Rate your confidence","1",""
"231.2000000178814","i","choice","right","i","experimental","753","608012","0.0-4.0-8.85","true","86","2.6499999999999995","","",""
"2249.399999976158","6","confid","","","html-slider-response","755","610766","0.0-4.0-10.85-0.85","","","","Rate your confidence","1",""
"249.2000000178814","i","choice","right","i","experimental","762","612808","0.0-4.0-8.86","true","87","2.6499999999999995","","",""
"3037.800000011921","3","confid","","","html-slider-response","764","616351","0.0-4.0-10.86-0.86","","","","Rate your confidence","1",""
"270.5","i","choice","left","e","experimental","771","618416","0.0-4.0-8.87","false","88","2.5499999999999994","","",""
"2343.699999988079","2","confid","","","html-slider-response","773","621264","0.0-4.0-10.87-0.87","","","","Rate your confidence","1",""
"146.10000002384186","i","choice","right","i","experimental","780","623198","0.0-4.0-8.88","true","89","2.6499999999999995","","",""
"4967.800000011921","6","confid","","","html-slider-response","782","628670","0.0-4.0-10.88-0.88","","","","Rate your confidence","1",""
"293.7000000178814","e","choice","left","e","experimental","789","630753","0.0-4.0-8.89","true","90","2.6499999999999995","","",""
"2178.100000023842","3","confid","","","html-slider-response","791","633436","0.0-4.0-10.89-0.89","","","","Rate your confidence","1",""
"257","i","choice","right","i","experimental","798","635485","0.0-4.0-8.90","true","91","2.5499999999999994","","",""
"2311.7000000178814","5","confid","","","html-slider-response","800","638302","0.0-4.0-10.90-0.90","","","","Rate your confidence","1",""
"1037.199999988079","e","choice","left","e","experimental","807","641131","0.0-4.0-8.91","true","92","2.5499999999999994","","",""
"2719.5999999940395","2","confid","","","html-slider-response","809","644358","0.0-4.0-10.91-0.91","","","","Rate your confidence","1",""
"212.30000001192093","i","choice","right","i","experimental","816","646383","0.0-4.0-8.92","true","93","2.4499999999999993","","",""
"2150","6","confid","","","html-slider-response","818","649040","0.0-4.0-10.92-0.92","","","","Rate your confidence","1",""
"524.0999999940395","e","choice","left","e","experimental","825","651356","0.0-4.0-8.93","true","94","2.4499999999999993","","",""
"2901.5","5","confid","","","html-slider-response","827","654762","0.0-4.0-10.93-0.93","","","","Rate your confidence","1",""
"206.39999997615814","i","choice","right","i","experimental","834","656780","0.0-4.0-8.94","true","95","2.349999999999999","","",""
"2323.7999999821186","5","confid","","","html-slider-response","836","659611","0.0-4.0-10.94-0.94","","","","Rate your confidence","1",""
"717.6999999880791","e","choice","left","e","experimental","843","662122","0.0-4.0-8.95","true","96","2.349999999999999","","",""
"4240.5999999940395","3","confid","","","html-slider-response","845","666870","0.0-4.0-10.95-0.95","","","","Rate your confidence","1",""
"262.09999999403954","i","choice","left","e","experimental","852","668926","0.0-4.0-8.96","false","97","2.249999999999999","","",""
"3813.199999988079","3","confid","","","html-slider-response","854","673243","0.0-4.0-10.96-0.96","","","","Rate your confidence","1",""
"1034.5999999940395","i","choice","right","i","experimental","861","676072","0.0-4.0-8.97","true","98","2.349999999999999","","",""
"2265.699999988079","3","confid","","","html-slider-response","863","678843","0.0-4.0-10.97-0.97","","","","Rate your confidence","1",""
"1341.1000000238419","i","choice","left","e","experimental","870","681980","0.0-4.0-8.98","false","99","2.349999999999999","","",""
"2442.5999999940395","1","confid","","","html-slider-response","872","684930","0.0-4.0-10.98-0.98","","","","Rate your confidence","1",""
"152.30000001192093","i","choice","right","i","experimental","879","686875","0.0-4.0-8.99","true","100","2.4499999999999993","","",""
"4769","6","confid","","","html-slider-response","881","692149","0.0-4.0-10.99-0.99","","","","Rate your confidence","1",""
"58.19999998807907","i","choice","right","i","experimental","888","694001","0.0-4.0-8.100","true","101","2.4499999999999993","","",""
"3348.9000000059605","4","confid","","","html-slider-response","890","697853","0.0-4.0-10.100-0.100","","","","Rate your confidence","1",""
"902.9000000059605","e","choice","left","e","experimental","897","700561","0.0-4.0-8.101","true","102","2.349999999999999","","",""
"2059.600000023842","5","confid","","","html-slider-response","899","703128","0.0-4.0-10.101-0.101","","","","Rate your confidence","1",""
"399.40000000596046","e","choice","left","e","experimental","906","705322","0.0-4.0-8.102","true","103","2.349999999999999","","",""
"2546.800000011921","4","confid","","","html-slider-response","908","708375","0.0-4.0-10.102-0.102","","","","Rate your confidence","1",""
"431.2000000178814","i","choice","right","i","experimental","915","710622","0.0-4.0-8.103","true","104","2.249999999999999","","",""
"1929.2999999821186","5","confid","","","html-slider-response","917","713057","0.0-4.0-10.103-0.103","","","","Rate your confidence","1",""
"368.19999998807907","i","choice","right","i","experimental","924","715219","0.0-4.0-8.104","true","105","2.249999999999999","","",""
"2873.800000011921","5","confid","","","html-slider-response","926","718601","0.0-4.0-10.104-0.104","","","","Rate your confidence","1",""
"465.40000000596046","i","choice","left","e","experimental","933","720880","0.0-4.0-8.105","false","106","2.149999999999999","","",""
"3416.699999988079","3","confid","","","html-slider-response","935","724800","0.0-4.0-10.105-0.105","","","","Rate your confidence","1",""
"1065.0999999940395","e","choice","left","e","experimental","942","727685","0.0-4.0-8.106","true","107","2.249999999999999","","",""
"2557.9000000059605","3","confid","","","html-slider-response","944","730747","0.0-4.0-10.106-0.106","","","","Rate your confidence","1",""
"221.09999999403954","i","choice","right","i","experimental","951","732762","0.0-4.0-8.107","true","108","2.249999999999999","","",""
"2280.5999999940395","6","confid","","","html-slider-response","953","735546","0.0-4.0-10.107-0.107","","","","Rate your confidence","1",""
"539.7999999821186","e","choice","left","e","experimental","960","737878","0.0-4.0-8.108","true","109","2.149999999999999","","",""
"2964.7999999821186","3","confid","","","html-slider-response","962","741355","0.0-4.0-10.108-0.108","","","","Rate your confidence","1",""
"233.69999998807907","i","choice","right","i","experimental","969","743381","0.0-4.0-8.109","true","110","2.149999999999999","","",""
"2407.9000000059605","6","confid","","","html-slider-response","971","746295","0.0-4.0-10.109-0.109","","","","Rate your confidence","1",""
"1280.699999988079","i","choice","right","i","experimental","979","922250","0.0-4.0-8.110","true","111","2.049999999999999","","",""
"5813","6","confid","","","html-slider-response","981","928570","0.0-4.0-10.110-0.110","","","","Rate your confidence","1",""
"328","e","choice","left","e","experimental","988","930680","0.0-4.0-8.111","true","112","2.049999999999999","","",""
"2504.2000000178814","2","confid","","","html-slider-response","990","933689","0.0-4.0-10.111-0.111","","","","Rate your confidence","1",""
"365.19999998807907","e","choice","left","e","experimental","997","935866","0.0-4.0-8.112","true","113","1.9499999999999988","","",""
"2885.2000000178814","2","confid","","","html-slider-response","999","939258","0.0-4.0-10.112-0.112","","","","Rate your confidence","1",""
"248.2000000178814","i","choice","right","i","experimental","1006","941319","0.0-4.0-8.113","true","114","1.9499999999999988","","",""
"2338.300000011921","2","confid","","","html-slider-response","1008","944163","0.0-4.0-10.113-0.113","","","","Rate your confidence","1",""
"234.7000000178814","i","choice","right","i","experimental","1015","946188","0.0-4.0-8.114","true","115","1.8499999999999988","","",""
"2379.9000000059605","2","confid","","","html-slider-response","1017","949071","0.0-4.0-10.114-0.114","","","","Rate your confidence","1",""
"263.2999999821186","i","choice","left","e","experimental","1024","951129","0.0-4.0-8.115","false","116","1.8499999999999988","","",""
"1916.7999999821186","2","confid","","","html-slider-response","1026","953552","0.0-4.0-10.115-0.115","","","","Rate your confidence","1",""
"245.59999999403954","i","choice","right","i","experimental","1033","955596","0.0-4.0-8.116","true","117","1.9499999999999988","","",""
"3706","2","confid","","","html-slider-response","1035","959807","0.0-4.0-10.116-0.116","","","","Rate your confidence","1",""
"240.19999998807907","i","choice","left","e","experimental","1042","961859","0.0-4.0-8.117","false","118","1.9499999999999988","","",""
"2394.4000000059605","2","confid","","","html-slider-response","1044","964757","0.0-4.0-10.117-0.117","","","","Rate your confidence","1",""
"232.09999999403954","i","choice","right","i","experimental","1051","966801","0.0-4.0-8.118","true","119","2.049999999999999","","",""
"2374.5999999940395","5","confid","","","html-slider-response","1053","969681","0.0-4.0-10.118-0.118","","","","Rate your confidence","1",""
"1296.9000000059605","i","choice","left","e","experimental","1060","972775","0.0-4.0-8.119","false","120","2.049999999999999","","",""
"2818.199999988079","1","confid","","","html-slider-response","1062","976098","0.0-4.0-10.119-0.119","","","","Rate your confidence","1",""
"236.19999998807907","i","choice","left","e","experimental","1069","978128","0.0-4.0-8.120","false","121","2.149999999999999","","",""
"2613","1","confid","","","html-slider-response","1071","981247","0.0-4.0-10.120-0.120","","","","Rate your confidence","1",""
"256.7000000178814","i","choice","right","i","experimental","1078","983300","0.0-4.0-8.121","true","122","2.249999999999999","","",""
"2727.4000000059605","6","confid","","","html-slider-response","1080","986533","0.0-4.0-10.121-0.121","","","","Rate your confidence","1",""
"282.09999999403954","i","choice","right","i","experimental","1087","988613","0.0-4.0-8.122","true","123","2.249999999999999","","",""
"1992.5","2","confid","","","html-slider-response","1089","991110","0.0-4.0-10.122-0.122","","","","Rate your confidence","1",""
"235","i","choice","left","e","experimental","1096","993160","0.0-4.0-8.123","false","124","2.149999999999999","","",""
"2137.4000000059605","6","confid","","","html-slider-response","1098","995804","0.0-4.0-10.123-0.123","","","","Rate your confidence","1",""
"487.19999998807907","e","choice","left","e","experimental","1105","998106","0.0-4.0-8.124","true","125","2.249999999999999","","",""
"2518.699999988079","6","confid","","","html-slider-response","1107","1001129","0.0-4.0-10.124-0.124","","","","Rate your confidence","1",""
"241.19999998807907","i","choice","right","i","experimental","1114","1003165","0.0-4.0-8.125","true","126","2.249999999999999","","",""
"1915.5999999940395","5","confid","","","html-slider-response","1116","1005585","0.0-4.0-10.125-0.125","","","","Rate your confidence","1",""
"497.7999999821186","i","choice","right","i","experimental","1123","1007876","0.0-4.0-8.126","true","127","2.149999999999999","","",""
"2209.0999999940395","5","confid","","","html-slider-response","1125","1010590","0.0-4.0-10.126-0.126","","","","Rate your confidence","1",""
"365.59999999403954","e","choice","left","e","experimental","1132","1012749","0.0-4.0-8.127","true","128","2.149999999999999","","",""
"2377.5999999940395","5","confid","","","html-slider-response","1134","1015633","0.0-4.0-10.127-0.127","","","","Rate your confidence","1",""
"244.7000000178814","e","choice","left","e","experimental","1141","1017689","0.0-4.0-8.128","true","129","2.049999999999999","","",""
"2378.5","3","confid","","","html-slider-response","1143","1020573","0.0-4.0-10.128-0.128","","","","Rate your confidence","1",""
"460.90000000596046","i","choice","right","i","experimental","1150","1022850","0.0-4.0-8.129","true","130","2.049999999999999","","",""
"2201.5999999940395","5","confid","","","html-slider-response","1152","1025559","0.0-4.0-10.129-0.129","","","","Rate your confidence","1",""
"831.8000000119209","i","choice","left","e","experimental","1159","1028204","0.0-4.0-8.130","false","131","1.9499999999999988","","",""
"2388.699999988079","2","confid","","","html-slider-response","1161","1031099","0.0-4.0-10.130-0.130","","","","Rate your confidence","1",""
"616.8000000119209","e","choice","right","i","experimental","1168","1033510","0.0-4.0-8.131","false","132","2.049999999999999","","",""
"3404.7000000178814","6","confid","","","html-slider-response","1170","1037421","0.0-4.0-10.131-0.131","","","","Rate your confidence","1",""
"523.7000000178814","i","choice","left","e","experimental","1177","1039735","0.0-4.0-8.132","false","133","2.149999999999999","","",""
"2401.899999976158","5","confid","","","html-slider-response","1179","1042644","0.0-4.0-10.132-0.132","","","","Rate your confidence","1",""
"242.09999999403954","i","choice","right","i","experimental","1186","1044679","0.0-4.0-8.133","true","134","2.249999999999999","","",""
"2067.2000000178814","6","confid","","","html-slider-response","1188","1047251","0.0-4.0-10.133-0.133","","","","Rate your confidence","1",""
"241.80000001192093","i","choice","right","i","experimental","1195","1049287","0.0-4.0-8.134","true","135","2.249999999999999","","",""
"2825","5","confid","","","html-slider-response","1197","1052619","0.0-4.0-10.134-0.134","","","","Rate your confidence","1",""
"305.69999998807907","e","choice","left","e","experimental","1204","1054739","0.0-4.0-8.135","true","136","2.149999999999999","","",""
"2352.0999999940395","2","confid","","","html-slider-response","1206","1057597","0.0-4.0-10.135-0.135","","","","Rate your confidence","1",""
"324.40000000596046","e","choice","left","e","experimental","1213","1059715","0.0-4.0-8.136","true","137","2.149999999999999","","",""
"3616.9000000059605","6","confid","","","html-slider-response","1215","1063845","0.0-4.0-10.136-0.136","","","","Rate your confidence","1",""
"267.90000000596046","i","choice","right","i","experimental","1222","1065912","0.0-4.0-8.137","true","138","2.049999999999999","","",""
"2592.4000000059605","6","confid","","","html-slider-response","1224","1069011","0.0-4.0-10.137-0.137","","","","Rate your confidence","1",""
"225.19999998807907","i","choice","right","i","experimental","1231","1071029","0.0-4.0-8.138","true","139","2.049999999999999","","",""
"3325.199999988079","3","confid","","","html-slider-response","1233","1074863","0.0-4.0-10.138-0.138","","","","Rate your confidence","1",""
"239.90000000596046","e","choice","left","e","experimental","1240","1076915","0.0-4.0-8.139","true","140","1.9499999999999988","","",""
"2050.399999976158","6","confid","","","html-slider-response","1242","1079471","0.0-4.0-10.139-0.139","","","","Rate your confidence","1",""
"228.90000000596046","i","choice","left","e","experimental","1249","1081493","0.0-4.0-8.140","false","141","1.9499999999999988","","",""
"2547.0999999940395","6","confid","","","html-slider-response","1251","1084546","0.0-4.0-10.140-0.140","","","","Rate your confidence","1",""
"670.9000000059605","e","choice","right","i","experimental","1258","1087012","0.0-4.0-8.141","false","142","2.049999999999999","","",""
"2975.5","4","confid","","","html-slider-response","1260","1090493","0.0-4.0-10.141-0.141","","","","Rate your confidence","1",""
"222.69999998807907","i","choice","left","e","experimental","1267","1092524","0.0-4.0-8.142","false","143","2.149999999999999","","",""
"1952.2999999821186","6","confid","","","html-slider-response","1269","1094981","0.0-4.0-10.142-0.142","","","","Rate your confidence","1",""
"214.59999999403954","i","choice","right","i","experimental","1276","1096990","0.0-4.0-8.143","true","144","2.249999999999999","","",""
"2201.7999999821186","6","confid","","","html-slider-response","1278","1099698","0.0-4.0-10.143-0.143","","","","Rate your confidence","1",""
"384.40000000596046","e","choice","right","i","experimental","1285","1101879","0.0-4.0-8.144","false","145","2.249999999999999","","",""
"3211.4000000059605","6","confid","","","html-slider-response","1287","1105596","0.0-4.0-10.144-0.144","","","","Rate your confidence","1",""
"236.80000001192093","e","choice","left","e","experimental","1294","1107628","0.0-4.0-8.145","true","146","2.349999999999999","","",""
"2549.800000011921","6","confid","","","html-slider-response","1296","1110707","0.0-4.0-10.145-0.145","","","","Rate your confidence","1",""
"221.2000000178814","i","choice","right","i","experimental","1303","1112719","0.0-4.0-8.146","true","147","2.349999999999999","","",""
"2002.7000000178814","6","confid","","","html-slider-response","1305","1115227","0.0-4.0-10.146-0.146","","","","Rate your confidence","1",""
"267.80000001192093","e","choice","left","e","experimental","1312","1117289","0.0-4.0-8.147","true","148","2.249999999999999","","",""
"2244.2000000178814","6","confid","","","html-slider-response","1314","1120040","0.0-4.0-10.147-0.147","","","","Rate your confidence","1",""
"205.60000002384186","i","choice","right","i","experimental","1321","1122037","0.0-4.0-8.148","true","149","2.249999999999999","","",""
"2456.7999999821186","6","confid","","","html-slider-response","1323","1125000","0.0-4.0-10.148-0.148","","","","Rate your confidence","1",""
"324.7999999821186","e","choice","left","e","experimental","1330","1127140","0.0-4.0-8.149","true","150","2.149999999999999","","",""
"1990.7000000178814","6","confid","","","html-slider-response","1332","1129637","0.0-4.0-10.149-0.149","","","","Rate your confidence","1",""
"209.69999998807907","i","choice","right","i","experimental","1339","1131640","0.0-4.0-8.150","true","151","2.149999999999999","","",""
"2797.0999999940395","2","confid","","","html-slider-response","1341","1134945","0.0-4.0-10.150-0.150","","","","Rate your confidence","1",""
"279.09999999403954","e","choice","left","e","experimental","1348","1137015","0.0-4.0-8.151","true","152","2.049999999999999","","",""
"1870.2000000178814","6","confid","","","html-slider-response","1350","1139391","0.0-4.0-10.151-0.151","","","","Rate your confidence","1",""
"257.2999999821186","i","choice","right","i","experimental","1358","1355547","0.0-4.0-8.152","true","153","2.049999999999999","","",""
"3740.100000023842","6","confid","","","html-slider-response","1360","1359792","0.0-4.0-10.152-0.152","","","","Rate your confidence","1",""
"240.19999998807907","i","choice","left","e","experimental","1367","1361825","0.0-4.0-8.153","false","154","1.9499999999999988","","",""
"2171.9000000059605","4","confid","","","html-slider-response","1369","1364503","0.0-4.0-10.153-0.153","","","","Rate your confidence","1",""
"888.9000000059605","e","choice","right","i","experimental","1376","1367207","0.0-4.0-8.154","false","155","2.049999999999999","","",""
"3098.699999988079","2","confid","","","html-slider-response","1378","1370812","0.0-4.0-10.154-0.154","","","","Rate your confidence","1",""
"244.89999997615814","e","choice","left","e","experimental","1385","1372850","0.0-4.0-8.155","true","156","2.149999999999999","","",""
"3649.800000011921","6","confid","","","html-slider-response","1387","1377005","0.0-4.0-10.155-0.155","","","","Rate your confidence","1",""
"420.2000000178814","i","choice","right","i","experimental","1394","1379222","0.0-4.0-8.156","true","157","2.149999999999999","","",""
"2183.0999999940395","3","confid","","","html-slider-response","1396","1381910","0.0-4.0-10.156-0.156","","","","Rate your confidence","1",""
"118.09999999403954","i","choice","left","e","experimental","1403","1383823","0.0-4.0-8.157","false","158","2.049999999999999","","",""
"2380.0999999940395","6","confid","","","html-slider-response","1405","1386708","0.0-4.0-10.157-0.157","","","","Rate your confidence","1",""
"740.2000000178814","e","choice","left","e","experimental","1412","1389241","0.0-4.0-8.158","true","159","2.149999999999999","","",""
"3621.0999999940395","2","confid","","","html-slider-response","1414","1393367","0.0-4.0-10.158-0.158","","","","Rate your confidence","1",""
"93.2999999821186","i","choice","right","i","experimental","1421","1395271","0.0-4.0-8.159","true","160","2.149999999999999","","",""
"3148.800000011921","6","confid","","","html-slider-response","1423","1398925","0.0-4.0-10.159-0.159","","","","Rate your confidence","1",""
"519.5999999940395","e","choice","left","e","experimental","1430","1401257","0.0-4.0-8.160","true","161","2.049999999999999","","",""
"2189.0999999940395","2","confid","","","html-slider-response","1432","1403953","0.0-4.0-10.160-0.160","","","","Rate your confidence","1",""
"234","i","choice","right","i","experimental","1439","1405982","0.0-4.0-8.161","true","162","2.049999999999999","","",""
"2426.0999999940395","6","confid","","","html-slider-response","1441","1408914","0.0-4.0-10.161-0.161","","","","Rate your confidence","1",""
"215.09999999403954","i","choice","left","e","experimental","1448","1410923","0.0-4.0-8.162","false","163","1.9499999999999988","","",""
"1948","6","confid","","","html-slider-response","1450","1413377","0.0-4.0-10.162-0.162","","","","Rate your confidence","1",""
"179.30000001192093","i","choice","right","i","experimental","1457","1415367","0.0-4.0-8.163","true","164","2.049999999999999","","",""
"2449","6","confid","","","html-slider-response","1459","1418321","0.0-4.0-10.163-0.163","","","","Rate your confidence","1",""
"479.5","i","choice","left","e","experimental","1466","1420615","0.0-4.0-8.164","false","165","2.049999999999999","","",""
"2212.9000000059605","6","confid","","","html-slider-response","1468","1423332","0.0-4.0-10.164-0.164","","","","Rate your confidence","1",""
"173.30000001192093","i","choice","right","i","experimental","1475","1425298","0.0-4.0-8.165","true","166","2.149999999999999","","",""
"2894.2999999821186","6","confid","","","html-slider-response","1477","1428697","0.0-4.0-10.165-0.165","","","","Rate your confidence","1",""
"131.90000000596046","i","choice","right","i","experimental","1484","1430626","0.0-4.0-8.166","true","167","2.149999999999999","","",""
"2030.0999999940395","6","confid","","","html-slider-response","1486","1433161","0.0-4.0-10.166-0.166","","","","Rate your confidence","1",""
"513.5999999940395","i","choice","left","e","experimental","1493","1435471","0.0-4.0-8.167","false","168","2.049999999999999","","",""
"2617.800000011921","4","confid","","","html-slider-response","1495","1438595","0.0-4.0-10.167-0.167","","","","Rate your confidence","1",""
"327.40000000596046","i","choice","left","e","experimental","1502","1440715","0.0-4.0-8.168","false","169","2.149999999999999","","",""
"3278.4000000059605","6","confid","","","html-slider-response","1504","1444500","0.0-4.0-10.168-0.168","","","","Rate your confidence","1",""
"605.5999999940395","i","choice","right","i","experimental","1511","1446918","0.0-4.0-8.169","true","170","2.249999999999999","","",""
"2490.0999999940395","2","confid","","","html-slider-response","1513","1449916","0.0-4.0-10.169-0.169","","","","Rate your confidence","1",""
"265.2000000178814","i","choice","right","i","experimental","1520","1451977","0.0-4.0-8.170","true","171","2.249999999999999","","",""
"1969.5999999940395","6","confid","","","html-slider-response","1522","1454452","0.0-4.0-10.170-0.170","","","","Rate your confidence","1",""
"248.59999999403954","i","choice","left","e","experimental","1529","1456511","0.0-4.0-8.171","false","172","2.149999999999999","","",""
"1974.0999999940395","2","confid","","","html-slider-response","1531","1458995","0.0-4.0-10.171-0.171","","","","Rate your confidence","1",""
"474.89999997615814","i","choice","left","e","experimental","1538","1461264","0.0-4.0-8.172","false","173","2.249999999999999","","",""
"2725.5","4","confid","","","html-slider-response","1540","1464496","0.0-4.0-10.172-0.172","","","","Rate your confidence","1",""
"139.7999999821186","i","choice","right","i","experimental","1547","1466431","0.0-4.0-8.173","true","174","2.349999999999999","","",""
"1878","6","confid","","","html-slider-response","1549","1468818","0.0-4.0-10.173-0.173","","","","Rate your confidence","1",""
"859.6999999880791","i","choice","right","i","experimental","1556","1471464","0.0-4.0-8.174","true","175","2.349999999999999","","",""
"2426.5999999940395","2","confid","","","html-slider-response","1558","1474397","0.0-4.0-10.174-0.174","","","","Rate your confidence","1",""
"124.39999997615814","i","choice","left","e","experimental","1565","1476335","0.0-4.0-8.175","false","176","2.249999999999999","","",""
"4184.5999999940395","3","confid","","","html-slider-response","1567","1481027","0.0-4.0-10.175-0.175","","","","Rate your confidence","1",""
"822.5","e","choice","right","i","experimental","1574","1483645","0.0-4.0-8.176","false","177","2.349999999999999","","",""
"2250","5","confid","","","html-slider-response","1576","1486400","0.0-4.0-10.176-0.176","","","","Rate your confidence","1",""
"247.10000002384186","e","choice","left","e","experimental","1583","1488444","0.0-4.0-8.177","true","178","2.4499999999999993","","",""
"2344.800000011921","6","confid","","","html-slider-response","1585","1491293","0.0-4.0-10.177-0.177","","","","Rate your confidence","1",""
"263.90000000596046","i","choice","right","i","experimental","1592","1493351","0.0-4.0-8.178","true","179","2.4499999999999993","","",""
"2612","6","confid","","","html-slider-response","1594","1496469","0.0-4.0-10.178-0.178","","","","Rate your confidence","1",""
"614.8999999761581","i","choice","left","e","experimental","1601","1498878","0.0-4.0-8.179","false","180","2.349999999999999","","",""
"2668.5","2","confid","","","html-slider-response","1603","1502052","0.0-4.0-10.179-0.179","","","","Rate your confidence","1",""
"521.9000000059605","e","choice","right","i","experimental","1610","1504370","0.0-4.0-8.180","false","181","2.4499999999999993","","",""
"1966","5","confid","","","html-slider-response","1612","1506843","0.0-4.0-10.180-0.180","","","","Rate your confidence","1",""
"540.6999999880791","e","choice","left","e","experimental","1619","1509177","0.0-4.0-8.181","true","182","2.5499999999999994","","",""
"2292.9000000059605","6","confid","","","html-slider-response","1621","1511976","0.0-4.0-10.181-0.181","","","","Rate your confidence","1",""
"243.19999998807907","i","choice","right","i","experimental","1628","1514016","0.0-4.0-8.182","true","183","2.5499999999999994","","",""
"2820.300000011921","3","confid","","","html-slider-response","1630","1517344","0.0-4.0-10.182-0.182","","","","Rate your confidence","1",""
"317.60000002384186","e","choice","left","e","experimental","1637","1519455","0.0-4.0-8.183","true","184","2.4499999999999993","","",""
"2289.100000023842","5","confid","","","html-slider-response","1639","1522250","0.0-4.0-10.183-0.183","","","","Rate your confidence","1",""
"259.60000002384186","i","choice","right","i","experimental","1646","1524307","0.0-4.0-8.184","true","185","2.4499999999999993","","",""
"2116.300000011921","3","confid","","","html-slider-response","1648","1526944","0.0-4.0-10.184-0.184","","","","Rate your confidence","1",""
"276.19999998807907","i","choice","left","e","experimental","1655","1529014","0.0-4.0-8.185","false","186","2.349999999999999","","",""
"2030","3","confid","","","html-slider-response","1657","1531552","0.0-4.0-10.185-0.185","","","","Rate your confidence","1",""
"474.89999997615814","e","choice","left","e","experimental","1664","1533843","0.0-4.0-8.186","true","187","2.4499999999999993","","",""
"2303.2000000178814","6","confid","","","html-slider-response","1666","1536652","0.0-4.0-10.186-0.186","","","","Rate your confidence","1",""
"165.69999998807907","i","choice","right","i","experimental","1673","1538628","0.0-4.0-8.187","true","188","2.4499999999999993","","",""
"4816.9000000059605","4","confid","","","html-slider-response","1675","1543952","0.0-4.0-10.187-0.187","","","","Rate your confidence","1",""
"88.30000001192093","i","choice","right","i","experimental","1682","1545838","0.0-4.0-8.188","true","189","2.349999999999999","","",""
"2669.800000011921","6","confid","","","html-slider-response","1684","1549013","0.0-4.0-10.188-0.188","","","","Rate your confidence","1",""
"689.2999999821186","i","choice","left","e","experimental","1691","1551497","0.0-4.0-8.189","false","190","2.349999999999999","","",""
"3424.0999999940395","2","confid","","","html-slider-response","1693","1555427","0.0-4.0-10.189-0.189","","","","Rate your confidence","1",""
"254.80000001192093","i","choice","right","i","experimental","1700","1557494","0.0-4.0-8.190","true","191","2.4499999999999993","","",""
"2991.9000000059605","2","confid","","","html-slider-response","1702","1560993","0.0-4.0-10.190-0.190","","","","Rate your confidence","1",""
"304.5","i","choice","left","e","experimental","1709","1563094","0.0-4.0-8.191","false","192","2.4499999999999993","","",""
"3223.4000000059605","6","confid","","","html-slider-response","1711","1566823","0.0-4.0-10.191-0.191","","","","Rate your confidence","1",""
"222.09999999403954","i","choice","right","i","experimental","1718","1568858","0.0-4.0-8.192","true","193","2.5499999999999994","","",""
"2272.300000011921","6","confid","","","html-slider-response","1720","1571636","0.0-4.0-10.192-0.192","","","","Rate your confidence","1",""
"230.30000001192093","i","choice","left","e","experimental","1727","1573661","0.0-4.0-8.193","false","194","2.5499999999999994","","",""
"2939.199999988079","6","confid","","","html-slider-response","1729","1577106","0.0-4.0-10.193-0.193","","","","Rate your confidence","1","90622"
