"rt","response","task","target_side","correct_response","trial_type","trial_index","time_elapsed","internal_node_id","correct","trial_number","n_dots","stimulus","slider_start","participant"
"932.6000000014901","e","choice","right","i","practice","10","118095","0.0-4.0-8.0","false","1","4.25","","",""
"983.7000000029802","e","choice","left","e","practice","18","121368","0.0-4.0-8.1","true","2","4.65","","",""
"627.7999999970198","e","choice","left","e","practice","26","124285","0.0-4.0-8.2","true","3","4.65","","",""
"761.7999999970198","i","choice","right","i","practice","34","127328","0.0-4.0-8.3","true","4","4.25","","",""
"1404.7999999970198","i","choice","left","e","practice","42","131024","0.0-4.0-8.4","false","5","4.25","","",""
"870.2000000029802","i","choice","right","i","practice","50","134188","0.0-4.0-8.5","true","6","4.65","","",""
"721.8000000044703","e","choice","left","e","practice","58","137197","0.0-4.0-8.6","true","7","4.65","","",""
"567.7999999970198","i","choice","right","i","practice","66","140056","0.0-4.0-8.7","true","8","4.45","","",""
"778.7999999970198","i","choice","right","i","practice","74","143124","0.0-4.0-8.8","true","9","4.45","","",""
"593","e","choice","left","e","practice","82","145994","0.0-4.0-8.9","true","10","4.25","","",""
"715.7000000029802","i","choice","right","i","practice","90","148999","0.0-4.0-8.10","true","11","4.25","","",""
"572.5","e","choice","left","e","practice","98","151851","0.0-4.0-8.11","true","12","4.15","","",""
"489.8999999985099","i","choice","right","i","practice","106","154630","0.0-4.0-8.12","true","13","4.15","","",""
"615.6999999955297","e","choice","left","e","practice","114","157527","0.0-4.0-8.13","true","14","4.050000000000001","","",""
"449.59999999403954","e","choice","left","e","practice","122","160262","0.0-4.0-8.14","true","15","4.050000000000001","","",""
"509.6000000014901","i","choice","right","i","practice","130","163062","0.0-4.0-8.15","true","16","3.9500000000000006","","",""
"611.7999999970198","i","choice","right","i","practice","138","165959","0.0-4.0-8.16","true","17","3.9500000000000006","","",""
"490.90000000596046","e","choice","left","e","practice","146","168733","0.0-4.0-8.17","true","18","3.8500000000000005","","",""
"495.79999999701977","i","choice","right","i","practice","154","171524","0.0-4.0-8.18","true","19","3.8500000000000005","","",""
"538.2000000029802","e","choice","left","e","practice","162","174341","0.0-4.0-8.19","true","20","3.7500000000000004","","",""
"582.2000000029802","i","choice","right","i","practice","170","177206","0.0-4.0-8.20","true","21","3.7500000000000004","","",""
"526.2000000029802","e","choice","left","e","practice","178","180017","0.0-4.0-8.21","true","22","3.6500000000000004","","",""
"511.29999999701977","e","choice","left","e","practice","186","182810","0.0-4.0-8.22","true","23","3.6500000000000004","","",""
"559.2000000029802","i","choice","right","i","practice","194","185661","0.0-4.0-8.23","true","24","3.5500000000000003","","",""
"945.5999999940395","i","choice","right","i","practice","202","188890","0.0-4.0-8.24","true","25","3.5500000000000003","","",""
"483","e","choice","left","e","practice","210","191655","0.0-4.0-8.25","true","26","3.45","","",""
"787","i","choice","left","e","experimental","221","234831","0.0-4.0-8.26","false","27","3.45","","",""
"4452.80000000447","3","confid","","","html-slider-response","223","239789","0.0-4.0-10.26-0.26","","","","Rate your confidence","1",""
"806.6999999955297","i","choice","right","i","experimental","230","242378","0.0-4.0-8.27","true","28","3.5500000000000003","","",""
"2939","4","confid","","","html-slider-response","232","245823","0.0-4.0-10.27-0.27","","","","Rate your confidence","1",""
"727.9000000059605","e","choice","left","e","experimental","239","248344","0.0-4.0-8.28","true","29","3.5500000000000003","","",""
"3789.2999999970198","3","confid","","","html-slider-response","241","252636","0.0-4.0-10.28-0.28","","","","Rate your confidence","1",""
"777.0999999940395","i","choice","right","i","experimental","248","255196","0.0-4.0-8.29","true","30","3.45","","",""
"3183.10000000149","5","confid","","","html-slider-response","250","258881","0.0-4.0-10.29-0.29","","","","Rate your confidence","1",""
"916.9000000059605","i","choice","left","e","experimental","257","261572","0.0-4.0-8.30","false","31","3.45","","",""
"3635.8000000044703","3","confid","","","html-slider-response","259","265719","0.0-4.0-10.30-0.30","","","","Rate your confidence","1",""
"945.8999999985099","e","choice","right","i","experimental","266","268449","0.0-4.0-8.31","false","32","3.5500000000000003","","",""
"2210.5","3","confid","","","html-slider-response","268","271162","0.0-4.0-10.31-0.31","","","","Rate your confidence","1",""
"758.8999999985099","i","choice","right","i","experimental","275","273705","0.0-4.0-8.32","true","33","3.6500000000000004","","",""
"2138.7000000029802","4","confid","","","html-slider-response","277","276347","0.0-4.0-10.32-0.32","","","","Rate your confidence","1",""
"637","e","choice","left","e","experimental","284","278776","0.0-4.0-8.33","true","34","3.6500000000000004","","",""
"2846.2999999970198","4","confid","","","html-slider-response","286","282128","0.0-4.0-10.33-0.33","","","","Rate your confidence","1",""
"643.5","e","choice","left","e","experimental","293","284547","0.0-4.0-8.34","true","35","3.5500000000000003","","",""
"2337.89999999851","4","confid","","","html-slider-response","295","287387","0.0-4.0-10.34-0.34","","","","Rate your confidence","1",""
"965.6000000014901","i","choice","right","i","experimental","302","290125","0.0-4.0-8.35","true","36","3.5500000000000003","","",""
"2055.2000000029802","4","confid","","","html-slider-response","304","292682","0.0-4.0-10.35-0.35","","","","Rate your confidence","1",""
"606.2999999970198","e","choice","left","e","experimental","311","295069","0.0-4.0-8.36","true","37","3.45","","",""
"3391.89999999851","4","confid","","","html-slider-response","313","298964","0.0-4.0-10.36-0.36","","","","Rate your confidence","1",""
"1185.1000000014901","e","choice","right","i","experimental","320","301938","0.0-4.0-8.37","false","38","3.45","","",""
"3142.10000000149","3","confid","","","html-slider-response","322","305586","0.0-4.0-10.37-0.37","","","","Rate your confidence","1",""
"622.3000000044703","e","choice","left","e","experimental","329","307982","0.0-4.0-8.38","true","39","3.5500000000000003","","",""
"2362.2000000029802","4","confid","","","html-slider-response","331","310850","0.0-4.0-10.38-0.38","","","","Rate your confidence","1",""
"565.1999999955297","i","choice","right","i","experimental","338","313193","0.0-4.0-8.39","true","40","3.5500000000000003","","",""
"2071.7999999970198","4","confid","","","html-slider-response","340","315767","0.0-4.0-10.39-0.39","","","","Rate your confidence","1",""
"798.7000000029802","i","choice","right","i","experimental","347","318354","0.0-4.0-8.40","true","41","3.45","","",""
"2541.39999999851","4","confid","","","html-slider-response","349","321398","0.0-4.0-10.40-0.40","","","","Rate your confidence","1",""
"766.8000000044703","e","choice","left","e","experimental","356","323954","0.0-4.0-8.41","true","42","3.45","","",""
"2398.10000000149","5","confid","","","html-slider-response","358","326855","0.0-4.0-10.41-0.41","","","","Rate your confidence","1",""
"1741.2999999970198","e","choice","right","i","experimental","365","330385","0.0-4.0-8.42","false","43","3.35","","",""
"11473.20000000298","2","confid","","","html-slider-response","367","342363","0.0-4.0-10.42-0.42","","","","Rate your confidence","1",""
"787.3000000044703","e","choice","left","e","experimental","374","344936","0.0-4.0-8.43","true","44","3.45","","",""
"2150.89999999851","3","confid","","","html-slider-response","376","347589","0.0-4.0-10.43-0.43","","","","Rate your confidence","1",""
"664.2000000029802","e","choice","left","e","experimental","383","350029","0.0-4.0-8.44","true","45","3.45","","",""
"1946.8999999985099","3","confid","","","html-slider-response","385","352481","0.0-4.0-10.44-0.44","","","","Rate your confidence","1",""
"1789.3999999985099","e","choice","right","i","experimental","392","356050","0.0-4.0-8.45","false","46","3.35","","",""
"1870.5","3","confid","","","html-slider-response","394","358423","0.0-4.0-10.45-0.45","","","","Rate your confidence","1",""
"779.7999999970198","i","choice","right","i","experimental","401","360985","0.0-4.0-8.46","true","47","3.45","","",""
"2076.2999999970198","4","confid","","","html-slider-response","403","363565","0.0-4.0-10.46-0.46","","","","Rate your confidence","1",""
"699.7000000029802","e","choice","left","e","experimental","410","366052","0.0-4.0-8.47","true","48","3.45","","",""
"2404.8000000044703","3","confid","","","html-slider-response","412","368959","0.0-4.0-10.47-0.47","","","","Rate your confidence","1",""
"1642.8000000044703","e","choice","right","i","experimental","419","372390","0.0-4.0-8.48","false","49","3.35","","",""
"2047.6000000014901","2","confid","","","html-slider-response","421","374944","0.0-4.0-10.48-0.48","","","","Rate your confidence","1",""
"645.2999999970198","e","choice","left","e","experimental","428","377385","0.0-4.0-8.49","true","50","3.45","","",""
"2876.89999999851","4","confid","","","html-slider-response","430","380765","0.0-4.0-10.49-0.49","","","","Rate your confidence","1",""
"620.1999999955297","e","choice","left","e","experimental","437","383176","0.0-4.0-8.50","true","51","3.45","","",""
"1773.1000000014901","3","confid","","","html-slider-response","439","385455","0.0-4.0-10.50-0.50","","","","Rate your confidence","1",""
"1168.7000000029802","i","choice","right","i","experimental","446","388409","0.0-4.0-8.51","true","52","3.35","","",""
"2956.7999999970198","3","confid","","","html-slider-response","448","391869","0.0-4.0-10.51-0.51","","","","Rate your confidence","1",""
"585.3000000044703","e","choice","left","e","experimental","455","394237","0.0-4.0-8.52","true","53","3.35","","",""
"2901","4","confid","","","html-slider-response","457","397642","0.0-4.0-10.52-0.52","","","","Rate your confidence","1",""
"606.2000000029802","i","choice","right","i","experimental","464","400038","0.0-4.0-8.53","true","54","3.25","","",""
"1840.7999999970198","4","confid","","","html-slider-response","466","402381","0.0-4.0-10.53-0.53","","","","Rate your confidence","1",""
"487.8999999985099","i","choice","right","i","experimental","473","404648","0.0-4.0-8.54","true","55","3.25","","",""
"2976.60000000149","3","confid","","","html-slider-response","475","408135","0.0-4.0-10.54-0.54","","","","Rate your confidence","1",""
"1336.3999999985099","e","choice","left","e","experimental","482","411252","0.0-4.0-8.55","true","56","3.15","","",""
"3144.7000000029802","4","confid","","","html-slider-response","484","414899","0.0-4.0-10.55-0.55","","","","Rate your confidence","1",""
"674.2000000029802","e","choice","left","e","experimental","491","417364","0.0-4.0-8.56","true","57","3.15","","",""
"1955.3999999985099","4","confid","","","html-slider-response","493","419824","0.0-4.0-10.56-0.56","","","","Rate your confidence","1",""
"1029.7000000029802","i","choice","right","i","experimental","500","422637","0.0-4.0-8.57","true","58","3.05","","",""
"1902.1999999955297","3","confid","","","html-slider-response","502","425042","0.0-4.0-10.57-0.57","","","","Rate your confidence","1",""
"632.2999999970198","i","choice","right","i","experimental","509","427459","0.0-4.0-8.58","true","59","3.05","","",""
"1879.1999999955297","4","confid","","","html-slider-response","511","429841","0.0-4.0-10.58-0.58","","","","Rate your confidence","1",""
"466.09999999403954","e","choice","left","e","experimental","518","432082","0.0-4.0-8.59","true","60","2.9499999999999997","","",""
"1883.8999999985099","4","confid","","","html-slider-response","520","434477","0.0-4.0-10.59-0.59","","","","Rate your confidence","1",""
"666.1000000014901","i","choice","right","i","experimental","527","436924","0.0-4.0-8.60","true","61","2.9499999999999997","","",""
"2233.60000000149","3","confid","","","html-slider-response","529","439660","0.0-4.0-10.60-0.60","","","","Rate your confidence","1",""
"568.1000000014901","i","choice","left","e","experimental","536","442018","0.0-4.0-8.61","false","62","2.8499999999999996","","",""
"1861.2999999970198","3","confid","","","html-slider-response","538","444384","0.0-4.0-10.61-0.61","","","","Rate your confidence","1",""
"1008.2999999970198","e","choice","left","e","experimental","545","447183","0.0-4.0-8.62","true","63","2.9499999999999997","","",""
"3951.3000000044703","4","confid","","","html-slider-response","547","451637","0.0-4.0-10.62-0.62","","","","Rate your confidence","1",""
"636","i","choice","right","i","experimental","554","454049","0.0-4.0-8.63","true","64","2.9499999999999997","","",""
"1776.0999999940395","3","confid","","","html-slider-response","556","456328","0.0-4.0-10.63-0.63","","","","Rate your confidence","1",""
"770.1000000014901","e","choice","left","e","experimental","563","458880","0.0-4.0-8.64","true","65","2.8499999999999996","","",""
"3659.2999999970198","3","confid","","","html-slider-response","565","463041","0.0-4.0-10.64-0.64","","","","Rate your confidence","1",""
"1231.1000000014901","e","choice","right","i","experimental","572","466046","0.0-4.0-8.65","false","66","2.8499999999999996","","",""
"1773.6999999955297","3","confid","","","html-slider-response","574","468325","0.0-4.0-10.65-0.65","","","","Rate your confidence","1",""
"755.5","i","choice","right","i","experimental","581","470875","0.0-4.0-8.66","true","67","2.9499999999999997","","",""
"2151.39999999851","4","confid","","","html-slider-response","583","473532","0.0-4.0-10.66-0.66","","","","Rate your confidence","1",""
"154","e","choice","left","e","experimental","590","475464","0.0-4.0-8.67","true","68","2.9499999999999997","","",""
"1941.3000000044703","4","confid","","","html-slider-response","592","477910","0.0-4.0-10.67-0.67","","","","Rate your confidence","1",""
"1341.1000000014901","i","choice","right","i","experimental","600","498149","0.0-4.0-8.68","true","69","2.8499999999999996","","",""
"2298.5","3","confid","","","html-slider-response","602","500952","0.0-4.0-10.68-0.68","","","","Rate your confidence","1",""
"419.6000000014901","e","choice","left","e","experimental","609","503143","0.0-4.0-8.69","true","70","2.8499999999999996","","",""
"1879.8999999985099","3","confid","","","html-slider-response","611","505525","0.0-4.0-10.69-0.69","","","","Rate your confidence","1",""
"925.6000000014901","e","choice","left","e","experimental","618","508233","0.0-4.0-8.70","true","71","2.7499999999999996","","",""
"2057.5","5","confid","","","html-slider-response","620","510795","0.0-4.0-10.70-0.70","","","","Rate your confidence","1",""
"284.79999999701977","i","choice","right","i","experimental","627","512865","0.0-4.0-8.71","true","72","2.7499999999999996","","",""
"1810.1000000014901","4","confid","","","html-slider-response","629","515180","0.0-4.0-10.71-0.71","","","","Rate your confidence","1",""
"541.6000000014901","e","choice","left","e","experimental","636","517504","0.0-4.0-8.72","true","73","2.6499999999999995","","",""
"2941.5","4","confid","","","html-slider-response","638","520957","0.0-4.0-10.72-0.72","","","","Rate your confidence","1",""
"586.2999999970198","i","choice","right","i","experimental","645","523325","0.0-4.0-8.73","true","74","2.6499999999999995","","",""
"2092.7999999970198","4","confid","","","html-slider-response","647","525924","0.0-4.0-10.73-0.73","","","","Rate your confidence","1",""
"562","i","choice","right","i","experimental","654","528276","0.0-4.0-8.74","true","75","2.5499999999999994","","",""
"2037.2999999970198","4","confid","","","html-slider-response","656","530819","0.0-4.0-10.74-0.74","","","","Rate your confidence","1",""
"90.40000000596046","e","choice","left","e","experimental","663","532702","0.0-4.0-8.75","true","76","2.5499999999999994","","",""
"2508.10000000149","4","confid","","","html-slider-response","665","535713","0.0-4.0-10.75-0.75","","","","Rate your confidence","1",""
"936.3999999985099","i","choice","right","i","experimental","672","538433","0.0-4.0-8.76","true","77","2.4499999999999993","","",""
"2134.2999999970198","3","confid","","","html-slider-response","674","541070","0.0-4.0-10.76-0.76","","","","Rate your confidence","1",""
"541.3000000044703","e","choice","left","e","experimental","681","543396","0.0-4.0-8.77","true","78","2.4499999999999993","","",""
"1816","4","confid","","","html-slider-response","683","545714","0.0-4.0-10.77-0.77","","","","Rate your confidence","1",""
"1058.2999999970198","e","choice","right","i","experimental","690","548563","0.0-4.0-8.78","false","79","2.349999999999999","","",""
"1693.7000000029802","4","confid","","","html-slider-response","692","550759","0.0-4.0-10.78-0.78","","","","Rate your confidence","1",""
"610.2999999970198","e","choice","left","e","experimental","699","553161","0.0-4.0-8.79","true","80","2.4499999999999993","","",""
"2586.8000000044703","4","confid","","","html-slider-response","701","556250","0.0-4.0-10.79-0.79","","","","Rate your confidence","1",""
"1060.5999999940395","e","choice","right","i","experimental","708","559089","0.0-4.0-8.80","false","81","2.4499999999999993","","",""
"1859","3","confid","","","html-slider-response","710","561452","0.0-4.0-10.80-0.80","","","","Rate your confidence","1",""
"933.8000000044703","i","choice","left","e","experimental","717","564159","0.0-4.0-8.81","false","82","2.5499999999999994","","",""
"2764.2999999970198","3","confid","","","html-slider-response","719","567426","0.0-4.0-10.81-0.81","","","","Rate your confidence","1",""
"387.20000000298023","e","choice","right","i","experimental","726","569597","0.0-4.0-8.82","false","83","2.6499999999999995","","",""
"2280.60000000149","4","confid","","","html-slider-response","728","572384","0.0-4.0-10.82-0.82","","","","Rate your confidence","1",""
"585","e","choice","left","e","experimental","735","574748","0.0-4.0-8.83","true","84","2.7499999999999996","","",""
"2129.2999999970198","3","confid","","","html-slider-response","737","577382","0.0-4.0-10.83-0.83","","","","Rate your confidence","1",""
"970.7000000029802","i","choice","right","i","experimental","744","580148","0.0-4.0-8.84","true","85","2.7499999999999996","","",""
"2392.9000000059605","4","confid","","","html-slider-response","746","583044","0.0-4.0-10.84-0.84","","","","Rate your confidence","1",""
"1692.8999999985099","i","choice","left","e","experimental","753","586518","0.0-4.0-8.85","false","86","2.6499999999999995","","",""
"2293.89999999851","2","confid","","","html-slider-response","755","589314","0.0-4.0-10.85-0.85","","","","Rate your confidence","1",""
"567.5","i","choice","right","i","experimental","762","591668","0.0-4.0-8.86","true","87","2.7499999999999996","","",""
"2188.3000000044703","3","confid","","","html-slider-response","764","594360","0.0-4.0-10.86-0.86","","","","Rate your confidence","1",""
"1515","i","choice","left","e","experimental","771","597657","0.0-4.0-8.87","false","88","2.7499999999999996","","",""
"1687.4000000059605","3","confid","","","html-slider-response","773","599847","0.0-4.0-10.87-0.87","","","","Rate your confidence","1",""
"1349.3999999985099","i","choice","right","i","experimental","780","602969","0.0-4.0-8.88","true","89","2.8499999999999996","","",""
"2368.39999999851","3","confid","","","html-slider-response","782","605840","0.0-4.0-10.88-0.88","","","","Rate your confidence","1",""
"823","e","choice","left","e","experimental","789","608451","0.0-4.0-8.89","true","90","2.8499999999999996","","",""
"2267.60000000149","3","confid","","","html-slider-response","791","611225","0.0-4.0-10.89-0.89","","","","Rate your confidence","1",""
"1816.1000000014901","e","choice","left","e","experimental","798","614838","0.0-4.0-8.90","true","91","2.7499999999999996","","",""
"2443.10000000149","3","confid","","","html-slider-response","800","617786","0.0-4.0-10.90-0.90","","","","Rate your confidence","1",""
"330.19999999552965","i","choice","right","i","experimental","807","619896","0.0-4.0-8.91","true","92","2.7499999999999996","","",""
"1585.3999999985099","3","confid","","","html-slider-response","809","621985","0.0-4.0-10.91-0.91","","","","Rate your confidence","1",""
"995.6999999955297","e","choice","left","e","experimental","816","624763","0.0-4.0-8.92","true","93","2.6499999999999995","","",""
"1942.5","3","confid","","","html-slider-response","818","627208","0.0-4.0-10.92-0.92","","","","Rate your confidence","1",""
"760.2999999970198","e","choice","right","i","experimental","825","629764","0.0-4.0-8.93","false","94","2.6499999999999995","","",""
"2709","4","confid","","","html-slider-response","827","632975","0.0-4.0-10.93-0.93","","","","Rate your confidence","1",""
"181.40000000596046","i","choice","left","e","experimental","834","634948","0.0-4.0-8.94","false","95","2.7499999999999996","","",""
"2050.10000000149","3","confid","","","html-slider-response","836","637502","0.0-4.0-10.94-0.94","","","","Rate your confidence","1",""
"1081.6000000014901","e","choice","right","i","experimental","843","640371","0.0-4.0-8.95","false","96","2.8499999999999996","","",""
"1851","3","confid","","","html-slider-response","845","642725","0.0-4.0-10.95-0.95","","","","Rate your confidence","1",""
"628.5999999940395","e","choice","left","e","experimental","852","645138","0.0-4.0-8.96","true","97","2.9499999999999997","","",""
"1646.4000000059605","3","confid","","","html-slider-response","854","647287","0.0-4.0-10.96-0.96","","","","Rate your confidence","1",""
"1610.4000000059605","i","choice","right","i","experimental","861","650689","0.0-4.0-8.97","true","98","2.9499999999999997","","",""
"2023","4","confid","","","html-slider-response","863","653216","0.0-4.0-10.97-0.97","","","","Rate your confidence","1",""
"151.69999999552965","e","choice","left","e","experimental","870","655155","0.0-4.0-8.98","true","99","2.8499999999999996","","",""
"1812.5999999940395","3","confid","","","html-slider-response","872","657472","0.0-4.0-10.98-0.98","","","","Rate your confidence","1",""
"1774.3999999985099","i","choice","right","i","experimental","879","661034","0.0-4.0-8.99","true","100","2.8499999999999996","","",""
"3036.39999999851","3","confid","","","html-slider-response","881","664573","0.0-4.0-10.99-0.99","","","","Rate your confidence","1",""
"396.1000000014901","i","choice","right","i","experimental","888","666755","0.0-4.0-8.100","true","101","2.7499999999999996","","",""
"1828.3999999985099","4","confid","","","html-slider-response","890","669087","0.0-4.0-10.100-0.100","","","","Rate your confidence","1",""
"1668","e","choice","left","e","experimental","897","672544","0.0-4.0-8.101","true","102","2.7499999999999996","","",""
"2134.0999999940395","4","confid","","","html-slider-response","899","675181","0.0-4.0-10.101-0.101","","","","Rate your confidence","1",""
"585.6000000014901","e","choice","left","e","experimental","906","677559","0.0-4.0-8.102","true","103","2.6499999999999995","","",""
"2228.89999999851","4","confid","","","html-slider-response","908","680291","0.0-4.0-10.102-0.102","","","","Rate your confidence","1",""
"774.6999999955297","e","choice","right","i","experimental","915","682842","0.0-4.0-8.103","false","104","2.6499999999999995","","",""
"1758.1000000014901","3","confid","","","html-slider-response","917","685103","0.0-4.0-10.103-0.103","","","","Rate your confidence","1",""
"314.40000000596046","i","choice","right","i","experimental","924","687196","0.0-4.0-8.104","true","105","2.7499999999999996","","",""
"1748.8999999985099","3","confid","","","html-slider-response","926","689447","0.0-4.0-10.104-0.104","","","","Rate your confidence","1",""
"1769","i","choice","left","e","experimental","933","692992","0.0-4.0-8.105","false","106","2.7499999999999996","","",""
"2720.5","2","confid","","","html-slider-response","935","696219","0.0-4.0-10.105-0.105","","","","Rate your confidence","1",""
"1942.1000000014901","i","choice","left","e","experimental","942","699953","0.0-4.0-8.106","false","107","2.8499999999999996","","",""
"2570.39999999851","2","confid","","","html-slider-response","944","703029","0.0-4.0-10.106-0.106","","","","Rate your confidence","1",""
"560.8999999985099","i","choice","right","i","experimental","951","705381","0.0-4.0-8.107","true","108","2.9499999999999997","","",""
"2644.7000000029802","3","confid","","","html-slider-response","953","708531","0.0-4.0-10.107-0.107","","","","Rate your confidence","1",""
"643.3999999985099","e","choice","left","e","experimental","960","710959","0.0-4.0-8.108","true","109","2.9499999999999997","","",""
"3438.60000000149","4","confid","","","html-slider-response","962","714900","0.0-4.0-10.108-0.108","","","","Rate your confidence","1",""
"512.8000000044703","i","choice","right","i","experimental","969","717187","0.0-4.0-8.109","true","110","2.8499999999999996","","",""
"1995.3999999985099","4","confid","","","html-slider-response","971","719689","0.0-4.0-10.109-0.109","","","","Rate your confidence","1",""
"318.1000000014901","e","choice","left","e","experimental","979","746895","0.0-4.0-8.110","true","111","2.8499999999999996","","",""
"3043","3","confid","","","html-slider-response","981","750443","0.0-4.0-10.110-0.110","","","","Rate your confidence","1",""
"337.40000000596046","i","choice","right","i","experimental","988","752573","0.0-4.0-8.111","true","112","2.7499999999999996","","",""
"3821.10000000149","3","confid","","","html-slider-response","990","756897","0.0-4.0-10.111-0.111","","","","Rate your confidence","1",""
"473.90000000596046","e","choice","right","i","experimental","997","759164","0.0-4.0-8.112","false","113","2.7499999999999996","","",""
"1857","3","confid","","","html-slider-response","999","761525","0.0-4.0-10.112-0.112","","","","Rate your confidence","1",""
"452.79999999701977","e","choice","left","e","experimental","1006","763755","0.0-4.0-8.113","true","114","2.8499999999999996","","",""
"2056.60000000149","3","confid","","","html-slider-response","1008","766317","0.0-4.0-10.113-0.113","","","","Rate your confidence","1",""
"323.69999999552965","i","choice","right","i","experimental","1015","768416","0.0-4.0-8.114","true","115","2.8499999999999996","","",""
"2046.6000000014901","3","confid","","","html-slider-response","1017","770968","0.0-4.0-10.114-0.114","","","","Rate your confidence","1",""
"580.0999999940395","i","choice","left","e","experimental","1024","773334","0.0-4.0-8.115","false","116","2.7499999999999996","","",""
"2248.7999999970198","2","confid","","","html-slider-response","1026","776086","0.0-4.0-10.115-0.115","","","","Rate your confidence","1",""
"306.80000000447035","i","choice","right","i","experimental","1033","778186","0.0-4.0-8.116","true","117","2.8499999999999996","","",""
"1693.1000000014901","4","confid","","","html-slider-response","1035","780382","0.0-4.0-10.116-0.116","","","","Rate your confidence","1",""
"940.9000000059605","i","choice","left","e","experimental","1042","783111","0.0-4.0-8.117","false","118","2.8499999999999996","","",""
"2138.10000000149","3","confid","","","html-slider-response","1044","785762","0.0-4.0-10.117-0.117","","","","Rate your confidence","1",""
"385.8999999985099","e","choice","left","e","experimental","1051","787923","0.0-4.0-8.118","true","119","2.9499999999999997","","",""
"2623.2999999970198","4","confid","","","html-slider-response","1053","791051","0.0-4.0-10.118-0.118","","","","Rate your confidence","1",""
"1668.8000000044703","e","choice","right","i","experimental","1060","794509","0.0-4.0-8.119","false","120","2.9499999999999997","","",""
"2909","3","confid","","","html-slider-response","1062","797920","0.0-4.0-10.119-0.119","","","","Rate your confidence","1",""
"597.7999999970198","i","choice","left","e","experimental","1069","800299","0.0-4.0-8.120","false","121","3.05","","",""
"2154.8000000044703","2","confid","","","html-slider-response","1071","802959","0.0-4.0-10.120-0.120","","","","Rate your confidence","1",""
"535.6999999955297","i","choice","right","i","experimental","1078","805271","0.0-4.0-8.121","true","122","3.15","","",""
"1993.6000000014901","3","confid","","","html-slider-response","1080","807767","0.0-4.0-10.121-0.121","","","","Rate your confidence","1",""
"987.7999999970198","e","choice","right","i","experimental","1087","810531","0.0-4.0-8.122","false","123","3.15","","",""
"3065.39999999851","3","confid","","","html-slider-response","1089","814098","0.0-4.0-10.122-0.122","","","","Rate your confidence","1",""
"1520.3000000044703","e","choice","left","e","experimental","1096","817404","0.0-4.0-8.123","true","124","3.25","","",""
"1919.1000000014901","3","confid","","","html-slider-response","1098","819826","0.0-4.0-10.123-0.123","","","","Rate your confidence","1",""
"2092.5","i","choice","right","i","experimental","1105","823708","0.0-4.0-8.124","true","125","3.25","","",""
"2212.2999999970198","3","confid","","","html-slider-response","1107","826426","0.0-4.0-10.124-0.124","","","","Rate your confidence","1",""
"473.19999999552965","e","choice","left","e","experimental","1114","828673","0.0-4.0-8.125","true","126","3.15","","",""
"3820","4","confid","","","html-slider-response","1116","832995","0.0-4.0-10.125-0.125","","","","Rate your confidence","1",""
"1045.6999999955297","e","choice","left","e","experimental","1123","835825","0.0-4.0-8.126","true","127","3.15","","",""
"2075.7000000029802","2","confid","","","html-slider-response","1125","838413","0.0-4.0-10.126-0.126","","","","Rate your confidence","1",""
"734","e","choice","right","i","experimental","1132","840923","0.0-4.0-8.127","false","128","3.05","","",""
"2629.3000000044703","3","confid","","","html-slider-response","1134","844056","0.0-4.0-10.127-0.127","","","","Rate your confidence","1",""
"705.1000000014901","e","choice","left","e","experimental","1141","846543","0.0-4.0-8.128","true","129","3.15","","",""
"1906.8000000044703","3","confid","","","html-slider-response","1143","848952","0.0-4.0-10.128-0.128","","","","Rate your confidence","1",""
"334.3999999985099","i","choice","right","i","experimental","1150","851072","0.0-4.0-8.129","true","130","3.15","","",""
"2031.6999999955297","3","confid","","","html-slider-response","1152","853608","0.0-4.0-10.129-0.129","","","","Rate your confidence","1",""
"1394.2000000029802","i","choice","right","i","experimental","1159","856782","0.0-4.0-8.130","true","131","3.05","","",""
"2547","3","confid","","","html-slider-response","1161","859832","0.0-4.0-10.130-0.130","","","","Rate your confidence","1",""
"668.1000000014901","e","choice","left","e","experimental","1168","862282","0.0-4.0-8.131","true","132","3.05","","",""
"1961.5","3","confid","","","html-slider-response","1170","864747","0.0-4.0-10.131-0.131","","","","Rate your confidence","1",""
"449.09999999403954","e","choice","left","e","experimental","1177","866982","0.0-4.0-8.132","true","133","2.9499999999999997","","",""
"3062.5","5","confid","","","html-slider-response","1179","870548","0.0-4.0-10.132-0.132","","","","Rate your confidence","1",""
"412.8999999910593","i","choice","right","i","experimental","1186","872746","0.0-4.0-8.133","true","134","2.9499999999999997","","",""
"1845.6000000089407","4","confid","","","html-slider-response","1188","875094","0.0-4.0-10.133-0.133","","","","Rate your confidence","1",""
"594.2999999970198","e","choice","right","i","experimental","1195","877478","0.0-4.0-8.134","false","135","2.8499999999999996","","",""
"1975.0999999940395","4","confid","","","html-slider-response","1197","879956","0.0-4.0-10.134-0.134","","","","Rate your confidence","1",""
"563.2999999970198","e","choice","left","e","experimental","1204","882307","0.0-4.0-8.135","true","136","2.9499999999999997","","",""
"2637.7999999970198","4","confid","","","html-slider-response","1206","885447","0.0-4.0-10.135-0.135","","","","Rate your confidence","1",""
"848.2000000029802","e","choice","left","e","experimental","1213","888092","0.0-4.0-8.136","true","137","2.9499999999999997","","",""
"2054.2999999970198","3","confid","","","html-slider-response","1215","890650","0.0-4.0-10.136-0.136","","","","Rate your confidence","1",""
"924.7000000029802","i","choice","right","i","experimental","1222","893364","0.0-4.0-8.137","true","138","2.8499999999999996","","",""
"1973.5","3","confid","","","html-slider-response","1224","895840","0.0-4.0-10.137-0.137","","","","Rate your confidence","1",""
"1031.300000011921","e","choice","left","e","experimental","1231","898661","0.0-4.0-8.138","true","139","2.8499999999999996","","",""
"2522.4000000059605","3","confid","","","html-slider-response","1233","901686","0.0-4.0-10.138-0.138","","","","Rate your confidence","1",""
"368.20000000298023","i","choice","right","i","experimental","1240","903843","0.0-4.0-8.139","true","140","2.7499999999999996","","",""
"2145.4000000059605","3","confid","","","html-slider-response","1242","906490","0.0-4.0-10.139-0.139","","","","Rate your confidence","1",""
"527.9000000059605","e","choice","left","e","experimental","1249","908816","0.0-4.0-8.140","true","141","2.7499999999999996","","",""
"1797.0999999940395","3","confid","","","html-slider-response","1251","911118","0.0-4.0-10.140-0.140","","","","Rate your confidence","1",""
"2931.8999999910593","i","choice","right","i","experimental","1258","915835","0.0-4.0-8.141","true","142","2.6499999999999995","","",""
"2253.9000000059605","2","confid","","","html-slider-response","1260","918591","0.0-4.0-10.141-0.141","","","","Rate your confidence","1",""
"515.2000000029802","i","choice","right","i","experimental","1267","920896","0.0-4.0-8.142","true","143","2.6499999999999995","","",""
"2042.5999999940395","3","confid","","","html-slider-response","1269","923444","0.0-4.0-10.142-0.142","","","","Rate your confidence","1",""
"182.09999999403954","e","choice","left","e","experimental","1276","925416","0.0-4.0-8.143","true","144","2.5499999999999994","","",""
"1885.5","4","confid","","","html-slider-response","1278","927805","0.0-4.0-10.143-0.143","","","","Rate your confidence","1",""
"334.3999999910593","i","choice","right","i","experimental","1285","929920","0.0-4.0-8.144","true","145","2.5499999999999994","","",""
"1815","4","confid","","","html-slider-response","1287","932238","0.0-4.0-10.144-0.144","","","","Rate your confidence","1",""
"796.5","e","choice","left","e","experimental","1294","934824","0.0-4.0-8.145","true","146","2.4499999999999993","","",""
"1992.4000000059605","3","confid","","","html-slider-response","1296","937320","0.0-4.0-10.145-0.145","","","","Rate your confidence","1",""
"463.1000000089407","e","choice","left","e","experimental","1303","939559","0.0-4.0-8.146","true","147","2.4499999999999993","","",""
"3049.5999999940395","3","confid","","","html-slider-response","1305","943114","0.0-4.0-10.146-0.146","","","","Rate your confidence","1",""
"275.59999999403954","i","choice","right","i","experimental","1312","945166","0.0-4.0-8.147","true","148","2.349999999999999","","",""
"1774.2000000029802","3","confid","","","html-slider-response","1314","947443","0.0-4.0-10.147-0.147","","","","Rate your confidence","1",""
"329.70000000298023","e","choice","right","i","experimental","1321","949564","0.0-4.0-8.148","false","149","2.349999999999999","","",""
"1850.8999999910593","3","confid","","","html-slider-response","1323","951918","0.0-4.0-10.148-0.148","","","","Rate your confidence","1",""
"346.29999999701977","e","choice","left","e","experimental","1330","954054","0.0-4.0-8.149","true","150","2.4499999999999993","","",""
"1857.7000000029802","3","confid","","","html-slider-response","1332","956417","0.0-4.0-10.149-0.149","","","","Rate your confidence","1",""
"1554.5","i","choice","left","e","experimental","1339","959749","0.0-4.0-8.150","false","151","2.4499999999999993","","",""
"3326.2000000029802","3","confid","","","html-slider-response","1341","963580","0.0-4.0-10.150-0.150","","","","Rate your confidence","1",""
"338.40000000596046","e","choice","right","i","experimental","1348","965696","0.0-4.0-8.151","false","152","2.5499999999999994","","",""
"1783","4","confid","","","html-slider-response","1350","967982","0.0-4.0-10.151-0.151","","","","Rate your confidence","1",""
"964.5","e","choice","left","e","experimental","1358","998129","0.0-4.0-8.152","true","153","2.6499999999999995","","",""
"2130.5","3","confid","","","html-slider-response","1360","1000764","0.0-4.0-10.152-0.152","","","","Rate your confidence","1",""
"328.79999999701977","i","choice","right","i","experimental","1367","1002872","0.0-4.0-8.153","true","154","2.6499999999999995","","",""
"1965.6000000089407","4","confid","","","html-slider-response","1369","1005342","0.0-4.0-10.153-0.153","","","","Rate your confidence","1",""
"122.6000000089407","e","choice","right","i","experimental","1376","1007255","0.0-4.0-8.154","false","155","2.5499999999999994","","",""
"1710.4000000059605","4","confid","","","html-slider-response","1378","1009478","0.0-4.0-10.154-0.154","","","","Rate your confidence","1",""
"417.70000000298023","e","choice","left","e","experimental","1385","1011672","0.0-4.0-8.155","true","156","2.6499999999999995","","",""
"2018.9000000059605","3","confid","","","html-slider-response","1387","1014195","0.0-4.0-10.155-0.155","","","","Rate your confidence","1",""
"731.2999999970198","i","choice","right","i","experimental","1394","1016718","0.0-4.0-8.156","true","157","2.6499999999999995","","",""
"3316.2999999970198","4","confid","","","html-slider-response","1396","1020538","0.0-4.0-10.156-0.156","","","","Rate your confidence","1",""
"356.8999999910593","e","choice","left","e","experimental","1403","1022687","0.0-4.0-8.157","true","158","2.5499999999999994","","",""
"2250.7999999970198","4","confid","","","html-slider-response","1405","1025441","0.0-4.0-10.157-0.157","","","","Rate your confidence","1",""
"550.6000000089407","e","choice","left","e","experimental","1412","1027774","0.0-4.0-8.158","true","159","2.5499999999999994","","",""
"2869.7000000029802","3","confid","","","html-slider-response","1414","1031159","0.0-4.0-10.158-0.158","","","","Rate your confidence","1",""
"302.8999999910593","i","choice","right","i","experimental","1421","1033247","0.0-4.0-8.159","true","160","2.4499999999999993","","",""
"2516.7000000029802","4","confid","","","html-slider-response","1423","1036267","0.0-4.0-10.159-0.159","","","","Rate your confidence","1",""
"397.90000000596046","e","choice","right","i","experimental","1430","1038460","0.0-4.0-8.160","false","161","2.4499999999999993","","",""
"2031","4","confid","","","html-slider-response","1432","1040996","0.0-4.0-10.160-0.160","","","","Rate your confidence","1",""
"240.30000001192093","e","choice","left","e","experimental","1439","1043024","0.0-4.0-8.161","true","162","2.5499999999999994","","",""
"2719.8999999910593","4","confid","","","html-slider-response","1441","1046250","0.0-4.0-10.161-0.161","","","","Rate your confidence","1",""
"1532","e","choice","right","i","experimental","1448","1049568","0.0-4.0-8.162","false","163","2.5499999999999994","","",""
"1935.199999988079","2","confid","","","html-slider-response","1450","1052005","0.0-4.0-10.162-0.162","","","","Rate your confidence","1",""
"1551.2000000029802","e","choice","left","e","experimental","1457","1055342","0.0-4.0-8.163","true","164","2.6499999999999995","","",""
"1871.5","3","confid","","","html-slider-response","1459","1057715","0.0-4.0-10.163-0.163","","","","Rate your confidence","1",""
"544.2000000029802","i","choice","right","i","experimental","1466","1060041","0.0-4.0-8.164","true","165","2.6499999999999995","","",""
"3698.8999999910593","3","confid","","","html-slider-response","1468","1064242","0.0-4.0-10.164-0.164","","","","Rate your confidence","1",""
"657.2999999970198","e","choice","left","e","experimental","1475","1066694","0.0-4.0-8.165","true","166","2.5499999999999994","","",""
"3178","2","confid","","","html-slider-response","1477","1070375","0.0-4.0-10.165-0.165","","","","Rate your confidence","1",""
"455.70000000298023","i","choice","left","e","experimental","1484","1072605","0.0-4.0-8.166","false","167","2.5499999999999994","","",""
"2787.4000000059605","3","confid","","","html-slider-response","1486","1075903","0.0-4.0-10.166-0.166","","","","Rate your confidence","1",""
"500.6000000089407","i","choice","right","i","experimental","1493","1078192","0.0-4.0-8.167","true","168","2.6499999999999995","","",""
"1980.5999999940395","3","confid","","","html-slider-response","1495","1080676","0.0-4.0-10.167-0.167","","","","Rate your confidence","1",""
"1235.9000000059605","e","choice","right","i","experimental","1502","1083696","0.0-4.0-8.168","false","169","2.6499999999999995","","",""
"2085","3","confid","","","html-slider-response","1504","1086284","0.0-4.0-10.168-0.168","","","","Rate your confidence","1",""
"584.8999999910593","e","choice","left","e","experimental","1511","1088653","0.0-4.0-8.169","true","170","2.7499999999999996","","",""
"2195","3","confid","","","html-slider-response","1513","1091351","0.0-4.0-10.169-0.169","","","","Rate your confidence","1",""
"552.6999999880791","e","choice","right","i","experimental","1520","1093691","0.0-4.0-8.170","false","171","2.7499999999999996","","",""
"1915.9000000059605","3","confid","","","html-slider-response","1522","1096120","0.0-4.0-10.170-0.170","","","","Rate your confidence","1",""
"225.09999999403954","e","choice","left","e","experimental","1529","1098121","0.0-4.0-8.171","true","172","2.8499999999999996","","",""
"2884.7000000029802","4","confid","","","html-slider-response","1531","1101511","0.0-4.0-10.171-0.171","","","","Rate your confidence","1",""
"373.29999999701977","i","choice","right","i","experimental","1538","1103679","0.0-4.0-8.172","true","173","2.8499999999999996","","",""
"2472.4000000059605","3","confid","","","html-slider-response","1540","1106655","0.0-4.0-10.172-0.172","","","","Rate your confidence","1",""
"149.20000000298023","e","choice","left","e","experimental","1547","1108589","0.0-4.0-8.173","true","174","2.7499999999999996","","",""
"2443.2000000029802","5","confid","","","html-slider-response","1549","1111535","0.0-4.0-10.173-0.173","","","","Rate your confidence","1",""
"316.40000000596046","i","choice","left","e","experimental","1556","1113631","0.0-4.0-8.174","false","175","2.7499999999999996","","",""
"3591.2000000029802","4","confid","","","html-slider-response","1558","1117725","0.0-4.0-10.174-0.174","","","","Rate your confidence","1",""
"277.59999999403954","i","choice","right","i","experimental","1565","1119779","0.0-4.0-8.175","true","176","2.8499999999999996","","",""
"1902","4","confid","","","html-slider-response","1567","1122184","0.0-4.0-10.175-0.175","","","","Rate your confidence","1",""
"283.70000000298023","e","choice","left","e","experimental","1574","1124240","0.0-4.0-8.176","true","177","2.8499999999999996","","",""
"1924","3","confid","","","html-slider-response","1576","1126668","0.0-4.0-10.176-0.176","","","","Rate your confidence","1",""
"147.70000000298023","e","choice","right","i","experimental","1583","1128592","0.0-4.0-8.177","false","178","2.7499999999999996","","",""
"1864.1000000089407","4","confid","","","html-slider-response","1585","1130958","0.0-4.0-10.177-0.177","","","","Rate your confidence","1",""
"454.20000000298023","e","choice","left","e","experimental","1592","1133194","0.0-4.0-8.178","true","179","2.8499999999999996","","",""
"2833.2000000029802","4","confid","","","html-slider-response","1594","1136530","0.0-4.0-10.178-0.178","","","","Rate your confidence","1",""
"1036.1000000089407","i","choice","right","i","experimental","1601","1139341","0.0-4.0-8.179","true","180","2.8499999999999996","","",""
"2535.2000000029802","3","confid","","","html-slider-response","1603","1142379","0.0-4.0-10.179-0.179","","","","Rate your confidence","1",""
"159.70000000298023","e","choice","left","e","experimental","1610","1144311","0.0-4.0-8.180","true","181","2.7499999999999996","","",""
"2178.2999999970198","5","confid","","","html-slider-response","1612","1146992","0.0-4.0-10.180-0.180","","","","Rate your confidence","1",""
"391.79999999701977","i","choice","right","i","experimental","1619","1149164","0.0-4.0-8.181","true","182","2.7499999999999996","","",""
"2010.9000000059605","3","confid","","","html-slider-response","1621","1151677","0.0-4.0-10.181-0.181","","","","Rate your confidence","1",""
"13.600000008940697","e","choice","left","e","experimental","1628","1153464","0.0-4.0-8.182","true","183","2.6499999999999995","","",""
"2013","5","confid","","","html-slider-response","1630","1155981","0.0-4.0-10.182-0.182","","","","Rate your confidence","1",""
"195.40000000596046","i","choice","right","i","experimental","1637","1157965","0.0-4.0-8.183","true","184","2.6499999999999995","","",""
"2060.7000000029802","3","confid","","","html-slider-response","1639","1160528","0.0-4.0-10.183-0.183","","","","Rate your confidence","1",""
"567.7000000029802","i","choice","right","i","experimental","1646","1162873","0.0-4.0-8.184","true","185","2.5499999999999994","","",""
"1955","4","confid","","","html-slider-response","1648","1165333","0.0-4.0-10.184-0.184","","","","Rate your confidence","1",""
"221.29999999701977","e","choice","left","e","experimental","1655","1167332","0.0-4.0-8.185","true","186","2.5499999999999994","","",""
"2169.7000000029802","3","confid","","","html-slider-response","1657","1170005","0.0-4.0-10.185-0.185","","","","Rate your confidence","1",""
"1270.0999999940395","i","choice","left","e","experimental","1664","1173059","0.0-4.0-8.186","false","187","2.4499999999999993","","",""
"3269.2000000029802","2","confid","","","html-slider-response","1666","1176835","0.0-4.0-10.186-0.186","","","","Rate your confidence","1",""
"270.90000000596046","i","choice","right","i","experimental","1673","1178893","0.0-4.0-8.187","true","188","2.5499999999999994","","",""
"1954.3999999910593","3","confid","","","html-slider-response","1675","1181351","0.0-4.0-10.187-0.187","","","","Rate your confidence","1",""
"744.9000000059605","e","choice","left","e","experimental","1682","1183887","0.0-4.0-8.188","true","189","2.5499999999999994","","",""
"1807.7999999970198","3","confid","","","html-slider-response","1684","1186198","0.0-4.0-10.188-0.188","","","","Rate your confidence","1",""
"2462.0999999940395","e","choice","right","i","experimental","1691","1190457","0.0-4.0-8.189","false","190","2.4499999999999993","","",""
"3650.199999988079","2","confid","","","html-slider-response","1693","1194611","0.0-4.0-10.189-0.189","","","","Rate your confidence","1",""
"27.200000002980232","i","choice","right","i","experimental","1700","1196422","0.0-4.0-8.190","true","191","2.5499999999999994","","",""
"3866","4","confid","","","html-slider-response","1702","1200795","0.0-4.0-10.190-0.190","","","","Rate your confidence","1",""
"326","e","choice","left","e","experimental","1709","1202907","0.0-4.0-8.191","true","192","2.5499999999999994","","",""
"2003.5","4","confid","","","html-slider-response","1711","1205414","0.0-4.0-10.191-0.191","","","","Rate your confidence","1",""
"1725","e","choice","left","e","experimental","1718","1208917","0.0-4.0-8.192","true","193","2.4499999999999993","","",""
"1827.2999999970198","4","confid","","","html-slider-response","1720","1211249","0.0-4.0-10.192-0.192","","","","Rate your confidence","1",""
"2543.3999999910593","i","choice","right","i","experimental","1727","1215580","0.0-4.0-8.193","true","194","2.4499999999999993","","",""
"2136.6000000089407","2","confid","","","html-slider-response","1729","1218219","0.0-4.0-10.193-0.193","","","","Rate your confidence","1","61751"
