"rt","response","task","target_side","correct_response","trial_type","trial_index","time_elapsed","internal_node_id","correct","trial_number","n_dots","stimulus","slider_start","participant"
"3780.2999999523163","e","choice","right","i","practice","10","132544","0.0-4.0-8.0","false","1","4.25","","",""
"634.8999999761581","e","choice","left","e","practice","18","135528","0.0-4.0-8.1","true","2","4.65","","",""
"312.5","e","choice","left","e","practice","26","138166","0.0-4.0-8.2","true","3","4.65","","",""
"3589.6999999284744","i","choice","right","i","practice","34","144089","0.0-4.0-8.3","true","4","4.25","","",""
"362.10000002384186","i","choice","right","i","practice","42","146776","0.0-4.0-8.4","true","5","4.25","","",""
"218.90000009536743","i","choice","left","e","practice","50","149318","0.0-4.0-8.5","false","6","3.85","","",""
"843.6999999284744","i","choice","right","i","practice","58","152479","0.0-4.0-8.6","true","7","4.05","","",""
"142.89999997615814","i","choice","left","e","practice","66","154939","0.0-4.0-8.7","false","8","4.05","","",""
"176.80000007152557","i","choice","right","i","practice","74","157446","0.0-4.0-8.8","true","9","4.25","","",""
"207.80000007152557","e","choice","left","e","practice","82","160005","0.0-4.0-8.9","true","10","4.25","","",""
"4501.299999952316","i","choice","right","i","practice","90","166839","0.0-4.0-8.10","true","11","4.05","","",""
"590.3999999761581","e","choice","left","e","practice","98","169764","0.0-4.0-8.11","true","12","4.05","","",""
"555.8999999761581","i","choice","left","e","practice","106","172658","0.0-4.0-8.12","false","13","3.9499999999999997","","",""
"46.299999952316284","i","choice","right","i","practice","114","175046","0.0-4.0-8.13","true","14","4.05","","",""
"144.39999997615814","i","choice","right","i","practice","122","177522","0.0-4.0-8.14","true","15","4.05","","",""
"103.20000004768372","e","choice","left","e","practice","130","179949","0.0-4.0-8.15","true","16","3.9499999999999997","","",""
"245.70000004768372","e","choice","left","e","practice","138","182510","0.0-4.0-8.16","true","17","3.9499999999999997","","",""
"68.69999992847443","i","choice","right","i","practice","146","184904","0.0-4.0-8.17","true","18","3.8499999999999996","","",""
"116","i","choice","right","i","practice","154","187350","0.0-4.0-8.18","true","19","3.8499999999999996","","",""
"374.10000002384186","e","choice","left","e","practice","162","190059","0.0-4.0-8.19","true","20","3.7499999999999996","","",""
"85.5","e","choice","right","i","practice","170","192470","0.0-4.0-8.20","false","21","3.7499999999999996","","",""
"541.8000000715256","i","choice","left","e","practice","178","195321","0.0-4.0-8.21","false","22","3.8499999999999996","","",""
"422.6999999284744","e","choice","right","i","practice","186","198086","0.0-4.0-8.22","false","23","3.9499999999999997","","",""
"205.39999997615814","e","choice","left","e","practice","194","200598","0.0-4.0-8.23","true","24","4.05","","",""
"507.6999999284744","i","choice","left","e","practice","202","203448","0.0-4.0-8.24","false","25","4.05","","",""
"156.40000009536743","i","choice","right","i","practice","210","205936","0.0-4.0-8.25","true","26","4.1499999999999995","","",""
"177.09999990463257","e","choice","left","e","experimental","221","258512","0.0-4.0-8.26","true","27","4.1499999999999995","","",""
"6841.300000071526","5","confid","","","html-slider-response","223","265859","0.0-4.0-10.26-0.26","","","","Rate your confidence","1",""
"304","i","choice","right","i","experimental","230","267995","0.0-4.0-8.27","true","28","4.05","","",""
"5734","2","confid","","","html-slider-response","232","274229","0.0-4.0-10.27-0.27","","","","Rate your confidence","1",""
"324.60000002384186","e","choice","left","e","experimental","239","276393","0.0-4.0-8.28","true","29","4.05","","",""
"3358.100000023842","4","confid","","","html-slider-response","241","280260","0.0-4.0-10.28-0.28","","","","Rate your confidence","1",""
"54.799999952316284","i","choice","right","i","experimental","248","282133","0.0-4.0-8.29","true","30","3.9499999999999997","","",""
"9188.200000047684","6","confid","","","html-slider-response","250","291838","0.0-4.0-10.29-0.29","","","","Rate your confidence","1",""
"1773.5","i","choice","right","i","experimental","257","295442","0.0-4.0-8.30","true","31","3.9499999999999997","","",""
"4136","2","confid","","","html-slider-response","259","300090","0.0-4.0-10.30-0.30","","","","Rate your confidence","1",""
"478.39999997615814","e","choice","left","e","experimental","266","302387","0.0-4.0-8.31","true","32","3.8499999999999996","","",""
"4189.5","5","confid","","","html-slider-response","268","307088","0.0-4.0-10.31-0.31","","","","Rate your confidence","1",""
"400.2000000476837","e","choice","left","e","experimental","275","309316","0.0-4.0-8.32","true","33","3.8499999999999996","","",""
"3862.3000000715256","6","confid","","","html-slider-response","277","313684","0.0-4.0-10.32-0.32","","","","Rate your confidence","1",""
"158.20000004768372","i","choice","right","i","experimental","284","315670","0.0-4.0-8.33","true","34","3.7499999999999996","","",""
"6028.599999904633","2","confid","","","html-slider-response","286","322217","0.0-4.0-10.33-0.33","","","","Rate your confidence","1",""
"794.6999999284744","e","choice","right","i","experimental","293","324854","0.0-4.0-8.34","false","35","3.7499999999999996","","",""
"4707.100000023842","4","confid","","","html-slider-response","295","330076","0.0-4.0-10.34-0.34","","","","Rate your confidence","1",""
"66.90000009536743","e","choice","left","e","experimental","302","331976","0.0-4.0-8.35","true","36","3.8499999999999996","","",""
"3649","5","confid","","","html-slider-response","304","336145","0.0-4.0-10.35-0.35","","","","Rate your confidence","1",""
"361.7999999523163","i","choice","right","i","experimental","311","338305","0.0-4.0-8.36","true","37","3.8499999999999996","","",""
"2775.100000023842","6","confid","","","html-slider-response","313","341586","0.0-4.0-10.36-0.36","","","","Rate your confidence","1",""
"147.20000004768372","e","choice","left","e","experimental","320","343541","0.0-4.0-8.37","true","38","3.7499999999999996","","",""
"3096.3000000715256","6","confid","","","html-slider-response","322","347152","0.0-4.0-10.37-0.37","","","","Rate your confidence","1",""
"19.899999976158142","e","choice","right","i","experimental","329","348992","0.0-4.0-8.38","false","39","3.7499999999999996","","",""
"4050.5","6","confid","","","html-slider-response","331","353556","0.0-4.0-10.38-0.38","","","","Rate your confidence","1",""
"638.2000000476837","e","choice","left","e","experimental","338","356007","0.0-4.0-8.39","true","40","3.8499999999999996","","",""
"3102.5","6","confid","","","html-slider-response","340","359628","0.0-4.0-10.39-0.39","","","","Rate your confidence","1",""
"177.39999997615814","e","choice","left","e","experimental","347","361633","0.0-4.0-8.40","true","41","3.8499999999999996","","",""
"4009.8000000715256","5","confid","","","html-slider-response","349","366153","0.0-4.0-10.40-0.40","","","","Rate your confidence","1",""
"815.5999999046326","i","choice","right","i","experimental","356","368784","0.0-4.0-8.41","true","42","3.7499999999999996","","",""
"2881.7999999523163","2","confid","","","html-slider-response","358","372175","0.0-4.0-10.41-0.41","","","","Rate your confidence","1",""
"376.60000002384186","e","choice","right","i","experimental","365","374374","0.0-4.0-8.42","false","43","3.7499999999999996","","",""
"3145.600000023842","4","confid","","","html-slider-response","367","378024","0.0-4.0-10.42-0.42","","","","Rate your confidence","1",""
"408.10000002384186","e","choice","left","e","experimental","374","380237","0.0-4.0-8.43","true","44","3.8499999999999996","","",""
"3264.899999976158","3","confid","","","html-slider-response","376","384009","0.0-4.0-10.43-0.43","","","","Rate your confidence","1",""
"56.5","e","choice","left","e","experimental","383","385892","0.0-4.0-8.44","true","45","3.8499999999999996","","",""
"3104.600000023842","6","confid","","","html-slider-response","385","389504","0.0-4.0-10.44-0.44","","","","Rate your confidence","1",""
"613.3999999761581","i","choice","right","i","experimental","392","391935","0.0-4.0-8.45","true","46","3.7499999999999996","","",""
"3798.600000023842","6","confid","","","html-slider-response","394","396240","0.0-4.0-10.45-0.45","","","","Rate your confidence","1",""
"594.2000000476837","i","choice","left","e","experimental","401","398647","0.0-4.0-8.46","false","47","3.7499999999999996","","",""
"2936.600000023842","6","confid","","","html-slider-response","403","402090","0.0-4.0-10.46-0.46","","","","Rate your confidence","1",""
"48.5","i","choice","right","i","experimental","410","403952","0.0-4.0-8.47","true","48","3.8499999999999996","","",""
"2411.399999976158","6","confid","","","html-slider-response","412","406874","0.0-4.0-10.47-0.47","","","","Rate your confidence","1",""
"422.7000000476837","i","choice","right","i","experimental","419","409108","0.0-4.0-8.48","true","49","3.8499999999999996","","",""
"2807.100000023842","6","confid","","","html-slider-response","421","412420","0.0-4.0-10.48-0.48","","","","Rate your confidence","1",""
"227.79999995231628","e","choice","left","e","experimental","428","414453","0.0-4.0-8.49","true","50","3.7499999999999996","","",""
"2441.6999999284744","6","confid","","","html-slider-response","430","417401","0.0-4.0-10.49-0.49","","","","Rate your confidence","1",""
"76.5","i","choice","right","i","experimental","437","419290","0.0-4.0-8.50","true","51","3.7499999999999996","","",""
"4109.800000071526","6","confid","","","html-slider-response","439","423920","0.0-4.0-10.50-0.50","","","","Rate your confidence","1",""
"11.800000071525574","i","choice","left","e","experimental","446","425747","0.0-4.0-8.51","false","52","3.6499999999999995","","",""
"4423.200000047684","1","confid","","","html-slider-response","448","430678","0.0-4.0-10.51-0.51","","","","Rate your confidence","1",""
"92.79999995231628","i","choice","right","i","experimental","455","432595","0.0-4.0-8.52","true","53","3.7499999999999996","","",""
"2419.6999999284744","6","confid","","","html-slider-response","457","435521","0.0-4.0-10.52-0.52","","","","Rate your confidence","1",""
"38.700000047683716","e","choice","left","e","experimental","464","437391","0.0-4.0-8.53","true","54","3.7499999999999996","","",""
"2224.1999999284744","6","confid","","","html-slider-response","466","440121","0.0-4.0-10.53-0.53","","","","Rate your confidence","1",""
"714.8999999761581","i","choice","right","i","experimental","473","442640","0.0-4.0-8.54","true","55","3.6499999999999995","","",""
"2796.100000023842","6","confid","","","html-slider-response","475","445941","0.0-4.0-10.54-0.54","","","","Rate your confidence","1",""
"588.3000000715256","e","choice","left","e","experimental","482","448368","0.0-4.0-8.55","true","56","3.6499999999999995","","",""
"3765.399999976158","4","confid","","","html-slider-response","484","452641","0.0-4.0-10.55-0.55","","","","Rate your confidence","1",""
"355.10000002384186","e","choice","left","e","experimental","491","454808","0.0-4.0-8.56","true","57","3.5499999999999994","","",""
"2949.2999999523163","4","confid","","","html-slider-response","493","458272","0.0-4.0-10.56-0.56","","","","Rate your confidence","1",""
"267.1999999284744","i","choice","right","i","experimental","500","460361","0.0-4.0-8.57","true","58","3.5499999999999994","","",""
"5801.199999928474","5","confid","","","html-slider-response","502","466671","0.0-4.0-10.57-0.57","","","","Rate your confidence","1",""
"45.89999997615814","e","choice","right","i","experimental","509","468561","0.0-4.0-8.58","false","59","3.4499999999999993","","",""
"4210","3","confid","","","html-slider-response","511","473276","0.0-4.0-10.58-0.58","","","","Rate your confidence","1",""
"1295.3999999761581","i","choice","left","e","experimental","518","476425","0.0-4.0-8.59","false","60","3.5499999999999994","","",""
"3283.7000000476837","1","confid","","","html-slider-response","520","480225","0.0-4.0-10.59-0.59","","","","Rate your confidence","1",""
"301.2000000476837","i","choice","right","i","experimental","527","482370","0.0-4.0-8.60","true","61","3.6499999999999995","","",""
"3210.7999999523163","4","confid","","","html-slider-response","529","486087","0.0-4.0-10.60-0.60","","","","Rate your confidence","1",""
"380.2000000476837","e","choice","left","e","experimental","536","488277","0.0-4.0-8.61","true","62","3.6499999999999995","","",""
"2594.0999999046326","5","confid","","","html-slider-response","538","491388","0.0-4.0-10.61-0.61","","","","Rate your confidence","1",""
"685.3999999761581","i","choice","right","i","experimental","545","493895","0.0-4.0-8.62","true","63","3.5499999999999994","","",""
"3167.7999999523163","6","confid","","","html-slider-response","547","497570","0.0-4.0-10.62-0.62","","","","Rate your confidence","1",""
"79.5","e","choice","left","e","experimental","554","499459","0.0-4.0-8.63","true","64","3.5499999999999994","","",""
"11230.200000047684","6","confid","","","html-slider-response","556","511201","0.0-4.0-10.63-0.63","","","","Rate your confidence","1",""
"147.60000002384186","e","choice","left","e","experimental","563","513181","0.0-4.0-8.64","true","65","3.4499999999999993","","",""
"2569.8000000715256","6","confid","","","html-slider-response","565","516259","0.0-4.0-10.64-0.64","","","","Rate your confidence","1",""
"461.2000000476837","i","choice","right","i","experimental","572","518542","0.0-4.0-8.65","true","66","3.4499999999999993","","",""
"3587.7999999523163","6","confid","","","html-slider-response","574","522649","0.0-4.0-10.65-0.65","","","","Rate your confidence","1",""
"440.89999997615814","i","choice","right","i","experimental","581","524904","0.0-4.0-8.66","true","67","3.349999999999999","","",""
"2664.100000023842","6","confid","","","html-slider-response","583","528075","0.0-4.0-10.66-0.66","","","","Rate your confidence","1",""
"1767.3999999761581","e","choice","left","e","experimental","590","531647","0.0-4.0-8.67","true","68","3.349999999999999","","",""
"2950.7000000476837","6","confid","","","html-slider-response","592","535110","0.0-4.0-10.67-0.67","","","","Rate your confidence","1",""
"79.20000004768372","e","choice","left","e","experimental","600","897199","0.0-4.0-8.68","true","69","3.249999999999999","","",""
"5471.600000023842","5","confid","","","html-slider-response","602","903175","0.0-4.0-10.68-0.68","","","","Rate your confidence","1",""
"529.1000000238419","i","choice","right","i","experimental","609","905551","0.0-4.0-8.69","true","70","3.249999999999999","","",""
"4194.200000047684","5","confid","","","html-slider-response","611","910255","0.0-4.0-10.69-0.69","","","","Rate your confidence","1",""
"258.5","i","choice","right","i","experimental","618","912340","0.0-4.0-8.70","true","71","3.149999999999999","","",""
"3004","6","confid","","","html-slider-response","620","915861","0.0-4.0-10.70-0.70","","","","Rate your confidence","1",""
"500.09999990463257","e","choice","left","e","experimental","627","918177","0.0-4.0-8.71","true","72","3.149999999999999","","",""
"3146.9000000953674","6","confid","","","html-slider-response","629","921836","0.0-4.0-10.71-0.71","","","","Rate your confidence","1",""
"1172","i","choice","right","i","experimental","636","924815","0.0-4.0-8.72","true","73","3.049999999999999","","",""
"3333.3000000715256","2","confid","","","html-slider-response","638","928656","0.0-4.0-10.72-0.72","","","","Rate your confidence","1",""
"442.2000000476837","i","choice","left","e","experimental","645","930923","0.0-4.0-8.73","false","74","3.049999999999999","","",""
"2729.1999999284744","3","confid","","","html-slider-response","647","934160","0.0-4.0-10.73-0.73","","","","Rate your confidence","1",""
"700.3999999761581","e","choice","left","e","experimental","654","936659","0.0-4.0-8.74","true","75","3.149999999999999","","",""
"3392.399999976158","3","confid","","","html-slider-response","656","940564","0.0-4.0-10.74-0.74","","","","Rate your confidence","1",""
"26","i","choice","right","i","experimental","663","942400","0.0-4.0-8.75","true","76","3.149999999999999","","",""
"2854.3000000715256","4","confid","","","html-slider-response","665","945760","0.0-4.0-10.75-0.75","","","","Rate your confidence","1",""
"293.10000002384186","i","choice","left","e","experimental","672","947863","0.0-4.0-8.76","false","77","3.049999999999999","","",""
"2801.3000000715256","4","confid","","","html-slider-response","674","951175","0.0-4.0-10.76-0.76","","","","Rate your confidence","1",""
"189","i","choice","right","i","experimental","681","953175","0.0-4.0-8.77","true","78","3.149999999999999","","",""
"2404.2000000476837","4","confid","","","html-slider-response","683","956089","0.0-4.0-10.77-0.77","","","","Rate your confidence","1",""
"597.1999999284744","i","choice","right","i","experimental","690","958502","0.0-4.0-8.78","true","79","3.149999999999999","","",""
"2465.2000000476837","6","confid","","","html-slider-response","692","961488","0.0-4.0-10.78-0.78","","","","Rate your confidence","1",""
"857.8000000715256","i","choice","left","e","experimental","699","964161","0.0-4.0-8.79","false","80","3.049999999999999","","",""
"3108.5","1","confid","","","html-slider-response","701","967781","0.0-4.0-10.79-0.79","","","","Rate your confidence","1",""
"569","i","choice","right","i","experimental","708","970158","0.0-4.0-8.80","true","81","3.149999999999999","","",""
"2455","6","confid","","","html-slider-response","710","973132","0.0-4.0-10.80-0.80","","","","Rate your confidence","1",""
"69","e","choice","left","e","experimental","717","975007","0.0-4.0-8.81","true","82","3.149999999999999","","",""
"2552.2999999523163","4","confid","","","html-slider-response","719","978077","0.0-4.0-10.81-0.81","","","","Rate your confidence","1",""
"505.2999999523163","e","choice","left","e","experimental","726","980400","0.0-4.0-8.82","true","83","3.049999999999999","","",""
"3619.100000023842","6","confid","","","html-slider-response","728","984523","0.0-4.0-10.82-0.82","","","","Rate your confidence","1",""
"7.600000023841858","i","choice","right","i","experimental","735","986341","0.0-4.0-8.83","true","84","3.049999999999999","","",""
"3267.899999976158","5","confid","","","html-slider-response","737","990141","0.0-4.0-10.83-0.83","","","","Rate your confidence","1",""
"892.7999999523163","i","choice","left","e","experimental","744","992835","0.0-4.0-8.84","false","85","2.949999999999999","","",""
"2814.5","1","confid","","","html-slider-response","746","996156","0.0-4.0-10.84-0.84","","","","Rate your confidence","1",""
"290.2000000476837","i","choice","right","i","experimental","753","998248","0.0-4.0-8.85","true","86","3.049999999999999","","",""
"2666.3000000715256","6","confid","","","html-slider-response","755","1001425","0.0-4.0-10.85-0.85","","","","Rate your confidence","1",""
"357.09999990463257","i","choice","right","i","experimental","762","1003579","0.0-4.0-8.86","true","87","3.049999999999999","","",""
"4729.200000047684","5","confid","","","html-slider-response","764","1008824","0.0-4.0-10.86-0.86","","","","Rate your confidence","1",""
"458.39999997615814","e","choice","left","e","experimental","771","1011131","0.0-4.0-8.87","true","88","2.949999999999999","","",""
"2288.2999999523163","3","confid","","","html-slider-response","773","1013927","0.0-4.0-10.87-0.87","","","","Rate your confidence","1",""
"239.69999992847443","e","choice","left","e","experimental","780","1015979","0.0-4.0-8.88","true","89","2.949999999999999","","",""
"2130.399999976158","3","confid","","","html-slider-response","782","1018629","0.0-4.0-10.88-0.88","","","","Rate your confidence","1",""
"670.4000000953674","i","choice","right","i","experimental","789","1021135","0.0-4.0-8.89","true","90","2.8499999999999988","","",""
"2840.2999999523163","5","confid","","","html-slider-response","791","1024485","0.0-4.0-10.89-0.89","","","","Rate your confidence","1",""
"554.3999999761581","e","choice","left","e","experimental","798","1026856","0.0-4.0-8.90","true","91","2.8499999999999988","","",""
"2525","5","confid","","","html-slider-response","800","1029889","0.0-4.0-10.90-0.90","","","","Rate your confidence","1",""
"653.4000000953674","i","choice","right","i","experimental","807","1032349","0.0-4.0-8.91","true","92","2.7499999999999987","","",""
"2670.2999999523163","5","confid","","","html-slider-response","809","1035536","0.0-4.0-10.91-0.91","","","","Rate your confidence","1",""
"238.79999995231628","i","choice","right","i","experimental","816","1037604","0.0-4.0-8.92","true","93","2.7499999999999987","","",""
"2854.5","5","confid","","","html-slider-response","818","1040965","0.0-4.0-10.92-0.92","","","","Rate your confidence","1",""
"360.39999997615814","i","choice","left","e","experimental","825","1043133","0.0-4.0-8.93","false","94","2.6499999999999986","","",""
"2150","5","confid","","","html-slider-response","827","1045789","0.0-4.0-10.93-0.93","","","","Rate your confidence","1",""
"373.10000002384186","i","choice","right","i","experimental","834","1047987","0.0-4.0-8.94","true","95","2.7499999999999987","","",""
"3475.2000000476837","5","confid","","","html-slider-response","836","1051979","0.0-4.0-10.94-0.94","","","","Rate your confidence","1",""
"527.2999999523163","e","choice","left","e","experimental","843","1054327","0.0-4.0-8.95","true","96","2.7499999999999987","","",""
"2617.3000000715256","5","confid","","","html-slider-response","845","1057472","0.0-4.0-10.95-0.95","","","","Rate your confidence","1",""
"328.40000009536743","e","choice","right","i","experimental","852","1059624","0.0-4.0-8.96","false","97","2.6499999999999986","","",""
"2456.6999999284744","5","confid","","","html-slider-response","854","1062592","0.0-4.0-10.96-0.96","","","","Rate your confidence","1",""
"111","e","choice","left","e","experimental","861","1064526","0.0-4.0-8.97","true","98","2.7499999999999987","","",""
"2530","6","confid","","","html-slider-response","863","1067561","0.0-4.0-10.97-0.97","","","","Rate your confidence","1",""
"101.09999990463257","i","choice","left","e","experimental","870","1069496","0.0-4.0-8.98","false","99","2.7499999999999987","","",""
"3388.7000000476837","5","confid","","","html-slider-response","872","1073394","0.0-4.0-10.98-0.98","","","","Rate your confidence","1",""
"418.7000000476837","i","choice","right","i","experimental","879","1075630","0.0-4.0-8.99","true","100","2.8499999999999988","","",""
"2154.5","4","confid","","","html-slider-response","881","1078299","0.0-4.0-10.99-0.99","","","","Rate your confidence","1",""
"125.89999997615814","i","choice","left","e","experimental","888","1080233","0.0-4.0-8.100","false","101","2.8499999999999988","","",""
"2512.399999976158","5","confid","","","html-slider-response","890","1083254","0.0-4.0-10.100-0.100","","","","Rate your confidence","1",""
"564.2999999523163","i","choice","right","i","experimental","897","1085621","0.0-4.0-8.101","true","102","2.949999999999999","","",""
"2709.2000000476837","5","confid","","","html-slider-response","899","1088839","0.0-4.0-10.101-0.101","","","","Rate your confidence","1",""
"489.6999999284744","e","choice","right","i","experimental","906","1091146","0.0-4.0-8.102","false","103","2.949999999999999","","",""
"2701.6999999284744","5","confid","","","html-slider-response","908","1094361","0.0-4.0-10.102-0.102","","","","Rate your confidence","1",""
"570.2000000476837","i","choice","left","e","experimental","915","1096744","0.0-4.0-8.103","false","104","3.049999999999999","","",""
"4192.100000023842","5","confid","","","html-slider-response","917","1101445","0.0-4.0-10.103-0.103","","","","Rate your confidence","1",""
"266.1999999284744","e","choice","left","e","experimental","924","1103532","0.0-4.0-8.104","true","105","3.149999999999999","","",""
"3127","6","confid","","","html-slider-response","926","1107167","0.0-4.0-10.104-0.104","","","","Rate your confidence","1",""
"420.5","e","choice","right","i","experimental","933","1109409","0.0-4.0-8.105","false","106","3.149999999999999","","",""
"7731.5","3","confid","","","html-slider-response","935","1117658","0.0-4.0-10.105-0.105","","","","Rate your confidence","1",""
"51.60000002384186","e","choice","left","e","experimental","942","1119537","0.0-4.0-8.106","true","107","3.249999999999999","","",""
"2513.4000000953674","4","confid","","","html-slider-response","944","1122567","0.0-4.0-10.106-0.106","","","","Rate your confidence","1",""
"306.10000002384186","e","choice","right","i","experimental","951","1124684","0.0-4.0-8.107","false","108","3.249999999999999","","",""
"3287.899999976158","5","confid","","","html-slider-response","953","1128485","0.0-4.0-10.107-0.107","","","","Rate your confidence","1",""
"343.39999997615814","e","choice","left","e","experimental","960","1130641","0.0-4.0-8.108","true","109","3.349999999999999","","",""
"3173.7000000476837","5","confid","","","html-slider-response","962","1134333","0.0-4.0-10.108-0.108","","","","Rate your confidence","1",""
"935.7000000476837","e","choice","right","i","experimental","969","1137097","0.0-4.0-8.109","false","110","3.349999999999999","","",""
"3032.8000000715256","3","confid","","","html-slider-response","971","1140634","0.0-4.0-10.109-0.109","","","","Rate your confidence","1",""
"586.6000000238419","e","choice","left","e","experimental","979","2219860","0.0-4.0-8.110","true","111","3.4499999999999993","","",""
"2638.2999999523163","5","confid","","","html-slider-response","981","2223008","0.0-4.0-10.110-0.110","","","","Rate your confidence","1",""
"28.399999976158142","i","choice","right","i","experimental","988","2224876","0.0-4.0-8.111","true","112","3.4499999999999993","","",""
"2324.9000000953674","6","confid","","","html-slider-response","990","2227715","0.0-4.0-10.111-0.111","","","","Rate your confidence","1",""
"45.5","i","choice","right","i","experimental","997","2229586","0.0-4.0-8.112","true","113","3.349999999999999","","",""
"3246.5","6","confid","","","html-slider-response","999","2233342","0.0-4.0-10.112-0.112","","","","Rate your confidence","1",""
"3511.7999999523163","e","choice","left","e","experimental","1006","2238667","0.0-4.0-8.113","true","114","3.349999999999999","","",""
"2511","1","confid","","","html-slider-response","1008","2241691","0.0-4.0-10.113-0.113","","","","Rate your confidence","1",""
"332.2000000476837","i","choice","right","i","experimental","1015","2243841","0.0-4.0-8.114","true","115","3.249999999999999","","",""
"17625.5","1","confid","","","html-slider-response","1017","2261965","0.0-4.0-10.114-0.114","","","","Rate your confidence","1",""
"1302.8000000715256","e","choice","left","e","experimental","1024","2265079","0.0-4.0-8.115","true","116","3.249999999999999","","",""
"2446.100000023842","3","confid","","","html-slider-response","1026","2268034","0.0-4.0-10.115-0.115","","","","Rate your confidence","1",""
"135.89999997615814","i","choice","right","i","experimental","1033","2269984","0.0-4.0-8.116","true","117","3.149999999999999","","",""
"2135.7000000476837","5","confid","","","html-slider-response","1035","2272636","0.0-4.0-10.116-0.116","","","","Rate your confidence","1",""
"349.2999999523163","i","choice","left","e","experimental","1042","2274797","0.0-4.0-8.117","false","118","3.149999999999999","","",""
"2753.5","6","confid","","","html-slider-response","1044","2278061","0.0-4.0-10.117-0.117","","","","Rate your confidence","1",""
"90.60000002384186","i","choice","left","e","experimental","1051","2279971","0.0-4.0-8.118","false","119","3.249999999999999","","",""
"3065.5","3","confid","","","html-slider-response","1053","2283549","0.0-4.0-10.118-0.118","","","","Rate your confidence","1",""
"752.7000000476837","i","choice","right","i","experimental","1060","2286115","0.0-4.0-8.119","true","120","3.349999999999999","","",""
"6615.099999904633","1","confid","","","html-slider-response","1062","2293250","0.0-4.0-10.119-0.119","","","","Rate your confidence","1",""
"115.80000007152557","i","choice","left","e","experimental","1069","2295173","0.0-4.0-8.120","false","121","3.349999999999999","","",""
"2972.5","5","confid","","","html-slider-response","1071","2298662","0.0-4.0-10.120-0.120","","","","Rate your confidence","1",""
"78.70000004768372","i","choice","right","i","experimental","1078","2300561","0.0-4.0-8.121","true","122","3.4499999999999993","","",""
"5685.5","6","confid","","","html-slider-response","1080","2306756","0.0-4.0-10.121-0.121","","","","Rate your confidence","1",""
"325.90000009536743","e","choice","left","e","experimental","1087","2308909","0.0-4.0-8.122","true","123","3.4499999999999993","","",""
"5593.899999976158","1","confid","","","html-slider-response","1089","2315009","0.0-4.0-10.122-0.122","","","","Rate your confidence","1",""
"1067.6000000238419","i","choice","right","i","experimental","1096","2317916","0.0-4.0-8.123","true","124","3.349999999999999","","",""
"34202.5","1","confid","","","html-slider-response","1098","2352633","0.0-4.0-10.123-0.123","","","","Rate your confidence","1",""
"2236.2999999523163","i","choice","right","i","experimental","1105","2356684","0.0-4.0-8.124","true","125","3.349999999999999","","",""
"7584.300000071526","5","confid","","","html-slider-response","1107","2364780","0.0-4.0-10.124-0.124","","","","Rate your confidence","1",""
"78.30000007152557","e","choice","left","e","experimental","1114","2366680","0.0-4.0-8.125","true","126","3.249999999999999","","",""
"2518.600000023842","4","confid","","","html-slider-response","1116","2369711","0.0-4.0-10.125-0.125","","","","Rate your confidence","1",""
"1503.3999999761581","e","choice","right","i","experimental","1123","2373022","0.0-4.0-8.126","false","127","3.249999999999999","","",""
"4190.699999928474","3","confid","","","html-slider-response","1125","2377716","0.0-4.0-10.126-0.126","","","","Rate your confidence","1",""
"493.2000000476837","e","choice","left","e","experimental","1132","2380025","0.0-4.0-8.127","true","128","3.349999999999999","","",""
"4655","4","confid","","","html-slider-response","1134","2385192","0.0-4.0-10.127-0.127","","","","Rate your confidence","1",""
"35.699999928474426","e","choice","left","e","experimental","1141","2387044","0.0-4.0-8.128","true","129","3.349999999999999","","",""
"2863.399999976158","4","confid","","","html-slider-response","1143","2390422","0.0-4.0-10.128-0.128","","","","Rate your confidence","1",""
"33.89999997615814","i","choice","right","i","experimental","1150","2392274","0.0-4.0-8.129","true","130","3.249999999999999","","",""
"16205.5","5","confid","","","html-slider-response","1152","2408993","0.0-4.0-10.129-0.129","","","","Rate your confidence","1",""
"813.8999999761581","e","choice","left","e","experimental","1159","2411608","0.0-4.0-8.130","true","131","3.249999999999999","","",""
"3127.100000023842","5","confid","","","html-slider-response","1161","2415256","0.0-4.0-10.130-0.130","","","","Rate your confidence","1",""
"241.60000002384186","i","choice","right","i","experimental","1168","2417318","0.0-4.0-8.131","true","132","3.149999999999999","","",""
"4337.900000095367","5","confid","","","html-slider-response","1170","2422170","0.0-4.0-10.131-0.131","","","","Rate your confidence","1",""
"537.2999999523163","e","choice","left","e","experimental","1177","2424510","0.0-4.0-8.132","true","133","3.149999999999999","","",""
"3074.0999999046326","3","confid","","","html-slider-response","1179","2428091","0.0-4.0-10.132-0.132","","","","Rate your confidence","1",""
"312.7000000476837","i","choice","right","i","experimental","1186","2430212","0.0-4.0-8.133","true","134","3.049999999999999","","",""
"2148.2999999523163","5","confid","","","html-slider-response","1188","2432872","0.0-4.0-10.133-0.133","","","","Rate your confidence","1",""
"140.70000004768372","e","choice","left","e","experimental","1195","2434827","0.0-4.0-8.134","true","135","3.049999999999999","","",""
"2747.3000000715256","5","confid","","","html-slider-response","1197","2438092","0.0-4.0-10.134-0.134","","","","Rate your confidence","1",""
"1307.8000000715256","i","choice","right","i","experimental","1204","2441234","0.0-4.0-8.135","true","136","2.949999999999999","","",""
"3276.5","5","confid","","","html-slider-response","1206","2445025","0.0-4.0-10.135-0.135","","","","Rate your confidence","1",""
"1490.1999999284744","e","choice","right","i","experimental","1213","2448327","0.0-4.0-8.136","false","137","2.949999999999999","","",""
"2488.6999999284744","3","confid","","","html-slider-response","1215","2451323","0.0-4.0-10.136-0.136","","","","Rate your confidence","1",""
"330.90000009536743","e","choice","left","e","experimental","1222","2453466","0.0-4.0-8.137","true","138","3.049999999999999","","",""
"4276.100000023842","5","confid","","","html-slider-response","1224","2458259","0.0-4.0-10.137-0.137","","","","Rate your confidence","1",""
"405.7999999523163","e","choice","left","e","experimental","1231","2460477","0.0-4.0-8.138","true","139","3.049999999999999","","",""
"3263.899999976158","5","confid","","","html-slider-response","1233","2464247","0.0-4.0-10.138-0.138","","","","Rate your confidence","1",""
"295.10000002384186","i","choice","right","i","experimental","1240","2466368","0.0-4.0-8.139","true","140","2.949999999999999","","",""
"3030.5","3","confid","","","html-slider-response","1242","2469904","0.0-4.0-10.139-0.139","","","","Rate your confidence","1",""
"185.5","i","choice","right","i","experimental","1249","2471926","0.0-4.0-8.140","true","141","2.949999999999999","","",""
"4205.399999976158","5","confid","","","html-slider-response","1251","2476639","0.0-4.0-10.140-0.140","","","","Rate your confidence","1",""
"846.7000000476837","e","choice","left","e","experimental","1258","2479312","0.0-4.0-8.141","true","142","2.8499999999999988","","",""
"3103.2999999523163","4","confid","","","html-slider-response","1260","2482932","0.0-4.0-10.141-0.141","","","","Rate your confidence","1",""
"348.2000000476837","i","choice","right","i","experimental","1267","2485087","0.0-4.0-8.142","true","143","2.8499999999999988","","",""
"2415.399999976158","5","confid","","","html-slider-response","1269","2488009","0.0-4.0-10.142-0.142","","","","Rate your confidence","1",""
"418.2999999523163","e","choice","left","e","experimental","1276","2490235","0.0-4.0-8.143","true","144","2.7499999999999987","","",""
"3640.9000000953674","4","confid","","","html-slider-response","1278","2494384","0.0-4.0-10.143-0.143","","","","Rate your confidence","1",""
"497.60000002384186","i","choice","right","i","experimental","1285","2496692","0.0-4.0-8.144","true","145","2.7499999999999987","","",""
"5537.100000023842","4","confid","","","html-slider-response","1287","2502738","0.0-4.0-10.144-0.144","","","","Rate your confidence","1",""
"1639.6000000238419","i","choice","left","e","experimental","1294","2506215","0.0-4.0-8.145","false","146","2.6499999999999986","","",""
"2374.7999999523163","4","confid","","","html-slider-response","1296","2509103","0.0-4.0-10.145-0.145","","","","Rate your confidence","1",""
"836","i","choice","left","e","experimental","1303","2511763","0.0-4.0-8.146","false","147","2.7499999999999987","","",""
"4458.899999976158","1","confid","","","html-slider-response","1305","2516731","0.0-4.0-10.146-0.146","","","","Rate your confidence","1",""
"562.3999999761581","i","choice","right","i","experimental","1312","2519097","0.0-4.0-8.147","true","148","2.8499999999999988","","",""
"2384.7999999523163","4","confid","","","html-slider-response","1314","2521987","0.0-4.0-10.147-0.147","","","","Rate your confidence","1",""
"997.2999999523163","i","choice","left","e","experimental","1321","2524812","0.0-4.0-8.148","false","149","2.8499999999999988","","",""
"3152.2999999523163","2","confid","","","html-slider-response","1323","2528485","0.0-4.0-10.148-0.148","","","","Rate your confidence","1",""
"1588.2999999523163","e","choice","right","i","experimental","1330","2531890","0.0-4.0-8.149","false","150","2.949999999999999","","",""
"2437.7999999523163","2","confid","","","html-slider-response","1332","2534838","0.0-4.0-10.149-0.149","","","","Rate your confidence","1",""
"349.5","i","choice","left","e","experimental","1339","2537026","0.0-4.0-8.150","false","151","3.049999999999999","","",""
"3414.899999976158","4","confid","","","html-slider-response","1341","2540953","0.0-4.0-10.150-0.150","","","","Rate your confidence","1",""
"391.5","i","choice","right","i","experimental","1348","2543169","0.0-4.0-8.151","true","152","3.149999999999999","","",""
"2566.399999976158","4","confid","","","html-slider-response","1350","2546247","0.0-4.0-10.151-0.151","","","","Rate your confidence","1",""
"691.8999999761581","e","choice","right","i","experimental","1358","3040908","0.0-4.0-8.152","false","153","3.149999999999999","","",""
"6593.5","1","confid","","","html-slider-response","1360","3048009","0.0-4.0-10.152-0.152","","","","Rate your confidence","1",""
"203.10000002384186","e","choice","left","e","experimental","1367","3050024","0.0-4.0-8.153","true","154","3.249999999999999","","",""
"3042","1","confid","","","html-slider-response","1369","3053573","0.0-4.0-10.153-0.153","","","","Rate your confidence","1",""
"1985.3999999761581","e","choice","left","e","experimental","1376","3057388","0.0-4.0-8.154","true","155","3.249999999999999","","",""
"3719.899999976158","3","confid","","","html-slider-response","1378","3061616","0.0-4.0-10.154-0.154","","","","Rate your confidence","1",""
"141.69999992847443","i","choice","right","i","experimental","1385","3063593","0.0-4.0-8.155","true","156","3.149999999999999","","",""
"3953.100000023842","4","confid","","","html-slider-response","1387","3068057","0.0-4.0-10.155-0.155","","","","Rate your confidence","1",""
"443.3000000715256","i","choice","right","i","experimental","1394","3070343","0.0-4.0-8.156","true","157","3.149999999999999","","",""
"2794.7000000476837","3","confid","","","html-slider-response","1396","3073650","0.0-4.0-10.156-0.156","","","","Rate your confidence","1",""
"383.1999999284744","i","choice","left","e","experimental","1403","3075867","0.0-4.0-8.157","false","158","3.049999999999999","","",""
"2974.100000023842","2","confid","","","html-slider-response","1405","3079358","0.0-4.0-10.157-0.157","","","","Rate your confidence","1",""
"122.80000007152557","e","choice","left","e","experimental","1412","3081293","0.0-4.0-8.158","true","159","3.149999999999999","","",""
"3068.6999999284744","4","confid","","","html-slider-response","1414","3084879","0.0-4.0-10.158-0.158","","","","Rate your confidence","1",""
"248.89999997615814","i","choice","right","i","experimental","1421","3086936","0.0-4.0-8.159","true","160","3.149999999999999","","",""
"3294.399999976158","4","confid","","","html-slider-response","1423","3090744","0.0-4.0-10.159-0.159","","","","Rate your confidence","1",""
"560.7000000476837","i","choice","right","i","experimental","1430","3093125","0.0-4.0-8.160","true","161","3.049999999999999","","",""
"4408.5","4","confid","","","html-slider-response","1432","3098049","0.0-4.0-10.160-0.160","","","","Rate your confidence","1",""
"955.2000000476837","e","choice","left","e","experimental","1439","3100813","0.0-4.0-8.161","true","162","3.049999999999999","","",""
"2834.9000000953674","3","confid","","","html-slider-response","1441","3104160","0.0-4.0-10.161-0.161","","","","Rate your confidence","1",""
"496.90000009536743","e","choice","left","e","experimental","1448","3106478","0.0-4.0-8.162","true","163","2.949999999999999","","",""
"3605.100000023842","3","confid","","","html-slider-response","1450","3110592","0.0-4.0-10.162-0.162","","","","Rate your confidence","1",""
"514.6000000238419","e","choice","right","i","experimental","1457","3112935","0.0-4.0-8.163","false","164","2.949999999999999","","",""
"3099","3","confid","","","html-slider-response","1459","3116556","0.0-4.0-10.163-0.163","","","","Rate your confidence","1",""
"385.60000002384186","e","choice","left","e","experimental","1466","3118767","0.0-4.0-8.164","true","165","3.049999999999999","","",""
"2362.899999976158","3","confid","","","html-slider-response","1468","3121660","0.0-4.0-10.164-0.164","","","","Rate your confidence","1",""
"451.6999999284744","i","choice","right","i","experimental","1475","3123942","0.0-4.0-8.165","true","166","3.049999999999999","","",""
"3097.7999999523163","3","confid","","","html-slider-response","1477","3127548","0.0-4.0-10.165-0.165","","","","Rate your confidence","1",""
"294.39999997615814","i","choice","right","i","experimental","1484","3129687","0.0-4.0-8.166","true","167","2.949999999999999","","",""
"6915.299999952316","3","confid","","","html-slider-response","1486","3137113","0.0-4.0-10.166-0.166","","","","Rate your confidence","1",""
"61","e","choice","left","e","experimental","1493","3139012","0.0-4.0-8.167","true","168","2.949999999999999","","",""
"2447","4","confid","","","html-slider-response","1495","3141970","0.0-4.0-10.167-0.167","","","","Rate your confidence","1",""
"78.30000007152557","i","choice","right","i","experimental","1502","3143859","0.0-4.0-8.168","true","169","2.8499999999999988","","",""
"2409.399999976158","4","confid","","","html-slider-response","1504","3146777","0.0-4.0-10.168-0.168","","","","Rate your confidence","1",""
"175.60000002384186","i","choice","left","e","experimental","1511","3148772","0.0-4.0-8.169","false","170","2.8499999999999988","","",""
"2870.7000000476837","1","confid","","","html-slider-response","1513","3152155","0.0-4.0-10.169-0.169","","","","Rate your confidence","1",""
"257.39999997615814","e","choice","left","e","experimental","1520","3154227","0.0-4.0-8.170","true","171","2.949999999999999","","",""
"2425.100000023842","4","confid","","","html-slider-response","1522","3157152","0.0-4.0-10.170-0.170","","","","Rate your confidence","1",""
"27.5","e","choice","right","i","experimental","1529","3159003","0.0-4.0-8.171","false","172","2.949999999999999","","",""
"2276.5","4","confid","","","html-slider-response","1531","3161790","0.0-4.0-10.171-0.171","","","","Rate your confidence","1",""
"293.39999997615814","e","choice","right","i","experimental","1538","3163930","0.0-4.0-8.172","false","173","3.049999999999999","","",""
"3715.5","4","confid","","","html-slider-response","1540","3168165","0.0-4.0-10.172-0.172","","","","Rate your confidence","1",""
"494.39999997615814","e","choice","left","e","experimental","1547","3170503","0.0-4.0-8.173","true","174","3.149999999999999","","",""
"2956.399999976158","5","confid","","","html-slider-response","1549","3173970","0.0-4.0-10.173-0.173","","","","Rate your confidence","1",""
"436.7000000476837","e","choice","left","e","experimental","1556","3176249","0.0-4.0-8.174","true","175","3.149999999999999","","",""
"2502.5","5","confid","","","html-slider-response","1558","3179262","0.0-4.0-10.174-0.174","","","","Rate your confidence","1",""
"666.7999999523163","i","choice","right","i","experimental","1565","3181737","0.0-4.0-8.175","true","176","3.049999999999999","","",""
"2578.6999999284744","4","confid","","","html-slider-response","1567","3184825","0.0-4.0-10.175-0.175","","","","Rate your confidence","1",""
"109","e","choice","left","e","experimental","1574","3186744","0.0-4.0-8.176","true","177","3.049999999999999","","",""
"2447.899999976158","5","confid","","","html-slider-response","1576","3189701","0.0-4.0-10.176-0.176","","","","Rate your confidence","1",""
"238.89999997615814","e","choice","right","i","experimental","1583","3191739","0.0-4.0-8.177","false","178","2.949999999999999","","",""
"4556.700000047684","5","confid","","","html-slider-response","1585","3196817","0.0-4.0-10.177-0.177","","","","Rate your confidence","1",""
"289","e","choice","right","i","experimental","1592","3198920","0.0-4.0-8.178","false","179","3.049999999999999","","",""
"4506.299999952316","4","confid","","","html-slider-response","1594","3203935","0.0-4.0-10.178-0.178","","","","Rate your confidence","1",""
"1396.5","e","choice","left","e","experimental","1601","3207153","0.0-4.0-8.179","true","180","3.149999999999999","","",""
"3231.899999976158","4","confid","","","html-slider-response","1603","3210895","0.0-4.0-10.179-0.179","","","","Rate your confidence","1",""
"3.399999976158142","e","choice","left","e","experimental","1610","3212730","0.0-4.0-8.180","true","181","3.149999999999999","","",""
"3269.2999999523163","4","confid","","","html-slider-response","1612","3214488","0.0-4.0-10.180-0.180","","","","Rate your confidence","1",""
"381.2000000476837","i","choice","right","i","experimental","1619","3216686","0.0-4.0-8.181","true","182","3.049999999999999","","",""
"2991.600000023842","3","confid","","","html-slider-response","1621","3220184","0.0-4.0-10.181-0.181","","","","Rate your confidence","1",""
"747.6000000238419","e","choice","left","e","experimental","1628","3222759","0.0-4.0-8.182","true","183","3.049999999999999","","",""
"3268.2000000476837","2","confid","","","html-slider-response","1630","3226537","0.0-4.0-10.182-0.182","","","","Rate your confidence","1",""
"279","i","choice","right","i","experimental","1637","3228644","0.0-4.0-8.183","true","184","2.949999999999999","","",""
"2806","2","confid","","","html-slider-response","1639","3231958","0.0-4.0-10.183-0.183","","","","Rate your confidence","1",""
"202.59999990463257","i","choice","right","i","experimental","1646","3233991","0.0-4.0-8.184","true","185","2.949999999999999","","",""
"3064.100000023842","5","confid","","","html-slider-response","1648","3237566","0.0-4.0-10.184-0.184","","","","Rate your confidence","1",""
"66.29999995231628","e","choice","left","e","experimental","1655","3239455","0.0-4.0-8.185","true","186","2.8499999999999988","","",""
"2733","5","confid","","","html-slider-response","1657","3242701","0.0-4.0-10.185-0.185","","","","Rate your confidence","1",""
"521.6000000238419","i","choice","right","i","experimental","1664","3245025","0.0-4.0-8.186","true","187","2.8499999999999988","","",""
"2132.5999999046326","3","confid","","","html-slider-response","1666","3247669","0.0-4.0-10.186-0.186","","","","Rate your confidence","1",""
"675.2000000476837","i","choice","left","e","experimental","1673","3250155","0.0-4.0-8.187","false","188","2.7499999999999987","","",""
"4790","2","confid","","","html-slider-response","1675","3255452","0.0-4.0-10.187-0.187","","","","Rate your confidence","1",""
"382","e","choice","right","i","experimental","1682","3257640","0.0-4.0-8.188","false","189","2.8499999999999988","","",""
"4127.300000071526","3","confid","","","html-slider-response","1684","3262282","0.0-4.0-10.188-0.188","","","","Rate your confidence","1",""
"489.3000000715256","e","choice","left","e","experimental","1691","3264579","0.0-4.0-8.189","true","190","2.949999999999999","","",""
"5864.199999928474","3","confid","","","html-slider-response","1693","3270948","0.0-4.0-10.189-0.189","","","","Rate your confidence","1",""
"251.5","e","choice","left","e","experimental","1700","3273011","0.0-4.0-8.190","true","191","2.949999999999999","","",""
"2340.9000000953674","4","confid","","","html-slider-response","1702","3275859","0.0-4.0-10.190-0.190","","","","Rate your confidence","1",""
"1252.8999999761581","e","choice","right","i","experimental","1709","3278926","0.0-4.0-8.191","false","192","2.8499999999999988","","",""
"2536.4000000953674","3","confid","","","html-slider-response","1711","3281970","0.0-4.0-10.191-0.191","","","","Rate your confidence","1",""
"852.0999999046326","i","choice","right","i","experimental","1718","3284667","0.0-4.0-8.192","true","193","2.949999999999999","","",""
"2672.7000000476837","3","confid","","","html-slider-response","1720","3287848","0.0-4.0-10.192-0.192","","","","Rate your confidence","1",""
"65.30000007152557","e","choice","left","e","experimental","1727","3289738","0.0-4.0-8.193","true","194","2.949999999999999","","",""
"3257.6999999284744","4","confid","","","html-slider-response","1729","3293511","0.0-4.0-10.193-0.193","","","","Rate your confidence","1","49121"
