"rt","response","task","target_side","correct_response","trial_type","trial_index","time_elapsed","internal_node_id","correct","trial_number","n_dots","stimulus","slider_start","participant"
"47015","e","choice","left","e","practice","10","118861","0.0-4.0-8.0","true","1","4.25","","",""
"1945","e","choice","right","i","practice","18","123114","0.0-4.0-8.1","false","2","4.25","","",""
"611","i","choice","left","e","practice","26","126028","0.0-4.0-8.2","false","3","4.65","","",""
"1128.000000000029","e","choice","right","i","practice","34","129462","0.0-4.0-8.3","false","4","5.050000000000001","","",""
"265","i","choice","right","i","practice","42","132035","0.0-4.0-8.4","true","5","5.450000000000001","","",""
"249","e","choice","left","e","practice","50","134590","0.0-4.0-8.5","true","6","5.450000000000001","","",""
"122","e","choice","left","e","practice","58","137016","0.0-4.0-8.6","true","7","5.250000000000001","","",""
"829","i","choice","right","i","practice","66","140145","0.0-4.0-8.7","true","8","5.250000000000001","","",""
"90.0000000000291","e","choice","left","e","practice","74","142534","0.0-4.0-8.8","true","9","5.050000000000001","","",""
"510","i","choice","right","i","practice","82","145346","0.0-4.0-8.9","true","10","5.050000000000001","","",""
"117","i","choice","right","i","practice","90","147767","0.0-4.0-8.10","true","11","4.8500000000000005","","",""
"476","e","choice","left","e","practice","98","150545","0.0-4.0-8.11","true","12","4.8500000000000005","","",""
"573","i","choice","left","e","practice","106","153424","0.0-4.0-8.12","false","13","4.750000000000001","","",""
"216","i","choice","right","i","practice","114","155936","0.0-4.0-8.13","true","14","4.8500000000000005","","",""
"43.000000000029104","i","choice","right","i","practice","122","158277","0.0-4.0-8.14","true","15","4.8500000000000005","","",""
"208.9999999999709","e","choice","left","e","practice","130","160787","0.0-4.0-8.15","true","16","4.750000000000001","","",""
"170.0000000000291","i","choice","right","i","practice","138","163259","0.0-4.0-8.16","true","17","4.750000000000001","","",""
"90.9999999999709","e","choice","left","e","practice","146","165655","0.0-4.0-8.17","true","18","4.650000000000001","","",""
"69.0000000000291","e","choice","left","e","practice","154","168027","0.0-4.0-8.18","true","19","4.650000000000001","","",""
"152","i","choice","right","i","practice","162","170482","0.0-4.0-8.19","true","20","4.550000000000002","","",""
"248","e","choice","left","e","practice","170","173029","0.0-4.0-8.20","true","21","4.550000000000002","","",""
"177","i","choice","right","i","practice","178","175506","0.0-4.0-8.21","true","22","4.450000000000002","","",""
"165","i","choice","right","i","practice","186","177970","0.0-4.0-8.22","true","23","4.450000000000002","","",""
"49.999999999970896","e","choice","left","e","practice","194","180327","0.0-4.0-8.23","true","24","4.350000000000002","","",""
"185.9999999999709","i","choice","right","i","practice","202","182814","0.0-4.0-8.24","true","25","4.350000000000002","","",""
"534","e","choice","left","e","practice","210","185649","0.0-4.0-8.25","true","26","4.250000000000003","","",""
"440","i","choice","left","e","experimental","221","212658","0.0-4.0-8.26","false","27","4.250000000000003","","",""
"5404","3","confid","","","html-slider-response","223","218569","0.0-4.0-10.26-0.26","","","","Rate your confidence","1",""
"192","i","choice","right","i","experimental","230","220549","0.0-4.0-8.27","true","28","4.350000000000002","","",""
"18356","6","confid","","","html-slider-response","232","239413","0.0-4.0-10.27-0.27","","","","Rate your confidence","1",""
"36","i","choice","right","i","experimental","239","241245","0.0-4.0-8.28","true","29","4.350000000000002","","",""
"9630","5","confid","","","html-slider-response","241","251382","0.0-4.0-10.28-0.28","","","","Rate your confidence","1",""
"978","e","choice","left","e","experimental","248","254159","0.0-4.0-8.29","true","30","4.250000000000003","","",""
"7379","3","confid","","","html-slider-response","250","262045","0.0-4.0-10.29-0.29","","","","Rate your confidence","1",""
"354","i","choice","left","e","experimental","257","264196","0.0-4.0-8.30","false","31","4.250000000000003","","",""
"2945","3","confid","","","html-slider-response","259","267647","0.0-4.0-10.30-0.30","","","","Rate your confidence","1",""
"173","i","choice","right","i","experimental","266","269618","0.0-4.0-8.31","true","32","4.350000000000002","","",""
"4831","5","confid","","","html-slider-response","268","274957","0.0-4.0-10.31-0.31","","","","Rate your confidence","1",""
"597","i","choice","right","i","experimental","275","277348","0.0-4.0-8.32","true","33","4.350000000000002","","",""
"3023","5","confid","","","html-slider-response","277","280879","0.0-4.0-10.32-0.32","","","","Rate your confidence","1",""
"251","e","choice","left","e","experimental","284","282925","0.0-4.0-8.33","true","34","4.250000000000003","","",""
"4157","2","confid","","","html-slider-response","286","287589","0.0-4.0-10.33-0.33","","","","Rate your confidence","1",""
"191.9999999999418","e","choice","left","e","experimental","293","289578","0.0-4.0-8.34","true","35","4.250000000000003","","",""
"4758","4","confid","","","html-slider-response","295","294844","0.0-4.0-10.34-0.34","","","","Rate your confidence","1",""
"813","i","choice","right","i","experimental","302","297455","0.0-4.0-8.35","true","36","4.150000000000003","","",""
"5479","6","confid","","","html-slider-response","304","303443","0.0-4.0-10.35-0.35","","","","Rate your confidence","1",""
"58","i","choice","right","i","experimental","311","305294","0.0-4.0-8.36","true","37","4.150000000000003","","",""
"2932","6","confid","","","html-slider-response","313","308732","0.0-4.0-10.36-0.36","","","","Rate your confidence","1",""
"310.9999999999418","e","choice","left","e","experimental","320","310839","0.0-4.0-8.37","true","38","4.050000000000003","","",""
"2017","5","confid","","","html-slider-response","322","313365","0.0-4.0-10.37-0.37","","","","Rate your confidence","1",""
"394","e","choice","left","e","experimental","329","315550","0.0-4.0-8.38","true","39","4.050000000000003","","",""
"4820","3","confid","","","html-slider-response","331","320878","0.0-4.0-10.38-0.38","","","","Rate your confidence","1",""
"1318","i","choice","right","i","experimental","338","323988","0.0-4.0-8.39","true","40","3.9500000000000033","","",""
"2380","6","confid","","","html-slider-response","340","326877","0.0-4.0-10.39-0.39","","","","Rate your confidence","1",""
"533.9999999999418","e","choice","left","e","experimental","347","329206","0.0-4.0-8.40","true","41","3.9500000000000033","","",""
"2598","5","confid","","","html-slider-response","349","332312","0.0-4.0-10.40-0.40","","","","Rate your confidence","1",""
"320","i","choice","right","i","experimental","356","334428","0.0-4.0-8.41","true","42","3.850000000000003","","",""
"3083","4","confid","","","html-slider-response","358","338023","0.0-4.0-10.41-0.41","","","","Rate your confidence","1",""
"123.99999999994179","e","choice","left","e","experimental","365","339945","0.0-4.0-8.42","true","43","3.850000000000003","","",""
"4585","5","confid","","","html-slider-response","367","345038","0.0-4.0-10.42-0.42","","","","Rate your confidence","1",""
"578.0000000000582","i","choice","right","i","experimental","374","347414","0.0-4.0-8.43","true","44","3.750000000000003","","",""
"4792.999999999942","4","confid","","","html-slider-response","376","352714","0.0-4.0-10.43-0.43","","","","Rate your confidence","1",""
"579","i","choice","right","i","experimental","383","355084","0.0-4.0-8.44","true","45","3.750000000000003","","",""
"2953","5","confid","","","html-slider-response","385","358545","0.0-4.0-10.44-0.44","","","","Rate your confidence","1",""
"416","e","choice","left","e","experimental","392","360755","0.0-4.0-8.45","true","46","3.650000000000003","","",""
"2833","2","confid","","","html-slider-response","394","364096","0.0-4.0-10.45-0.45","","","","Rate your confidence","1",""
"468","i","choice","right","i","experimental","401","366362","0.0-4.0-8.46","true","47","3.650000000000003","","",""
"5063.999999999942","4","confid","","","html-slider-response","403","371937","0.0-4.0-10.46-0.46","","","","Rate your confidence","1",""
"223.0000000000582","e","choice","left","e","experimental","410","373957","0.0-4.0-8.47","true","48","3.550000000000003","","",""
"5182","4","confid","","","html-slider-response","412","379647","0.0-4.0-10.47-0.47","","","","Rate your confidence","1",""
"530","i","choice","left","e","experimental","419","381975","0.0-4.0-8.48","false","49","3.550000000000003","","",""
"4238","1","confid","","","html-slider-response","421","386721","0.0-4.0-10.48-0.48","","","","Rate your confidence","1",""
"363","i","choice","right","i","experimental","428","388881","0.0-4.0-8.49","true","50","3.650000000000003","","",""
"2375","5","confid","","","html-slider-response","430","391762","0.0-4.0-10.49-0.49","","","","Rate your confidence","1",""
"1945","e","choice","left","e","experimental","437","395505","0.0-4.0-8.50","true","51","3.650000000000003","","",""
"3006","1","confid","","","html-slider-response","439","399017","0.0-4.0-10.50-0.50","","","","Rate your confidence","1",""
"388","i","choice","right","i","experimental","446","401203","0.0-4.0-8.51","true","52","3.550000000000003","","",""
"2040.9999999999418","5","confid","","","html-slider-response","448","403752","0.0-4.0-10.51-0.51","","","","Rate your confidence","1",""
"156","i","choice","right","i","experimental","455","405702","0.0-4.0-8.52","true","53","3.550000000000003","","",""
"2195","5","confid","","","html-slider-response","457","408405","0.0-4.0-10.52-0.52","","","","Rate your confidence","1",""
"395","i","choice","left","e","experimental","464","410599","0.0-4.0-8.53","false","54","3.450000000000003","","",""
"1803","5","confid","","","html-slider-response","466","412910","0.0-4.0-10.53-0.53","","","","Rate your confidence","1",""
"62.00000000005821","i","choice","right","i","experimental","473","414771","0.0-4.0-8.54","true","55","3.550000000000003","","",""
"4692","6","confid","","","html-slider-response","475","419970","0.0-4.0-10.54-0.54","","","","Rate your confidence","1",""
"596","i","choice","left","e","experimental","482","422362","0.0-4.0-8.55","false","56","3.550000000000003","","",""
"2328","3","confid","","","html-slider-response","484","425197","0.0-4.0-10.55-0.55","","","","Rate your confidence","1",""
"666","i","choice","right","i","experimental","491","427659","0.0-4.0-8.56","true","57","3.650000000000003","","",""
"1773","2","confid","","","html-slider-response","493","429940","0.0-4.0-10.56-0.56","","","","Rate your confidence","1",""
"125","e","choice","left","e","experimental","500","431864","0.0-4.0-8.57","true","58","3.650000000000003","","",""
"1844","4","confid","","","html-slider-response","502","434214","0.0-4.0-10.57-0.57","","","","Rate your confidence","1",""
"43","e","choice","left","e","experimental","509","436053","0.0-4.0-8.58","true","59","3.550000000000003","","",""
"3281","3","confid","","","html-slider-response","511","439844","0.0-4.0-10.58-0.58","","","","Rate your confidence","1",""
"117","i","choice","right","i","experimental","518","441760","0.0-4.0-8.59","true","60","3.550000000000003","","",""
"3960","5","confid","","","html-slider-response","520","446228","0.0-4.0-10.59-0.59","","","","Rate your confidence","1",""
"121.00000000005821","i","choice","right","i","experimental","527","448145","0.0-4.0-8.60","true","61","3.450000000000003","","",""
"4227","5","confid","","","html-slider-response","529","452882","0.0-4.0-10.60-0.60","","","","Rate your confidence","1",""
"254","e","choice","left","e","experimental","536","454929","0.0-4.0-8.61","true","62","3.450000000000003","","",""
"2213.999999999942","3","confid","","","html-slider-response","538","457651","0.0-4.0-10.61-0.61","","","","Rate your confidence","1",""
"223.99999999988358","i","choice","right","i","experimental","545","459667","0.0-4.0-8.62","true","63","3.3500000000000028","","",""
"2038","4","confid","","","html-slider-response","547","462220","0.0-4.0-10.62-0.62","","","","Rate your confidence","1",""
"731","i","choice","left","e","experimental","554","464745","0.0-4.0-8.63","false","64","3.3500000000000028","","",""
"2692","4","confid","","","html-slider-response","556","467945","0.0-4.0-10.63-0.63","","","","Rate your confidence","1",""
"511","i","choice","right","i","experimental","563","470250","0.0-4.0-8.64","true","65","3.450000000000003","","",""
"4325","5","confid","","","html-slider-response","565","475082","0.0-4.0-10.64-0.64","","","","Rate your confidence","1",""
"71","e","choice","left","e","experimental","572","476950","0.0-4.0-8.65","true","66","3.450000000000003","","",""
"2092.9999999998836","4","confid","","","html-slider-response","574","479554","0.0-4.0-10.65-0.65","","","","Rate your confidence","1",""
"505","e","choice","left","e","experimental","581","481853","0.0-4.0-8.66","true","67","3.3500000000000028","","",""
"1928","4","confid","","","html-slider-response","583","484290","0.0-4.0-10.66-0.66","","","","Rate your confidence","1",""
"1513","e","choice","right","i","experimental","590","487597","0.0-4.0-8.67","false","68","3.3500000000000028","","",""
"3023","1","confid","","","html-slider-response","592","491125","0.0-4.0-10.67-0.67","","","","Rate your confidence","1",""
"82","e","choice","left","e","experimental","600","564349","0.0-4.0-8.68","true","69","3.450000000000003","","",""
"3511","5","confid","","","html-slider-response","602","568368","0.0-4.0-10.68-0.68","","","","Rate your confidence","1",""
"375","i","choice","right","i","experimental","609","570542","0.0-4.0-8.69","true","70","3.450000000000003","","",""
"2425","4","confid","","","html-slider-response","611","573477","0.0-4.0-10.69-0.69","","","","Rate your confidence","1",""
"172","e","choice","left","e","experimental","618","575445","0.0-4.0-8.70","true","71","3.3500000000000028","","",""
"1814.9999999998836","5","confid","","","html-slider-response","620","577769","0.0-4.0-10.70-0.70","","","","Rate your confidence","1",""
"92","i","choice","right","i","experimental","627","579656","0.0-4.0-8.71","true","72","3.3500000000000028","","",""
"1833","5","confid","","","html-slider-response","629","581997","0.0-4.0-10.71-0.71","","","","Rate your confidence","1",""
"6","e","choice","left","e","experimental","636","583800","0.0-4.0-8.72","true","73","3.2500000000000027","","",""
"2583","4","confid","","","html-slider-response","638","586891","0.0-4.0-10.72-0.72","","","","Rate your confidence","1",""
"352.9999999998836","i","choice","right","i","experimental","645","589033","0.0-4.0-8.73","true","74","3.2500000000000027","","",""
"3519","2","confid","","","html-slider-response","647","593061","0.0-4.0-10.73-0.73","","","","Rate your confidence","1",""
"15","i","choice","right","i","experimental","654","594871","0.0-4.0-8.74","true","75","3.1500000000000026","","",""
"2996","5","confid","","","html-slider-response","656","598373","0.0-4.0-10.74-0.74","","","","Rate your confidence","1",""
"271","i","choice","left","e","experimental","663","600438","0.0-4.0-8.75","false","76","3.1500000000000026","","",""
"4422","3","confid","","","html-slider-response","665","605368","0.0-4.0-10.75-0.75","","","","Rate your confidence","1",""
"77","e","choice","left","e","experimental","672","607239","0.0-4.0-8.76","true","77","3.2500000000000027","","",""
"3379","3","confid","","","html-slider-response","674","611129","0.0-4.0-10.76-0.76","","","","Rate your confidence","1",""
"548","i","choice","right","i","experimental","681","613470","0.0-4.0-8.77","true","78","3.2500000000000027","","",""
"2059","2","confid","","","html-slider-response","683","616037","0.0-4.0-10.77-0.77","","","","Rate your confidence","1",""
"244","i","choice","left","e","experimental","690","618076","0.0-4.0-8.78","false","79","3.1500000000000026","","",""
"2088","2","confid","","","html-slider-response","692","620670","0.0-4.0-10.78-0.78","","","","Rate your confidence","1",""
"166.00000000011642","i","choice","right","i","experimental","699","622631","0.0-4.0-8.79","true","80","3.2500000000000027","","",""
"2446","2","confid","","","html-slider-response","701","625586","0.0-4.0-10.79-0.79","","","","Rate your confidence","1",""
"201","e","choice","left","e","experimental","708","627581","0.0-4.0-8.80","true","81","3.2500000000000027","","",""
"3719","2","confid","","","html-slider-response","710","631811","0.0-4.0-10.80-0.80","","","","Rate your confidence","1",""
"357","i","choice","right","i","experimental","717","633966","0.0-4.0-8.81","true","82","3.1500000000000026","","",""
"1714","4","confid","","","html-slider-response","719","636187","0.0-4.0-10.81-0.81","","","","Rate your confidence","1",""
"9","e","choice","left","e","experimental","726","637988","0.0-4.0-8.82","true","83","3.1500000000000026","","",""
"2376","4","confid","","","html-slider-response","728","640871","0.0-4.0-10.82-0.82","","","","Rate your confidence","1",""
"362.0000000001164","i","choice","right","i","experimental","735","643031","0.0-4.0-8.83","true","84","3.0500000000000025","","",""
"2712","5","confid","","","html-slider-response","737","646254","0.0-4.0-10.83-0.83","","","","Rate your confidence","1",""
"246","e","choice","left","e","experimental","744","648296","0.0-4.0-8.84","true","85","3.0500000000000025","","",""
"3830","1","confid","","","html-slider-response","746","652635","0.0-4.0-10.84-0.84","","","","Rate your confidence","1",""
"203.99999999988358","i","choice","right","i","experimental","753","654634","0.0-4.0-8.85","true","86","2.9500000000000024","","",""
"3123","4","confid","","","html-slider-response","755","658266","0.0-4.0-10.85-0.85","","","","Rate your confidence","1",""
"171.00000000011642","i","choice","right","i","experimental","762","660232","0.0-4.0-8.86","true","87","2.9500000000000024","","",""
"2437","4","confid","","","html-slider-response","764","663178","0.0-4.0-10.86-0.86","","","","Rate your confidence","1",""
"215","i","choice","left","e","experimental","771","665193","0.0-4.0-8.87","false","88","2.8500000000000023","","",""
"1754","4","confid","","","html-slider-response","773","667455","0.0-4.0-10.87-0.87","","","","Rate your confidence","1",""
"227","i","choice","left","e","experimental","780","669476","0.0-4.0-8.88","false","89","2.9500000000000024","","",""
"3530.9999999998836","3","confid","","","html-slider-response","782","673517","0.0-4.0-10.88-0.88","","","","Rate your confidence","1",""
"344","i","choice","right","i","experimental","789","675654","0.0-4.0-8.89","true","90","3.0500000000000025","","",""
"3529","3","confid","","","html-slider-response","791","679691","0.0-4.0-10.89-0.89","","","","Rate your confidence","1",""
"330","i","choice","right","i","experimental","798","681814","0.0-4.0-8.90","true","91","3.0500000000000025","","",""
"6519","3","confid","","","html-slider-response","800","688841","0.0-4.0-10.90-0.90","","","","Rate your confidence","1",""
"479.9999999998836","e","choice","left","e","experimental","807","691115","0.0-4.0-8.91","true","92","2.9500000000000024","","",""
"3367","2","confid","","","html-slider-response","809","694990","0.0-4.0-10.91-0.91","","","","Rate your confidence","1",""
"346","i","choice","left","e","experimental","816","697129","0.0-4.0-8.92","false","93","2.9500000000000024","","",""
"2417","2","confid","","","html-slider-response","818","700054","0.0-4.0-10.92-0.92","","","","Rate your confidence","1",""
"13","i","choice","right","i","experimental","825","701862","0.0-4.0-8.93","true","94","3.0500000000000025","","",""
"1845","3","confid","","","html-slider-response","827","704216","0.0-4.0-10.93-0.93","","","","Rate your confidence","1",""
"835","e","choice","left","e","experimental","834","706847","0.0-4.0-8.94","true","95","3.0500000000000025","","",""
"1579.9999999998836","4","confid","","","html-slider-response","836","708936","0.0-4.0-10.94-0.94","","","","Rate your confidence","1",""
"416","i","choice","right","i","experimental","843","711145","0.0-4.0-8.95","true","96","2.9500000000000024","","",""
"3452","5","confid","","","html-slider-response","845","715106","0.0-4.0-10.95-0.95","","","","Rate your confidence","1",""
"228","i","choice","right","i","experimental","852","717129","0.0-4.0-8.96","true","97","2.9500000000000024","","",""
"2741","2","confid","","","html-slider-response","854","720378","0.0-4.0-10.96-0.96","","","","Rate your confidence","1",""
"489","i","choice","left","e","experimental","861","722660","0.0-4.0-8.97","false","98","2.8500000000000023","","",""
"2981.0000000001164","2","confid","","","html-slider-response","863","726149","0.0-4.0-10.97-0.97","","","","Rate your confidence","1",""
"371","e","choice","right","i","experimental","870","728314","0.0-4.0-8.98","false","99","2.9500000000000024","","",""
"2179","2","confid","","","html-slider-response","872","731002","0.0-4.0-10.98-0.98","","","","Rate your confidence","1",""
"290","e","choice","left","e","experimental","879","733090","0.0-4.0-8.99","true","100","3.0500000000000025","","",""
"2132.0000000001164","2","confid","","","html-slider-response","881","735731","0.0-4.0-10.99-0.99","","","","Rate your confidence","1",""
"379","e","choice","left","e","experimental","888","737904","0.0-4.0-8.100","true","101","3.0500000000000025","","",""
"4193.000000000116","2","confid","","","html-slider-response","890","742606","0.0-4.0-10.100-0.100","","","","Rate your confidence","1",""
"151.00000000011642","i","choice","right","i","experimental","897","744552","0.0-4.0-8.101","true","102","2.9500000000000024","","",""
"2159.9999999998836","5","confid","","","html-slider-response","899","747222","0.0-4.0-10.101-0.101","","","","Rate your confidence","1",""
"147","i","choice","right","i","experimental","906","749165","0.0-4.0-8.102","true","103","2.9500000000000024","","",""
"2971","5","confid","","","html-slider-response","908","752647","0.0-4.0-10.102-0.102","","","","Rate your confidence","1",""
"236","i","choice","left","e","experimental","915","754688","0.0-4.0-8.103","false","104","2.8500000000000023","","",""
"2829","3","confid","","","html-slider-response","917","758026","0.0-4.0-10.103-0.103","","","","Rate your confidence","1",""
"164","i","choice","right","i","experimental","924","759982","0.0-4.0-8.104","true","105","2.9500000000000024","","",""
"1561","5","confid","","","html-slider-response","926","762050","0.0-4.0-10.104-0.104","","","","Rate your confidence","1",""
"146","i","choice","left","e","experimental","933","763994","0.0-4.0-8.105","false","106","2.9500000000000024","","",""
"2607","3","confid","","","html-slider-response","935","767113","0.0-4.0-10.105-0.105","","","","Rate your confidence","1",""
"118","i","choice","left","e","experimental","942","769027","0.0-4.0-8.106","false","107","3.0500000000000025","","",""
"4548","2","confid","","","html-slider-response","944","774083","0.0-4.0-10.106-0.106","","","","Rate your confidence","1",""
"172","i","choice","right","i","experimental","951","776051","0.0-4.0-8.107","true","108","3.1500000000000026","","",""
"1800","5","confid","","","html-slider-response","953","778358","0.0-4.0-10.107-0.107","","","","Rate your confidence","1",""
"49","i","choice","right","i","experimental","960","780204","0.0-4.0-8.108","true","109","3.1500000000000026","","",""
"2049","5","confid","","","html-slider-response","962","782764","0.0-4.0-10.108-0.108","","","","Rate your confidence","1",""
"279","i","choice","left","e","experimental","969","784836","0.0-4.0-8.109","false","110","3.0500000000000025","","",""
"2593","5","confid","","","html-slider-response","971","787938","0.0-4.0-10.109-0.109","","","","Rate your confidence","1",""
"59.000000000116415","i","choice","left","e","experimental","979","871483","0.0-4.0-8.110","false","111","3.1500000000000026","","",""
"2458","4","confid","","","html-slider-response","981","874452","0.0-4.0-10.110-0.110","","","","Rate your confidence","1",""
"28.000000000116415","i","choice","right","i","experimental","988","876277","0.0-4.0-8.111","true","112","3.2500000000000027","","",""
"1755","3","confid","","","html-slider-response","990","878543","0.0-4.0-10.111-0.111","","","","Rate your confidence","1",""
"57","i","choice","left","e","experimental","997","880395","0.0-4.0-8.112","false","113","3.2500000000000027","","",""
"3480.0000000001164","1","confid","","","html-slider-response","999","884383","0.0-4.0-10.112-0.112","","","","Rate your confidence","1",""
"738","i","choice","right","i","experimental","1006","886918","0.0-4.0-8.113","true","114","3.3500000000000028","","",""
"2021.9999999998836","2","confid","","","html-slider-response","1008","889447","0.0-4.0-10.113-0.113","","","","Rate your confidence","1",""
"6.000000000116415","i","choice","right","i","experimental","1015","891247","0.0-4.0-8.114","true","115","3.3500000000000028","","",""
"2047","3","confid","","","html-slider-response","1017","893802","0.0-4.0-10.114-0.114","","","","Rate your confidence","1",""
"894","e","choice","left","e","experimental","1024","896491","0.0-4.0-8.115","true","116","3.2500000000000027","","",""
"1900.9999999998836","1","confid","","","html-slider-response","1026","898898","0.0-4.0-10.115-0.115","","","","Rate your confidence","1",""
"220","i","choice","left","e","experimental","1033","900913","0.0-4.0-8.116","false","117","3.2500000000000027","","",""
"1850","3","confid","","","html-slider-response","1035","903272","0.0-4.0-10.116-0.116","","","","Rate your confidence","1",""
"308.0000000001164","i","choice","right","i","experimental","1042","905372","0.0-4.0-8.117","true","118","3.3500000000000028","","",""
"4220","2","confid","","","html-slider-response","1044","910104","0.0-4.0-10.117-0.117","","","","Rate your confidence","1",""
"338","i","choice","left","e","experimental","1051","912235","0.0-4.0-8.118","false","119","3.3500000000000028","","",""
"2045","3","confid","","","html-slider-response","1053","914788","0.0-4.0-10.118-0.118","","","","Rate your confidence","1",""
"148","i","choice","right","i","experimental","1060","916731","0.0-4.0-8.119","true","120","3.450000000000003","","",""
"3443.0000000001164","5","confid","","","html-slider-response","1062","920679","0.0-4.0-10.119-0.119","","","","Rate your confidence","1",""
"166","i","choice","right","i","experimental","1069","922642","0.0-4.0-8.120","true","121","3.450000000000003","","",""
"2381.9999999998836","6","confid","","","html-slider-response","1071","925533","0.0-4.0-10.120-0.120","","","","Rate your confidence","1",""
"96","i","choice","left","e","experimental","1078","927424","0.0-4.0-8.121","false","122","3.3500000000000028","","",""
"1751","3","confid","","","html-slider-response","1080","929684","0.0-4.0-10.121-0.121","","","","Rate your confidence","1",""
"378","i","choice","left","e","experimental","1087","931865","0.0-4.0-8.122","false","123","3.450000000000003","","",""
"3137","2","confid","","","html-slider-response","1089","935510","0.0-4.0-10.122-0.122","","","","Rate your confidence","1",""
"845.0000000001164","i","choice","right","i","experimental","1096","938150","0.0-4.0-8.123","true","124","3.550000000000003","","",""
"2727","3","confid","","","html-slider-response","1098","941386","0.0-4.0-10.123-0.123","","","","Rate your confidence","1",""
"524","e","choice","left","e","experimental","1105","943705","0.0-4.0-8.124","true","125","3.550000000000003","","",""
"2203","1","confid","","","html-slider-response","1107","946418","0.0-4.0-10.124-0.124","","","","Rate your confidence","1",""
"155","i","choice","right","i","experimental","1114","948365","0.0-4.0-8.125","true","126","3.450000000000003","","",""
"3348.0000000001164","3","confid","","","html-slider-response","1116","952222","0.0-4.0-10.125-0.125","","","","Rate your confidence","1",""
"243","i","choice","right","i","experimental","1123","954258","0.0-4.0-8.126","true","127","3.450000000000003","","",""
"2416","4","confid","","","html-slider-response","1125","957186","0.0-4.0-10.126-0.126","","","","Rate your confidence","1",""
"237","i","choice","left","e","experimental","1132","959221","0.0-4.0-8.127","false","128","3.3500000000000028","","",""
"2674","5","confid","","","html-slider-response","1134","962403","0.0-4.0-10.127-0.127","","","","Rate your confidence","1",""
"552.0000000002328","i","choice","left","e","experimental","1141","964751","0.0-4.0-8.128","false","129","3.450000000000003","","",""
"2258","3","confid","","","html-slider-response","1143","967518","0.0-4.0-10.128-0.128","","","","Rate your confidence","1",""
"144","i","choice","right","i","experimental","1150","969453","0.0-4.0-8.129","true","130","3.550000000000003","","",""
"1998","3","confid","","","html-slider-response","1152","971960","0.0-4.0-10.129-0.129","","","","Rate your confidence","1",""
"134","i","choice","right","i","experimental","1159","973888","0.0-4.0-8.130","true","131","3.550000000000003","","",""
"1770","3","confid","","","html-slider-response","1161","976167","0.0-4.0-10.130-0.130","","","","Rate your confidence","1",""
"421","e","choice","left","e","experimental","1168","978383","0.0-4.0-8.131","true","132","3.450000000000003","","",""
"1904","4","confid","","","html-slider-response","1170","980796","0.0-4.0-10.131-0.131","","","","Rate your confidence","1",""
"239.00000000011642","i","choice","right","i","experimental","1177","982831","0.0-4.0-8.132","true","133","3.450000000000003","","",""
"1617.9999999998836","5","confid","","","html-slider-response","1179","984958","0.0-4.0-10.132-0.132","","","","Rate your confidence","1",""
"295.0000000001164","e","choice","left","e","experimental","1186","987049","0.0-4.0-8.133","true","134","3.3500000000000028","","",""
"2368.9999999998836","4","confid","","","html-slider-response","1188","989927","0.0-4.0-10.133-0.133","","","","Rate your confidence","1",""
"379.00000000023283","e","choice","left","e","experimental","1195","992104","0.0-4.0-8.134","true","135","3.3500000000000028","","",""
"1953","5","confid","","","html-slider-response","1197","994564","0.0-4.0-10.134-0.134","","","","Rate your confidence","1",""
"524.9999999997672","i","choice","right","i","experimental","1204","996889","0.0-4.0-8.135","true","136","3.2500000000000027","","",""
"1550","4","confid","","","html-slider-response","1206","998946","0.0-4.0-10.135-0.135","","","","Rate your confidence","1",""
"325","i","choice","right","i","experimental","1213","1001069","0.0-4.0-8.136","true","137","3.2500000000000027","","",""
"3029","5","confid","","","html-slider-response","1215","1004608","0.0-4.0-10.136-0.136","","","","Rate your confidence","1",""
"1","e","choice","left","e","experimental","1222","1006409","0.0-4.0-8.137","true","138","3.1500000000000026","","",""
"2819","2","confid","","","html-slider-response","1224","1009736","0.0-4.0-10.137-0.137","","","","Rate your confidence","1",""
"247","e","choice","left","e","experimental","1231","1011782","0.0-4.0-8.138","true","139","3.1500000000000026","","",""
"1797","5","confid","","","html-slider-response","1233","1014087","0.0-4.0-10.138-0.138","","","","Rate your confidence","1",""
"183","i","choice","right","i","experimental","1240","1016069","0.0-4.0-8.139","true","140","3.0500000000000025","","",""
"2788","5","confid","","","html-slider-response","1242","1019365","0.0-4.0-10.139-0.139","","","","Rate your confidence","1",""
"81","i","choice","right","i","experimental","1249","1021247","0.0-4.0-8.140","true","141","3.0500000000000025","","",""
"1864","5","confid","","","html-slider-response","1251","1023622","0.0-4.0-10.140-0.140","","","","Rate your confidence","1",""
"0","i","choice","left","e","experimental","1258","1025416","0.0-4.0-8.141","false","142","2.9500000000000024","","",""
"3319","5","confid","","","html-slider-response","1260","1029244","0.0-4.0-10.141-0.141","","","","Rate your confidence","1",""
"172","i","choice","right","i","experimental","1267","1031210","0.0-4.0-8.142","true","143","3.0500000000000025","","",""
"2462","5","confid","","","html-slider-response","1269","1034183","0.0-4.0-10.142-0.142","","","","Rate your confidence","1",""
"420","i","choice","left","e","experimental","1276","1036399","0.0-4.0-8.143","false","144","3.0500000000000025","","",""
"2617","1","confid","","","html-slider-response","1278","1039525","0.0-4.0-10.143-0.143","","","","Rate your confidence","1",""
"217","e","choice","right","i","experimental","1285","1041539","0.0-4.0-8.144","false","145","3.1500000000000026","","",""
"2774","2","confid","","","html-slider-response","1287","1044822","0.0-4.0-10.144-0.144","","","","Rate your confidence","1",""
"165.00000000023283","i","choice","left","e","experimental","1294","1046786","0.0-4.0-8.145","false","146","3.2500000000000027","","",""
"2256","2","confid","","","html-slider-response","1296","1049551","0.0-4.0-10.145-0.145","","","","Rate your confidence","1",""
"336","e","choice","left","e","experimental","1303","1051685","0.0-4.0-8.146","true","147","3.3500000000000028","","",""
"2461","4","confid","","","html-slider-response","1305","1054658","0.0-4.0-10.146-0.146","","","","Rate your confidence","1",""
"230","i","choice","right","i","experimental","1312","1056712","0.0-4.0-8.147","true","148","3.3500000000000028","","",""
"2739","6","confid","","","html-slider-response","1314","1059956","0.0-4.0-10.147-0.147","","","","Rate your confidence","1",""
"152","i","choice","right","i","experimental","1321","1061904","0.0-4.0-8.148","true","149","3.2500000000000027","","",""
"2042.0000000002328","5","confid","","","html-slider-response","1323","1064458","0.0-4.0-10.148-0.148","","","","Rate your confidence","1",""
"628","e","choice","left","e","experimental","1330","1066882","0.0-4.0-8.149","true","150","3.2500000000000027","","",""
"4007","2","confid","","","html-slider-response","1332","1071399","0.0-4.0-10.149-0.149","","","","Rate your confidence","1",""
"600","i","choice","right","i","experimental","1339","1073798","0.0-4.0-8.150","true","151","3.1500000000000026","","",""
"2278","5","confid","","","html-slider-response","1341","1076585","0.0-4.0-10.150-0.150","","","","Rate your confidence","1",""
"115.99999999976717","i","choice","left","e","experimental","1348","1078497","0.0-4.0-8.151","false","152","3.1500000000000026","","",""
"3419","1","confid","","","html-slider-response","1350","1082427","0.0-4.0-10.151-0.151","","","","Rate your confidence","1",""
"621.9999999997672","e","choice","right","i","experimental","1358","1153108","0.0-4.0-8.152","false","153","3.2500000000000027","","",""
"2291","3","confid","","","html-slider-response","1360","1155907","0.0-4.0-10.152-0.152","","","","Rate your confidence","1",""
"878","e","choice","left","e","experimental","1367","1158582","0.0-4.0-8.153","true","154","3.3500000000000028","","",""
"1857.0000000002328","4","confid","","","html-slider-response","1369","1160947","0.0-4.0-10.153-0.153","","","","Rate your confidence","1",""
"413","e","choice","right","i","experimental","1376","1163157","0.0-4.0-8.154","false","155","3.3500000000000028","","",""
"2427","4","confid","","","html-slider-response","1378","1166095","0.0-4.0-10.154-0.154","","","","Rate your confidence","1",""
"225","e","choice","left","e","experimental","1385","1168119","0.0-4.0-8.155","true","156","3.450000000000003","","",""
"2749","3","confid","","","html-slider-response","1387","1171380","0.0-4.0-10.155-0.155","","","","Rate your confidence","1",""
"172","i","choice","right","i","experimental","1394","1173351","0.0-4.0-8.156","true","157","3.450000000000003","","",""
"2487","4","confid","","","html-slider-response","1396","1176347","0.0-4.0-10.156-0.156","","","","Rate your confidence","1",""
"318.99999999976717","e","choice","left","e","experimental","1403","1178459","0.0-4.0-8.157","true","158","3.3500000000000028","","",""
"2022.9999999997672","5","confid","","","html-slider-response","1405","1180989","0.0-4.0-10.157-0.157","","","","Rate your confidence","1",""
"167","e","choice","left","e","experimental","1412","1182953","0.0-4.0-8.158","true","159","3.3500000000000028","","",""
"1882","6","confid","","","html-slider-response","1414","1185343","0.0-4.0-10.158-0.158","","","","Rate your confidence","1",""
"86","i","choice","right","i","experimental","1421","1187227","0.0-4.0-8.159","true","160","3.2500000000000027","","",""
"1865","5","confid","","","html-slider-response","1423","1189601","0.0-4.0-10.159-0.159","","","","Rate your confidence","1",""
"91.99999999976717","e","choice","right","i","experimental","1430","1191490","0.0-4.0-8.160","false","161","3.2500000000000027","","",""
"2444","1","confid","","","html-slider-response","1432","1194442","0.0-4.0-10.160-0.160","","","","Rate your confidence","1",""
"199","e","choice","left","e","experimental","1439","1196440","0.0-4.0-8.161","true","162","3.3500000000000028","","",""
"1513.9999999997672","5","confid","","","html-slider-response","1441","1198461","0.0-4.0-10.161-0.161","","","","Rate your confidence","1",""
"477","i","choice","left","e","experimental","1448","1200737","0.0-4.0-8.162","false","163","3.3500000000000028","","",""
"2378","5","confid","","","html-slider-response","1450","1203623","0.0-4.0-10.162-0.162","","","","Rate your confidence","1",""
"97","i","choice","right","i","experimental","1457","1205516","0.0-4.0-8.163","true","164","3.450000000000003","","",""
"3244","4","confid","","","html-slider-response","1459","1209268","0.0-4.0-10.163-0.163","","","","Rate your confidence","1",""
"176","e","choice","left","e","experimental","1466","1211242","0.0-4.0-8.164","true","165","3.450000000000003","","",""
"1955","5","confid","","","html-slider-response","1468","1213704","0.0-4.0-10.164-0.164","","","","Rate your confidence","1",""
"37","i","choice","right","i","experimental","1475","1215539","0.0-4.0-8.165","true","166","3.3500000000000028","","",""
"3185","5","confid","","","html-slider-response","1477","1219233","0.0-4.0-10.165-0.165","","","","Rate your confidence","1",""
"151","i","choice","right","i","experimental","1484","1221181","0.0-4.0-8.166","true","167","3.3500000000000028","","",""
"2193","5","confid","","","html-slider-response","1486","1223882","0.0-4.0-10.166-0.166","","","","Rate your confidence","1",""
"100","e","choice","left","e","experimental","1493","1225779","0.0-4.0-8.167","true","168","3.2500000000000027","","",""
"2417","4","confid","","","html-slider-response","1495","1228703","0.0-4.0-10.167-0.167","","","","Rate your confidence","1",""
"92","i","choice","left","e","experimental","1502","1230592","0.0-4.0-8.168","false","169","3.2500000000000027","","",""
"1994.9999999997672","4","confid","","","html-slider-response","1504","1233094","0.0-4.0-10.168-0.168","","","","Rate your confidence","1",""
"210","i","choice","right","i","experimental","1511","1235103","0.0-4.0-8.169","true","170","3.3500000000000028","","",""
"2651","4","confid","","","html-slider-response","1513","1238266","0.0-4.0-10.169-0.169","","","","Rate your confidence","1",""
"105.99999999976717","i","choice","right","i","experimental","1520","1240168","0.0-4.0-8.170","true","171","3.3500000000000028","","",""
"1953","5","confid","","","html-slider-response","1522","1242631","0.0-4.0-10.170-0.170","","","","Rate your confidence","1",""
"185","e","choice","left","e","experimental","1529","1244611","0.0-4.0-8.171","true","172","3.2500000000000027","","",""
"2211","5","confid","","","html-slider-response","1531","1247329","0.0-4.0-10.171-0.171","","","","Rate your confidence","1",""
"555","e","choice","left","e","experimental","1538","1249681","0.0-4.0-8.172","true","173","3.2500000000000027","","",""
"1833.0000000002328","3","confid","","","html-slider-response","1540","1252023","0.0-4.0-10.172-0.172","","","","Rate your confidence","1",""
"532","e","choice","right","i","experimental","1547","1254354","0.0-4.0-8.173","false","174","3.1500000000000026","","",""
"2291","1","confid","","","html-slider-response","1549","1257151","0.0-4.0-10.173-0.173","","","","Rate your confidence","1",""
"450.00000000023283","e","choice","left","e","experimental","1556","1259397","0.0-4.0-8.174","true","175","3.2500000000000027","","",""
"2251","4","confid","","","html-slider-response","1558","1262154","0.0-4.0-10.174-0.174","","","","Rate your confidence","1",""
"149","i","choice","right","i","experimental","1565","1264102","0.0-4.0-8.175","true","176","3.2500000000000027","","",""
"1640.0000000002328","5","confid","","","html-slider-response","1567","1266253","0.0-4.0-10.175-0.175","","","","Rate your confidence","1",""
"0","e","choice","left","e","experimental","1574","1268058","0.0-4.0-8.176","true","177","3.1500000000000026","","",""
"2002.0000000002328","5","confid","","","html-slider-response","1576","1270570","0.0-4.0-10.176-0.176","","","","Rate your confidence","1",""
"233","e","choice","right","i","experimental","1583","1272601","0.0-4.0-8.177","false","178","3.1500000000000026","","",""
"2410.999999999767","2","confid","","","html-slider-response","1585","1275519","0.0-4.0-10.177-0.177","","","","Rate your confidence","1",""
"722.9999999997672","e","choice","right","i","experimental","1592","1278034","0.0-4.0-8.178","false","179","3.2500000000000027","","",""
"2733","2","confid","","","html-slider-response","1594","1281276","0.0-4.0-10.178-0.178","","","","Rate your confidence","1",""
"459","e","choice","left","e","experimental","1601","1283533","0.0-4.0-8.179","true","180","3.3500000000000028","","",""
"2060","2","confid","","","html-slider-response","1603","1286102","0.0-4.0-10.179-0.179","","","","Rate your confidence","1",""
"264","i","choice","right","i","experimental","1610","1288164","0.0-4.0-8.180","true","181","3.3500000000000028","","",""
"1999","2","confid","","","html-slider-response","1612","1290672","0.0-4.0-10.180-0.180","","","","Rate your confidence","1",""
"494","e","choice","left","e","experimental","1619","1292960","0.0-4.0-8.181","true","182","3.2500000000000027","","",""
"1702","5","confid","","","html-slider-response","1621","1295170","0.0-4.0-10.181-0.181","","","","Rate your confidence","1",""
"310","e","choice","left","e","experimental","1628","1297278","0.0-4.0-8.182","true","183","3.2500000000000027","","",""
"2126","5","confid","","","html-slider-response","1630","1299914","0.0-4.0-10.182-0.182","","","","Rate your confidence","1",""
"109","i","choice","right","i","experimental","1637","1301821","0.0-4.0-8.183","true","184","3.1500000000000026","","",""
"6359.999999999767","5","confid","","","html-slider-response","1639","1308689","0.0-4.0-10.183-0.183","","","","Rate your confidence","1",""
"175.99999999976717","i","choice","right","i","experimental","1646","1310659","0.0-4.0-8.184","true","185","3.1500000000000026","","",""
"1742","3","confid","","","html-slider-response","1648","1312909","0.0-4.0-10.184-0.184","","","","Rate your confidence","1",""
"603.9999999997672","e","choice","left","e","experimental","1655","1315308","0.0-4.0-8.185","true","186","3.0500000000000025","","",""
"2011","5","confid","","","html-slider-response","1657","1317829","0.0-4.0-10.185-0.185","","","","Rate your confidence","1",""
"328","i","choice","left","e","experimental","1664","1319951","0.0-4.0-8.186","false","187","3.0500000000000025","","",""
"3810","5","confid","","","html-slider-response","1666","1324270","0.0-4.0-10.186-0.186","","","","Rate your confidence","1",""
"55","i","choice","right","i","experimental","1673","1326116","0.0-4.0-8.187","true","188","3.1500000000000026","","",""
"1791","6","confid","","","html-slider-response","1675","1328419","0.0-4.0-10.187-0.187","","","","Rate your confidence","1",""
"28.99999999976717","i","choice","right","i","experimental","1682","1330243","0.0-4.0-8.188","true","189","3.1500000000000026","","",""
"2550","5","confid","","","html-slider-response","1684","1333304","0.0-4.0-10.188-0.188","","","","Rate your confidence","1",""
"264","i","choice","left","e","experimental","1691","1335376","0.0-4.0-8.189","false","190","3.0500000000000025","","",""
"2174","1","confid","","","html-slider-response","1693","1338059","0.0-4.0-10.189-0.189","","","","Rate your confidence","1",""
"243","i","choice","right","i","experimental","1700","1340097","0.0-4.0-8.190","true","191","3.1500000000000026","","",""
"5345","2","confid","","","html-slider-response","1702","1345952","0.0-4.0-10.190-0.190","","","","Rate your confidence","1",""
"244","i","choice","left","e","experimental","1709","1347995","0.0-4.0-8.191","false","192","3.1500000000000026","","",""
"2353","2","confid","","","html-slider-response","1711","1350860","0.0-4.0-10.191-0.191","","","","Rate your confidence","1",""
"344.00000000023283","i","choice","left","e","experimental","1718","1353002","0.0-4.0-8.192","false","193","3.2500000000000027","","",""
"2031","2","confid","","","html-slider-response","1720","1355544","0.0-4.0-10.192-0.192","","","","Rate your confidence","1",""
"85","i","choice","right","i","experimental","1727","1357426","0.0-4.0-8.193","true","194","3.3500000000000028","","",""
"2593","5","confid","","","html-slider-response","1729","1360526","0.0-4.0-10.193-0.193","","","","Rate your confidence","1","81961"
