"rt","response","task","target_side","correct_response","trial_type","trial_index","time_elapsed","internal_node_id","correct","trial_number","n_dots","stimulus","slider_start","participant"
"318.90000009536743","i","choice","right","i","practice","10","56168","0.0-4.0-8.0","true","1","4.25","","",""
"266.60000002384186","e","choice","left","e","practice","18","58737","0.0-4.0-8.1","true","2","4.25","","",""
"161.5","i","choice","right","i","practice","26","61201","0.0-4.0-8.2","true","3","3.85","","",""
"259.7999999523163","e","choice","left","e","practice","34","63742","0.0-4.0-8.3","true","4","3.85","","",""
"272.8000000715256","e","choice","left","e","practice","42","66305","0.0-4.0-8.4","true","5","3.45","","",""
"118.60000002384186","i","choice","right","i","practice","50","68726","0.0-4.0-8.5","true","6","3.45","","",""
"326.39999997615814","e","choice","right","i","practice","58","71355","0.0-4.0-8.6","false","7","3.25","","",""
"292.09999990463257","e","choice","left","e","practice","66","73939","0.0-4.0-8.7","true","8","3.45","","",""
"339.10000002384186","i","choice","right","i","practice","74","76562","0.0-4.0-8.8","true","9","3.45","","",""
"250.89999997615814","e","choice","left","e","practice","82","79115","0.0-4.0-8.9","true","10","3.25","","",""
"631","i","choice","right","i","practice","90","82046","0.0-4.0-8.10","true","11","3.25","","",""
"316.8000000715256","e","choice","left","e","practice","98","84668","0.0-4.0-8.11","true","12","3.15","","",""
"348.8000000715256","e","choice","left","e","practice","106","87309","0.0-4.0-8.12","true","13","3.15","","",""
"331.09999990463257","i","choice","right","i","practice","114","89936","0.0-4.0-8.13","true","14","3.05","","",""
"608.6999999284744","e","choice","left","e","practice","122","92831","0.0-4.0-8.14","true","15","3.05","","",""
"355.5","i","choice","right","i","practice","130","95491","0.0-4.0-8.15","true","16","2.9499999999999997","","",""
"317.5","e","choice","right","i","practice","138","98098","0.0-4.0-8.16","false","17","2.9499999999999997","","",""
"220.29999995231628","e","choice","left","e","practice","146","100614","0.0-4.0-8.17","true","18","3.05","","",""
"225","e","choice","left","e","practice","154","103121","0.0-4.0-8.18","true","19","3.05","","",""
"479.5","e","choice","right","i","practice","162","105900","0.0-4.0-8.19","false","20","2.9499999999999997","","",""
"99","i","choice","right","i","practice","170","108285","0.0-4.0-8.20","true","21","3.05","","",""
"503.7000000476837","e","choice","left","e","practice","178","111075","0.0-4.0-8.21","true","22","3.05","","",""
"70","i","choice","right","i","practice","186","113451","0.0-4.0-8.22","true","23","2.9499999999999997","","",""
"347.89999997615814","e","choice","left","e","practice","194","116102","0.0-4.0-8.23","true","24","2.9499999999999997","","",""
"415","i","choice","right","i","practice","202","118804","0.0-4.0-8.24","true","25","2.8499999999999996","","",""
"331.7000000476837","e","choice","left","e","practice","210","121420","0.0-4.0-8.25","true","26","2.8499999999999996","","",""
"163.20000004768372","i","choice","right","i","experimental","221","244945","0.0-4.0-8.26","true","27","2.7499999999999996","","",""
"4621.700000047684","4","confid","","","html-slider-response","223","250072","0.0-4.0-10.26-0.26","","","","Rate your confidence","1",""
"893.7999999523163","e","choice","left","e","experimental","230","252770","0.0-4.0-8.27","true","28","2.7499999999999996","","",""
"6183.399999976158","1","confid","","","html-slider-response","232","259458","0.0-4.0-10.27-0.27","","","","Rate your confidence","1",""
"836.5","e","choice","left","e","experimental","239","262097","0.0-4.0-8.28","true","29","2.6499999999999995","","",""
"5061.700000047684","2","confid","","","html-slider-response","241","267665","0.0-4.0-10.28-0.28","","","","Rate your confidence","1",""
"1004.6000000238419","i","choice","right","i","experimental","248","270456","0.0-4.0-8.29","true","30","2.6499999999999995","","",""
"2683","1","confid","","","html-slider-response","250","273643","0.0-4.0-10.29-0.29","","","","Rate your confidence","1",""
"648","e","choice","left","e","experimental","257","276077","0.0-4.0-8.30","true","31","2.5499999999999994","","",""
"2465.899999976158","2","confid","","","html-slider-response","259","279047","0.0-4.0-10.30-0.30","","","","Rate your confidence","1",""
"737.5","i","choice","right","i","experimental","266","281575","0.0-4.0-8.31","true","32","2.5499999999999994","","",""
"5069.700000047684","2","confid","","","html-slider-response","268","287149","0.0-4.0-10.31-0.31","","","","Rate your confidence","1",""
"2770.600000023842","e","choice","left","e","experimental","275","291705","0.0-4.0-8.32","true","33","2.4499999999999993","","",""
"2045.3000000715256","1","confid","","","html-slider-response","277","294253","0.0-4.0-10.32-0.32","","","","Rate your confidence","1",""
"2984.399999976158","e","choice","right","i","experimental","284","299038","0.0-4.0-8.33","false","34","2.4499999999999993","","",""
"7042.5","1","confid","","","html-slider-response","286","306587","0.0-4.0-10.33-0.33","","","","Rate your confidence","1",""
"1202.2000000476837","i","choice","left","e","experimental","293","309576","0.0-4.0-8.34","false","35","2.5499999999999994","","",""
"2653.399999976158","2","confid","","","html-slider-response","295","312733","0.0-4.0-10.34-0.34","","","","Rate your confidence","1",""
"1228.8999999761581","e","choice","right","i","experimental","302","315747","0.0-4.0-8.35","false","36","2.6499999999999995","","",""
"2036","2","confid","","","html-slider-response","304","318287","0.0-4.0-10.35-0.35","","","","Rate your confidence","1",""
"1459.5","i","choice","right","i","experimental","311","321529","0.0-4.0-8.36","true","37","2.7499999999999996","","",""
"1709.8000000715256","2","confid","","","html-slider-response","313","323742","0.0-4.0-10.36-0.36","","","","Rate your confidence","1",""
"461.10000002384186","e","choice","left","e","experimental","320","326010","0.0-4.0-8.37","true","38","2.7499999999999996","","",""
"1562.2999999523163","3","confid","","","html-slider-response","322","328079","0.0-4.0-10.37-0.37","","","","Rate your confidence","1",""
"287.89999997615814","e","choice","right","i","experimental","329","330165","0.0-4.0-8.38","false","39","2.6499999999999995","","",""
"2499","2","confid","","","html-slider-response","331","333168","0.0-4.0-10.38-0.38","","","","Rate your confidence","1",""
"607.7999999523163","e","choice","left","e","experimental","338","335574","0.0-4.0-8.39","true","40","2.7499999999999996","","",""
"2064.600000023842","4","confid","","","html-slider-response","340","338142","0.0-4.0-10.39-0.39","","","","Rate your confidence","1",""
"2026.3000000715256","i","choice","right","i","experimental","347","341952","0.0-4.0-8.40","true","41","2.7499999999999996","","",""
"1890.3999999761581","1","confid","","","html-slider-response","349","344346","0.0-4.0-10.40-0.40","","","","Rate your confidence","1",""
"728.7000000476837","e","choice","left","e","experimental","356","346864","0.0-4.0-8.41","true","42","2.6499999999999995","","",""
"2940.2999999523163","1","confid","","","html-slider-response","358","350309","0.0-4.0-10.41-0.41","","","","Rate your confidence","1",""
"1359","e","choice","right","i","experimental","365","353466","0.0-4.0-8.42","false","43","2.6499999999999995","","",""
"1837.0999999046326","2","confid","","","html-slider-response","367","355807","0.0-4.0-10.42-0.42","","","","Rate your confidence","1",""
"471.89999997615814","e","choice","left","e","experimental","374","358060","0.0-4.0-8.43","true","44","2.7499999999999996","","",""
"1982.7000000476837","2","confid","","","html-slider-response","376","360548","0.0-4.0-10.43-0.43","","","","Rate your confidence","1",""
"711.2999999523163","i","choice","left","e","experimental","383","363043","0.0-4.0-8.44","false","45","2.7499999999999996","","",""
"1428.7000000476837","3","confid","","","html-slider-response","385","364975","0.0-4.0-10.44-0.44","","","","Rate your confidence","1",""
"875.2000000476837","i","choice","right","i","experimental","392","367649","0.0-4.0-8.45","true","46","2.8499999999999996","","",""
"2464.100000023842","3","confid","","","html-slider-response","394","370619","0.0-4.0-10.45-0.45","","","","Rate your confidence","1",""
"450.40000009536743","e","choice","left","e","experimental","401","372851","0.0-4.0-8.46","true","47","2.8499999999999996","","",""
"2173.6999999284744","3","confid","","","html-slider-response","403","375544","0.0-4.0-10.46-0.46","","","","Rate your confidence","1",""
"890.6000000238419","e","choice","right","i","experimental","410","378224","0.0-4.0-8.47","false","48","2.7499999999999996","","",""
"1790","2","confid","","","html-slider-response","412","380518","0.0-4.0-10.47-0.47","","","","Rate your confidence","1",""
"562","e","choice","right","i","experimental","419","382878","0.0-4.0-8.48","false","49","2.8499999999999996","","",""
"2756.100000023842","3","confid","","","html-slider-response","421","386138","0.0-4.0-10.48-0.48","","","","Rate your confidence","1",""
"653","e","choice","left","e","experimental","428","388590","0.0-4.0-8.49","true","50","2.9499999999999997","","",""
"2881.2999999523163","4","confid","","","html-slider-response","430","391975","0.0-4.0-10.49-0.49","","","","Rate your confidence","1",""
"883.3000000715256","e","choice","left","e","experimental","437","394641","0.0-4.0-8.50","true","51","2.9499999999999997","","",""
"1418","3","confid","","","html-slider-response","439","396562","0.0-4.0-10.50-0.50","","","","Rate your confidence","1",""
"719.6999999284744","i","choice","right","i","experimental","446","399067","0.0-4.0-8.51","true","52","2.8499999999999996","","",""
"1734.8999999761581","2","confid","","","html-slider-response","448","401306","0.0-4.0-10.51-0.51","","","","Rate your confidence","1",""
"853.1999999284744","e","choice","left","e","experimental","455","403958","0.0-4.0-8.52","true","53","2.8499999999999996","","",""
"4735","1","confid","","","html-slider-response","457","409197","0.0-4.0-10.52-0.52","","","","Rate your confidence","1",""
"667.2000000476837","i","choice","right","i","experimental","464","411658","0.0-4.0-8.53","true","54","2.7499999999999996","","",""
"2344.100000023842","2","confid","","","html-slider-response","466","414506","0.0-4.0-10.53-0.53","","","","Rate your confidence","1",""
"2904.2000000476837","i","choice","left","e","experimental","473","419209","0.0-4.0-8.54","false","55","2.7499999999999996","","",""
"5635.199999928474","1","confid","","","html-slider-response","475","425348","0.0-4.0-10.54-0.54","","","","Rate your confidence","1",""
"1689.2999999523163","i","choice","right","i","experimental","482","428831","0.0-4.0-8.55","true","56","2.8499999999999996","","",""
"2969.899999976158","2","confid","","","html-slider-response","484","432305","0.0-4.0-10.55-0.55","","","","Rate your confidence","1",""
"3268.1999999284744","e","choice","left","e","experimental","491","437360","0.0-4.0-8.56","true","57","2.8499999999999996","","",""
"4774.899999976158","1","confid","","","html-slider-response","493","442638","0.0-4.0-10.56-0.56","","","","Rate your confidence","1",""
"1831.3000000715256","i","choice","right","i","experimental","500","446254","0.0-4.0-8.57","true","58","2.7499999999999996","","",""
"3461.2999999523163","1","confid","","","html-slider-response","502","450219","0.0-4.0-10.57-0.57","","","","Rate your confidence","1",""
"823.2999999523163","e","choice","right","i","experimental","509","452830","0.0-4.0-8.58","false","59","2.7499999999999996","","",""
"3729.899999976158","2","confid","","","html-slider-response","511","457064","0.0-4.0-10.58-0.58","","","","Rate your confidence","1",""
"1117","e","choice","left","e","experimental","518","459989","0.0-4.0-8.59","true","60","2.8499999999999996","","",""
"1729.5","2","confid","","","html-slider-response","520","462223","0.0-4.0-10.59-0.59","","","","Rate your confidence","1",""
"481.3000000715256","e","choice","left","e","experimental","527","464504","0.0-4.0-8.60","true","61","2.8499999999999996","","",""
"2196.5","3","confid","","","html-slider-response","529","467205","0.0-4.0-10.60-0.60","","","","Rate your confidence","1",""
"784.2999999523163","i","choice","right","i","experimental","536","469778","0.0-4.0-8.61","true","62","2.7499999999999996","","",""
"3636.600000023842","2","confid","","","html-slider-response","538","473918","0.0-4.0-10.61-0.61","","","","Rate your confidence","1",""
"1533","e","choice","left","e","experimental","545","477242","0.0-4.0-8.62","true","63","2.7499999999999996","","",""
"2380.7999999523163","2","confid","","","html-slider-response","547","480126","0.0-4.0-10.62-0.62","","","","Rate your confidence","1",""
"1016.5","i","choice","right","i","experimental","554","482932","0.0-4.0-8.63","true","64","2.6499999999999995","","",""
"3632.8000000715256","1","confid","","","html-slider-response","556","487085","0.0-4.0-10.63-0.63","","","","Rate your confidence","1",""
"1155.3000000715256","e","choice","left","e","experimental","563","490021","0.0-4.0-8.64","true","65","2.6499999999999995","","",""
"3641.7000000476837","1","confid","","","html-slider-response","565","494166","0.0-4.0-10.64-0.64","","","","Rate your confidence","1",""
"492","e","choice","right","i","experimental","572","496440","0.0-4.0-8.65","false","66","2.5499999999999994","","",""
"2923","2","confid","","","html-slider-response","574","499867","0.0-4.0-10.65-0.65","","","","Rate your confidence","1",""
"1762","i","choice","right","i","experimental","581","503427","0.0-4.0-8.66","true","67","2.6499999999999995","","",""
"2992","1","confid","","","html-slider-response","583","506923","0.0-4.0-10.66-0.66","","","","Rate your confidence","1",""
"409.60000002384186","e","choice","left","e","experimental","590","509120","0.0-4.0-8.67","true","68","2.6499999999999995","","",""
"4363.699999928474","3","confid","","","html-slider-response","592","513987","0.0-4.0-10.67-0.67","","","","Rate your confidence","1",""
"343.2999999523163","e","choice","right","i","experimental","600","519641","0.0-4.0-8.68","false","69","2.5499999999999994","","",""
"2491.100000023842","4","confid","","","html-slider-response","602","522636","0.0-4.0-10.68-0.68","","","","Rate your confidence","1",""
"325.7000000476837","e","choice","left","e","experimental","609","524748","0.0-4.0-8.69","true","70","2.6499999999999995","","",""
"1848.3999999761581","4","confid","","","html-slider-response","611","527101","0.0-4.0-10.69-0.69","","","","Rate your confidence","1",""
"321.7000000476837","e","choice","left","e","experimental","618","529224","0.0-4.0-8.70","true","71","2.6499999999999995","","",""
"2084.7000000476837","3","confid","","","html-slider-response","620","531813","0.0-4.0-10.70-0.70","","","","Rate your confidence","1",""
"700.3000000715256","e","choice","right","i","experimental","627","534312","0.0-4.0-8.71","false","72","2.5499999999999994","","",""
"4085.2999999523163","4","confid","","","html-slider-response","629","538901","0.0-4.0-10.71-0.71","","","","Rate your confidence","1",""
"768.6000000238419","e","choice","right","i","experimental","636","541458","0.0-4.0-8.72","false","73","2.6499999999999995","","",""
"3831.899999976158","1","confid","","","html-slider-response","638","545794","0.0-4.0-10.72-0.72","","","","Rate your confidence","1",""
"402.2000000476837","e","choice","left","e","experimental","645","547983","0.0-4.0-8.73","true","74","2.7499999999999996","","",""
"1962.3999999761581","3","confid","","","html-slider-response","647","550448","0.0-4.0-10.73-0.73","","","","Rate your confidence","1",""
"734.7999999523163","i","choice","right","i","experimental","654","552971","0.0-4.0-8.74","true","75","2.7499999999999996","","",""
"3581.399999976158","2","confid","","","html-slider-response","656","557056","0.0-4.0-10.74-0.74","","","","Rate your confidence","1",""
"368","e","choice","left","e","experimental","663","559223","0.0-4.0-8.75","true","76","2.6499999999999995","","",""
"1762.7999999523163","3","confid","","","html-slider-response","665","561489","0.0-4.0-10.75-0.75","","","","Rate your confidence","1",""
"1204.1000000238419","e","choice","right","i","experimental","672","564501","0.0-4.0-8.76","false","77","2.6499999999999995","","",""
"2291","1","confid","","","html-slider-response","674","567296","0.0-4.0-10.76-0.76","","","","Rate your confidence","1",""
"446.60000002384186","e","choice","left","e","experimental","681","569526","0.0-4.0-8.77","true","78","2.7499999999999996","","",""
"3546.899999976158","3","confid","","","html-slider-response","683","573593","0.0-4.0-10.77-0.77","","","","Rate your confidence","1",""
"921.7000000476837","i","choice","left","e","experimental","690","576304","0.0-4.0-8.78","false","79","2.7499999999999996","","",""
"6759.899999976158","4","confid","","","html-slider-response","692","583569","0.0-4.0-10.78-0.78","","","","Rate your confidence","1",""
"2587.600000023842","i","choice","right","i","experimental","699","587955","0.0-4.0-8.79","true","80","2.8499999999999996","","",""
"2035.7999999523163","1","confid","","","html-slider-response","701","590495","0.0-4.0-10.79-0.79","","","","Rate your confidence","1",""
"1289","i","choice","left","e","experimental","708","593593","0.0-4.0-8.80","false","81","2.8499999999999996","","",""
"2188.7000000476837","3","confid","","","html-slider-response","710","596286","0.0-4.0-10.80-0.80","","","","Rate your confidence","1",""
"1272","e","choice","right","i","experimental","717","599359","0.0-4.0-8.81","false","82","2.9499999999999997","","",""
"1691.1000000238419","3","confid","","","html-slider-response","719","601554","0.0-4.0-10.81-0.81","","","","Rate your confidence","1",""
"4064.8000000715256","i","choice","left","e","experimental","726","607405","0.0-4.0-8.82","false","83","3.05","","",""
"1996.5","1","confid","","","html-slider-response","728","609907","0.0-4.0-10.82-0.82","","","","Rate your confidence","1",""
"1296.5","e","choice","right","i","experimental","735","612985","0.0-4.0-8.83","false","84","3.15","","",""
"2363.7000000476837","1","confid","","","html-slider-response","737","615853","0.0-4.0-10.83-0.83","","","","Rate your confidence","1",""
"926.5","i","choice","right","i","experimental","744","618571","0.0-4.0-8.84","true","85","3.25","","",""
"2249.7999999523163","3","confid","","","html-slider-response","746","621325","0.0-4.0-10.84-0.84","","","","Rate your confidence","1",""
"354.60000002384186","e","choice","left","e","experimental","753","623460","0.0-4.0-8.85","true","86","3.25","","",""
"2555.100000023842","2","confid","","","html-slider-response","755","626519","0.0-4.0-10.85-0.85","","","","Rate your confidence","1",""
"367.7999999523163","e","choice","left","e","experimental","762","628690","0.0-4.0-8.86","true","87","3.15","","",""
"2998.7999999523163","2","confid","","","html-slider-response","764","632195","0.0-4.0-10.86-0.86","","","","Rate your confidence","1",""
"843.3000000715256","i","choice","right","i","experimental","771","634840","0.0-4.0-8.87","true","88","3.15","","",""
"2596.8000000715256","3","confid","","","html-slider-response","773","637942","0.0-4.0-10.87-0.87","","","","Rate your confidence","1",""
"604.8999999761581","i","choice","right","i","experimental","780","640334","0.0-4.0-8.88","true","89","3.05","","",""
"2973.4000000953674","2","confid","","","html-slider-response","782","643812","0.0-4.0-10.88-0.88","","","","Rate your confidence","1",""
"923.8000000715256","e","choice","left","e","experimental","789","646524","0.0-4.0-8.89","true","90","3.05","","",""
"2181.3000000715256","1","confid","","","html-slider-response","791","649210","0.0-4.0-10.89-0.89","","","","Rate your confidence","1",""
"607.5","e","choice","left","e","experimental","798","651617","0.0-4.0-8.90","true","91","2.9499999999999997","","",""
"2185.100000023842","3","confid","","","html-slider-response","800","654306","0.0-4.0-10.90-0.90","","","","Rate your confidence","1",""
"411.59999990463257","e","choice","right","i","experimental","807","656525","0.0-4.0-8.91","false","92","2.9499999999999997","","",""
"3411.5","2","confid","","","html-slider-response","809","660440","0.0-4.0-10.91-0.91","","","","Rate your confidence","1",""
"1153.1000000238419","i","choice","left","e","experimental","816","663400","0.0-4.0-8.92","false","93","3.05","","",""
"2630.2000000476837","1","confid","","","html-slider-response","818","666536","0.0-4.0-10.92-0.92","","","","Rate your confidence","1",""
"684.9000000953674","i","choice","right","i","experimental","825","669002","0.0-4.0-8.93","true","94","3.15","","",""
"2392.7000000476837","2","confid","","","html-slider-response","827","671899","0.0-4.0-10.93-0.93","","","","Rate your confidence","1",""
"559.2999999523163","e","choice","left","e","experimental","834","674241","0.0-4.0-8.94","true","95","3.15","","",""
"2522.5","1","confid","","","html-slider-response","836","677270","0.0-4.0-10.94-0.94","","","","Rate your confidence","1",""
"686.2000000476837","e","choice","right","i","experimental","843","679739","0.0-4.0-8.95","false","96","3.05","","",""
"3191.600000023842","2","confid","","","html-slider-response","845","683434","0.0-4.0-10.95-0.95","","","","Rate your confidence","1",""
"978.3999999761581","i","choice","left","e","experimental","852","686202","0.0-4.0-8.96","false","97","3.15","","",""
"1961.5","1","confid","","","html-slider-response","854","688667","0.0-4.0-10.96-0.96","","","","Rate your confidence","1",""
"1358","e","choice","right","i","experimental","861","691812","0.0-4.0-8.97","false","98","3.25","","",""
"2108.7999999523163","1","confid","","","html-slider-response","863","694424","0.0-4.0-10.97-0.97","","","","Rate your confidence","1",""
"800.2999999523163","i","choice","right","i","experimental","870","697014","0.0-4.0-8.98","true","99","3.35","","",""
"2433.600000023842","4","confid","","","html-slider-response","872","699952","0.0-4.0-10.98-0.98","","","","Rate your confidence","1",""
"1451.8999999761581","i","choice","left","e","experimental","879","703187","0.0-4.0-8.99","false","100","3.35","","",""
"2450.100000023842","3","confid","","","html-slider-response","881","706142","0.0-4.0-10.99-0.99","","","","Rate your confidence","1",""
"484.89999997615814","e","choice","left","e","experimental","888","708428","0.0-4.0-8.100","true","101","3.45","","",""
"2697.2000000476837","4","confid","","","html-slider-response","890","711630","0.0-4.0-10.100-0.100","","","","Rate your confidence","1",""
"548.1000000238419","e","choice","right","i","experimental","897","713969","0.0-4.0-8.101","false","102","3.45","","",""
"1733.1999999284744","4","confid","","","html-slider-response","899","716206","0.0-4.0-10.101-0.101","","","","Rate your confidence","1",""
"1744.2999999523163","i","choice","right","i","experimental","906","719751","0.0-4.0-8.102","true","103","3.5500000000000003","","",""
"2446.8000000715256","3","confid","","","html-slider-response","908","722704","0.0-4.0-10.102-0.102","","","","Rate your confidence","1",""
"329.7000000476837","e","choice","left","e","experimental","915","724833","0.0-4.0-8.103","true","104","3.5500000000000003","","",""
"2267.7000000476837","4","confid","","","html-slider-response","917","727604","0.0-4.0-10.103-0.103","","","","Rate your confidence","1",""
"433.60000002384186","e","choice","left","e","experimental","924","729826","0.0-4.0-8.104","true","105","3.45","","",""
"2761.1999999284744","2","confid","","","html-slider-response","926","733092","0.0-4.0-10.104-0.104","","","","Rate your confidence","1",""
"914.8999999761581","i","choice","right","i","experimental","933","735797","0.0-4.0-8.105","true","106","3.45","","",""
"1697.7999999523163","3","confid","","","html-slider-response","935","737999","0.0-4.0-10.105-0.105","","","","Rate your confidence","1",""
"833.6000000238419","i","choice","right","i","experimental","942","740642","0.0-4.0-8.106","true","107","3.35","","",""
"2641.2999999523163","1","confid","","","html-slider-response","944","743790","0.0-4.0-10.106-0.106","","","","Rate your confidence","1",""
"446.8000000715256","e","choice","left","e","experimental","951","746044","0.0-4.0-8.107","true","108","3.35","","",""
"2975.5","4","confid","","","html-slider-response","953","749523","0.0-4.0-10.107-0.107","","","","Rate your confidence","1",""
"539.6999999284744","e","choice","right","i","experimental","960","751864","0.0-4.0-8.108","false","109","3.25","","",""
"3149.399999976158","5","confid","","","html-slider-response","962","755517","0.0-4.0-10.108-0.108","","","","Rate your confidence","1",""
"828.3999999761581","e","choice","left","e","experimental","969","758132","0.0-4.0-8.109","true","110","3.35","","",""
"1757.5","4","confid","","","html-slider-response","971","760393","0.0-4.0-10.109-0.109","","","","Rate your confidence","1",""
"457.10000002384186","e","choice","right","i","experimental","979","766113","0.0-4.0-8.110","false","111","3.35","","",""
"2739.100000023842","3","confid","","","html-slider-response","981","769356","0.0-4.0-10.110-0.110","","","","Rate your confidence","1",""
"441.39999997615814","e","choice","left","e","experimental","988","771590","0.0-4.0-8.111","true","112","3.45","","",""
"3075.5","4","confid","","","html-slider-response","990","775171","0.0-4.0-10.111-0.111","","","","Rate your confidence","1",""
"341","e","choice","left","e","experimental","997","777314","0.0-4.0-8.112","true","113","3.45","","",""
"1493.6999999284744","3","confid","","","html-slider-response","999","779311","0.0-4.0-10.112-0.112","","","","Rate your confidence","1",""
"435.60000002384186","e","choice","right","i","experimental","1006","781547","0.0-4.0-8.113","false","114","3.35","","",""
"1727.6000000238419","4","confid","","","html-slider-response","1008","783779","0.0-4.0-10.113-0.113","","","","Rate your confidence","1",""
"862.2999999523163","i","choice","right","i","experimental","1015","786438","0.0-4.0-8.114","true","115","3.45","","",""
"4225.699999928474","4","confid","","","html-slider-response","1017","791170","0.0-4.0-10.114-0.114","","","","Rate your confidence","1",""
"390.60000002384186","e","choice","left","e","experimental","1024","793342","0.0-4.0-8.115","true","116","3.45","","",""
"1754.8999999761581","4","confid","","","html-slider-response","1026","795603","0.0-4.0-10.115-0.115","","","","Rate your confidence","1",""
"329.7999999523163","e","choice","left","e","experimental","1033","797729","0.0-4.0-8.116","true","117","3.35","","",""
"1624.8999999761581","3","confid","","","html-slider-response","1035","799858","0.0-4.0-10.116-0.116","","","","Rate your confidence","1",""
"1536.5","i","choice","right","i","experimental","1042","803198","0.0-4.0-8.117","true","118","3.35","","",""
"2375.100000023842","1","confid","","","html-slider-response","1044","806076","0.0-4.0-10.117-0.117","","","","Rate your confidence","1",""
"1001.1000000238419","e","choice","right","i","experimental","1051","808885","0.0-4.0-8.118","false","119","3.25","","",""
"2140.399999976158","3","confid","","","html-slider-response","1053","811530","0.0-4.0-10.118-0.118","","","","Rate your confidence","1",""
"1294.5","i","choice","left","e","experimental","1060","814614","0.0-4.0-8.119","false","120","3.35","","",""
"3537.5","2","confid","","","html-slider-response","1062","818656","0.0-4.0-10.119-0.119","","","","Rate your confidence","1",""
"331","e","choice","left","e","experimental","1069","820771","0.0-4.0-8.120","true","121","3.45","","",""
"2508.5","4","confid","","","html-slider-response","1071","823784","0.0-4.0-10.120-0.120","","","","Rate your confidence","1",""
"719","i","choice","right","i","experimental","1078","826293","0.0-4.0-8.121","true","122","3.45","","",""
"2570.9000000953674","2","confid","","","html-slider-response","1080","829368","0.0-4.0-10.121-0.121","","","","Rate your confidence","1",""
"487.10000002384186","e","choice","right","i","experimental","1087","831652","0.0-4.0-8.122","false","123","3.35","","",""
"2173.7999999523163","1","confid","","","html-slider-response","1089","834330","0.0-4.0-10.122-0.122","","","","Rate your confidence","1",""
"1088.8000000715256","e","choice","left","e","experimental","1096","837225","0.0-4.0-8.123","true","124","3.45","","",""
"2313.5","1","confid","","","html-slider-response","1098","840042","0.0-4.0-10.123-0.123","","","","Rate your confidence","1",""
"435.8000000715256","e","choice","left","e","experimental","1105","842264","0.0-4.0-8.124","true","125","3.45","","",""
"2963.2000000476837","3","confid","","","html-slider-response","1107","845733","0.0-4.0-10.124-0.124","","","","Rate your confidence","1",""
"719.5","i","choice","right","i","experimental","1114","848237","0.0-4.0-8.125","true","126","3.35","","",""
"2811.600000023842","2","confid","","","html-slider-response","1116","851553","0.0-4.0-10.125-0.125","","","","Rate your confidence","1",""
"1616.8999999761581","e","choice","right","i","experimental","1123","854963","0.0-4.0-8.126","false","127","3.35","","",""
"2423.2000000476837","1","confid","","","html-slider-response","1125","857891","0.0-4.0-10.126-0.126","","","","Rate your confidence","1",""
"380.39999997615814","e","choice","left","e","experimental","1132","860084","0.0-4.0-8.127","true","128","3.45","","",""
"3239.2000000476837","1","confid","","","html-slider-response","1134","863828","0.0-4.0-10.127-0.127","","","","Rate your confidence","1",""
"784.1999999284744","e","choice","left","e","experimental","1141","866419","0.0-4.0-8.128","true","129","3.45","","",""
"2554.2000000476837","4","confid","","","html-slider-response","1143","869478","0.0-4.0-10.128-0.128","","","","Rate your confidence","1",""
"1431.5","e","choice","right","i","experimental","1150","872693","0.0-4.0-8.129","false","130","3.35","","",""
"2300.100000023842","3","confid","","","html-slider-response","1152","875497","0.0-4.0-10.129-0.129","","","","Rate your confidence","1",""
"1170","i","choice","right","i","experimental","1159","878453","0.0-4.0-8.130","true","131","3.45","","",""
"6857.799999952316","3","confid","","","html-slider-response","1161","885814","0.0-4.0-10.130-0.130","","","","Rate your confidence","1",""
"334.2000000476837","e","choice","left","e","experimental","1168","887932","0.0-4.0-8.131","true","132","3.45","","",""
"2727.5","4","confid","","","html-slider-response","1170","891163","0.0-4.0-10.131-0.131","","","","Rate your confidence","1",""
"908.3999999761581","e","choice","left","e","experimental","1177","893876","0.0-4.0-8.132","true","133","3.35","","",""
"2589.2000000476837","2","confid","","","html-slider-response","1179","896970","0.0-4.0-10.132-0.132","","","","Rate your confidence","1",""
"592","e","choice","right","i","experimental","1186","899347","0.0-4.0-8.133","false","134","3.35","","",""
"1723","1","confid","","","html-slider-response","1188","901576","0.0-4.0-10.133-0.133","","","","Rate your confidence","1",""
"1027","i","choice","left","e","experimental","1195","904388","0.0-4.0-8.134","false","135","3.45","","",""
"2624.100000023842","2","confid","","","html-slider-response","1197","907517","0.0-4.0-10.134-0.134","","","","Rate your confidence","1",""
"1036.1000000238419","i","choice","right","i","experimental","1204","910339","0.0-4.0-8.135","true","136","3.5500000000000003","","",""
"2714.600000023842","2","confid","","","html-slider-response","1206","913560","0.0-4.0-10.135-0.135","","","","Rate your confidence","1",""
"1444.8999999761581","i","choice","right","i","experimental","1213","916792","0.0-4.0-8.136","true","137","3.5500000000000003","","",""
"3198.7999999523163","2","confid","","","html-slider-response","1215","920497","0.0-4.0-10.136-0.136","","","","Rate your confidence","1",""
"341.7000000476837","e","choice","left","e","experimental","1222","922628","0.0-4.0-8.137","true","138","3.45","","",""
"1677.3999999761581","3","confid","","","html-slider-response","1224","924809","0.0-4.0-10.137-0.137","","","","Rate your confidence","1",""
"1377.6999999284744","e","choice","right","i","experimental","1231","927994","0.0-4.0-8.138","false","139","3.45","","",""
"1644.3999999761581","1","confid","","","html-slider-response","1233","930142","0.0-4.0-10.138-0.138","","","","Rate your confidence","1",""
"6404","i","choice","left","e","experimental","1240","938333","0.0-4.0-8.139","false","140","3.5500000000000003","","",""
"21943.700000047684","1","confid","","","html-slider-response","1242","960780","0.0-4.0-10.139-0.139","","","","Rate your confidence","1",""
"1081.8000000715256","e","choice","left","e","experimental","1249","963645","0.0-4.0-8.140","true","141","3.6500000000000004","","",""
"3157.1999999284744","3","confid","","","html-slider-response","1251","967307","0.0-4.0-10.140-0.140","","","","Rate your confidence","1",""
"697.2000000476837","i","choice","right","i","experimental","1258","969788","0.0-4.0-8.141","true","142","3.6500000000000004","","",""
"2307.5999999046326","2","confid","","","html-slider-response","1260","972600","0.0-4.0-10.141-0.141","","","","Rate your confidence","1",""
"770.8999999761581","i","choice","right","i","experimental","1267","975179","0.0-4.0-8.142","true","143","3.5500000000000003","","",""
"7633.899999976158","2","confid","","","html-slider-response","1269","983317","0.0-4.0-10.142-0.142","","","","Rate your confidence","1",""
"372.2000000476837","e","choice","left","e","experimental","1276","985479","0.0-4.0-8.143","true","144","3.5500000000000003","","",""
"2552.9000000953674","1","confid","","","html-slider-response","1278","988536","0.0-4.0-10.143-0.143","","","","Rate your confidence","1",""
"331.1999999284744","e","choice","left","e","experimental","1285","990656","0.0-4.0-8.144","true","145","3.45","","",""
"2610.4000000953674","2","confid","","","html-slider-response","1287","993771","0.0-4.0-10.144-0.144","","","","Rate your confidence","1",""
"807.6000000238419","i","choice","right","i","experimental","1294","996381","0.0-4.0-8.145","true","146","3.45","","",""
"3504","2","confid","","","html-slider-response","1296","1000389","0.0-4.0-10.145-0.145","","","","Rate your confidence","1",""
"742.2000000476837","i","choice","right","i","experimental","1303","1002921","0.0-4.0-8.146","true","147","3.35","","",""
"4452.699999928474","2","confid","","","html-slider-response","1305","1007878","0.0-4.0-10.146-0.146","","","","Rate your confidence","1",""
"425.3000000715256","e","choice","left","e","experimental","1312","1010092","0.0-4.0-8.147","true","148","3.35","","",""
"1677.8000000715256","3","confid","","","html-slider-response","1314","1012278","0.0-4.0-10.147-0.147","","","","Rate your confidence","1",""
"747.3999999761581","i","choice","left","e","experimental","1321","1014821","0.0-4.0-8.148","false","149","3.25","","",""
"4546.100000023842","2","confid","","","html-slider-response","1323","1019870","0.0-4.0-10.148-0.148","","","","Rate your confidence","1",""
"1063.5","i","choice","right","i","experimental","1330","1022736","0.0-4.0-8.149","true","150","3.35","","",""
"1996.6999999284744","2","confid","","","html-slider-response","1332","1025236","0.0-4.0-10.149-0.149","","","","Rate your confidence","1",""
"411.89999997615814","e","choice","left","e","experimental","1339","1027460","0.0-4.0-8.150","true","151","3.35","","",""
"2399.2999999523163","1","confid","","","html-slider-response","1341","1030363","0.0-4.0-10.150-0.150","","","","Rate your confidence","1",""
"771.2000000476837","i","choice","right","i","experimental","1348","1032918","0.0-4.0-8.151","true","152","3.25","","",""
"7684.100000023842","2","confid","","","html-slider-response","1350","1041106","0.0-4.0-10.151-0.151","","","","Rate your confidence","1",""
"311.1999999284744","i","choice","right","i","experimental","1358","1345799","0.0-4.0-8.152","true","153","3.25","","",""
"4173.200000047684","1","confid","","","html-slider-response","1360","1350476","0.0-4.0-10.152-0.152","","","","Rate your confidence","1",""
"274.2999999523163","e","choice","left","e","experimental","1367","1352540","0.0-4.0-8.153","true","154","3.15","","",""
"2046.3999999761581","3","confid","","","html-slider-response","1369","1355107","0.0-4.0-10.153-0.153","","","","Rate your confidence","1",""
"220.5","e","choice","left","e","experimental","1376","1357111","0.0-4.0-8.154","true","155","3.15","","",""
"11270","2","confid","","","html-slider-response","1378","1368886","0.0-4.0-10.154-0.154","","","","Rate your confidence","1",""
"327.6999999284744","i","choice","right","i","experimental","1385","1370999","0.0-4.0-8.155","true","156","3.05","","",""
"4119.400000095367","1","confid","","","html-slider-response","1387","1375622","0.0-4.0-10.155-0.155","","","","Rate your confidence","1",""
"419","e","choice","right","i","experimental","1394","1377843","0.0-4.0-8.156","false","157","3.05","","",""
"2191.7999999523163","2","confid","","","html-slider-response","1396","1380538","0.0-4.0-10.156-0.156","","","","Rate your confidence","1",""
"1002.3999999761581","i","choice","left","e","experimental","1403","1383333","0.0-4.0-8.157","false","158","3.15","","",""
"22540.300000071526","1","confid","","","html-slider-response","1405","1406377","0.0-4.0-10.157-0.157","","","","Rate your confidence","1",""
"707.2999999523163","i","choice","right","i","experimental","1412","1408875","0.0-4.0-8.158","true","159","3.25","","",""
"2088.100000023842","3","confid","","","html-slider-response","1414","1411467","0.0-4.0-10.158-0.158","","","","Rate your confidence","1",""
"1182.5","e","choice","left","e","experimental","1421","1414451","0.0-4.0-8.159","true","160","3.25","","",""
"3257.8000000715256","1","confid","","","html-slider-response","1423","1418213","0.0-4.0-10.159-0.159","","","","Rate your confidence","1",""
"1735.6999999284744","i","choice","left","e","experimental","1430","1421751","0.0-4.0-8.160","false","161","3.15","","",""
"2172.100000023842","1","confid","","","html-slider-response","1432","1424428","0.0-4.0-10.160-0.160","","","","Rate your confidence","1",""
"1281.8999999761581","e","choice","right","i","experimental","1439","1427505","0.0-4.0-8.161","false","162","3.25","","",""
"1977.8999999761581","1","confid","","","html-slider-response","1441","1429989","0.0-4.0-10.161-0.161","","","","Rate your confidence","1",""
"777.7999999523163","e","choice","left","e","experimental","1448","1432555","0.0-4.0-8.162","true","163","3.35","","",""
"1738.2999999523163","2","confid","","","html-slider-response","1450","1434797","0.0-4.0-10.162-0.162","","","","Rate your confidence","1",""
"874.2999999523163","i","choice","right","i","experimental","1457","1437459","0.0-4.0-8.163","true","164","3.35","","",""
"1544.4000000953674","3","confid","","","html-slider-response","1459","1439507","0.0-4.0-10.163-0.163","","","","Rate your confidence","1",""
"736.7999999523163","i","choice","right","i","experimental","1466","1442049","0.0-4.0-8.164","true","165","3.25","","",""
"2097.2999999523163","3","confid","","","html-slider-response","1468","1444650","0.0-4.0-10.164-0.164","","","","Rate your confidence","1",""
"798.1000000238419","e","choice","left","e","experimental","1475","1447254","0.0-4.0-8.165","true","166","3.25","","",""
"1697.5","3","confid","","","html-slider-response","1477","1449457","0.0-4.0-10.165-0.165","","","","Rate your confidence","1",""
"754.5999999046326","e","choice","right","i","experimental","1484","1451997","0.0-4.0-8.166","false","167","3.15","","",""
"4353.299999952316","3","confid","","","html-slider-response","1486","1456870","0.0-4.0-10.166-0.166","","","","Rate your confidence","1",""
"749","i","choice","left","e","experimental","1493","1459411","0.0-4.0-8.167","false","168","3.25","","",""
"4115.900000095367","3","confid","","","html-slider-response","1495","1464031","0.0-4.0-10.167-0.167","","","","Rate your confidence","1",""
"710","e","choice","left","e","experimental","1502","1466539","0.0-4.0-8.168","true","169","3.35","","",""
"1530.1000000238419","3","confid","","","html-slider-response","1504","1468575","0.0-4.0-10.168-0.168","","","","Rate your confidence","1",""
"861.8999999761581","i","choice","right","i","experimental","1511","1471219","0.0-4.0-8.169","true","170","3.35","","",""
"3275.600000023842","2","confid","","","html-slider-response","1513","1474999","0.0-4.0-10.169-0.169","","","","Rate your confidence","1",""
"584.1999999284744","i","choice","left","e","experimental","1520","1477384","0.0-4.0-8.170","false","171","3.25","","",""
"1789","3","confid","","","html-slider-response","1522","1479678","0.0-4.0-10.170-0.170","","","","Rate your confidence","1",""
"594.5999999046326","i","choice","right","i","experimental","1529","1482063","0.0-4.0-8.171","true","172","3.35","","",""
"1911.2999999523163","2","confid","","","html-slider-response","1531","1484478","0.0-4.0-10.171-0.171","","","","Rate your confidence","1",""
"818.5","e","choice","right","i","experimental","1538","1487081","0.0-4.0-8.172","false","173","3.35","","",""
"1654","2","confid","","","html-slider-response","1540","1489239","0.0-4.0-10.172-0.172","","","","Rate your confidence","1",""
"708.2000000476837","e","choice","left","e","experimental","1547","1491754","0.0-4.0-8.173","true","174","3.45","","",""
"5823.399999976158","3","confid","","","html-slider-response","1549","1498082","0.0-4.0-10.173-0.173","","","","Rate your confidence","1",""
"815.2000000476837","i","choice","left","e","experimental","1556","1500703","0.0-4.0-8.174","false","175","3.45","","",""
"5029.600000023842","2","confid","","","html-slider-response","1558","1506237","0.0-4.0-10.174-0.174","","","","Rate your confidence","1",""
"604.8999999761581","i","choice","right","i","experimental","1565","1508632","0.0-4.0-8.175","true","176","3.5500000000000003","","",""
"1715.8000000715256","2","confid","","","html-slider-response","1567","1510852","0.0-4.0-10.175-0.175","","","","Rate your confidence","1",""
"763.8999999761581","e","choice","left","e","experimental","1574","1513400","0.0-4.0-8.176","true","177","3.5500000000000003","","",""
"11884.299999952316","3","confid","","","html-slider-response","1576","1525789","0.0-4.0-10.176-0.176","","","","Rate your confidence","1",""
"608.4000000953674","i","choice","right","i","experimental","1583","1528199","0.0-4.0-8.177","true","178","3.45","","",""
"2598.7999999523163","2","confid","","","html-slider-response","1585","1531302","0.0-4.0-10.177-0.177","","","","Rate your confidence","1",""
"799.1000000238419","i","choice","right","i","experimental","1592","1533887","0.0-4.0-8.178","true","179","3.45","","",""
"5866.400000095367","3","confid","","","html-slider-response","1594","1540257","0.0-4.0-10.178-0.178","","","","Rate your confidence","1",""
"716.5","e","choice","left","e","experimental","1601","1542760","0.0-4.0-8.179","true","180","3.35","","",""
"2610.2000000476837","2","confid","","","html-slider-response","1603","1545874","0.0-4.0-10.179-0.179","","","","Rate your confidence","1",""
"588.5","e","choice","left","e","experimental","1610","1548253","0.0-4.0-8.180","true","181","3.35","","",""
"4171.600000023842","2","confid","","","html-slider-response","1612","1552929","0.0-4.0-10.180-0.180","","","","Rate your confidence","1",""
"553.8000000715256","i","choice","right","i","experimental","1619","1555269","0.0-4.0-8.181","true","182","3.25","","",""
"2634.9000000953674","3","confid","","","html-slider-response","1621","1558408","0.0-4.0-10.181-0.181","","","","Rate your confidence","1",""
"745.6000000238419","i","choice","right","i","experimental","1628","1560938","0.0-4.0-8.182","true","183","3.25","","",""
"2029.3999999761581","3","confid","","","html-slider-response","1630","1563472","0.0-4.0-10.182-0.182","","","","Rate your confidence","1",""
"698","e","choice","left","e","experimental","1637","1565984","0.0-4.0-8.183","true","184","3.15","","",""
"1873.7999999523163","1","confid","","","html-slider-response","1639","1568362","0.0-4.0-10.183-0.183","","","","Rate your confidence","1",""
"810.8000000715256","e","choice","right","i","experimental","1646","1570961","0.0-4.0-8.184","false","185","3.15","","",""
"2301.899999976158","1","confid","","","html-slider-response","1648","1573783","0.0-4.0-10.184-0.184","","","","Rate your confidence","1",""
"504.2000000476837","e","choice","left","e","experimental","1655","1576068","0.0-4.0-8.185","true","186","3.25","","",""
"7031.100000023842","2","confid","","","html-slider-response","1657","1583604","0.0-4.0-10.185-0.185","","","","Rate your confidence","1",""
"622.8000000715256","i","choice","right","i","experimental","1664","1586026","0.0-4.0-8.186","true","187","3.25","","",""
"1921.7000000476837","2","confid","","","html-slider-response","1666","1588452","0.0-4.0-10.186-0.186","","","","Rate your confidence","1",""
"372.2999999523163","e","choice","left","e","experimental","1673","1590613","0.0-4.0-8.187","true","188","3.15","","",""
"8898.899999976158","1","confid","","","html-slider-response","1675","1600017","0.0-4.0-10.187-0.187","","","","Rate your confidence","1",""
"726.5","e","choice","left","e","experimental","1682","1602530","0.0-4.0-8.188","true","189","3.15","","",""
"2182.899999976158","4","confid","","","html-slider-response","1684","1605219","0.0-4.0-10.188-0.188","","","","Rate your confidence","1",""
"834.1999999284744","e","choice","right","i","experimental","1691","1607844","0.0-4.0-8.189","false","190","3.05","","",""
"2528.899999976158","1","confid","","","html-slider-response","1693","1610877","0.0-4.0-10.189-0.189","","","","Rate your confidence","1",""
"712","e","choice","left","e","experimental","1700","1613390","0.0-4.0-8.190","true","191","3.15","","",""
"1865.6999999284744","3","confid","","","html-slider-response","1702","1615760","0.0-4.0-10.190-0.190","","","","Rate your confidence","1",""
"833.7000000476837","i","choice","right","i","experimental","1709","1618376","0.0-4.0-8.191","true","192","3.15","","",""
"6131.299999952316","2","confid","","","html-slider-response","1711","1625011","0.0-4.0-10.191-0.191","","","","Rate your confidence","1",""
"735.5","e","choice","left","e","experimental","1718","1627531","0.0-4.0-8.192","true","193","3.05","","",""
"2299","3","confid","","","html-slider-response","1720","1630337","0.0-4.0-10.192-0.192","","","","Rate your confidence","1",""
"660.7000000476837","i","choice","right","i","experimental","1727","1632784","0.0-4.0-8.193","true","194","3.05","","",""
"2678.399999976158","3","confid","","","html-slider-response","1729","1635970","0.0-4.0-10.193-0.193","","","","Rate your confidence","1","69491"
