"rt","response","task","target_side","correct_response","trial_type","trial_index","time_elapsed","internal_node_id","correct","trial_number","n_dots","stimulus","slider_start","participant"
"2837.2000002861023","e","choice","right","i","practice","10","185277","0.0-4.0-8.0","false","1","4.25","","",""
"1362.4000000953674","e","choice","left","e","practice","18","188942","0.0-4.0-8.1","true","2","4.65","","",""
"492.40000009536743","i","choice","right","i","practice","26","191726","0.0-4.0-8.2","true","3","4.65","","",""
"1102.0999999046326","i","choice","left","e","practice","34","195121","0.0-4.0-8.3","false","4","4.25","","",""
"568.8000001907349","e","choice","left","e","practice","42","197959","0.0-4.0-8.4","true","5","4.65","","",""
"457.40000009536743","i","choice","right","i","practice","50","200695","0.0-4.0-8.5","true","6","4.65","","",""
"546.3000001907349","i","choice","left","e","practice","58","203526","0.0-4.0-8.6","false","7","4.45","","",""
"464.5","i","choice","right","i","practice","66","206265","0.0-4.0-8.7","true","8","4.65","","",""
"519.5999999046326","i","choice","right","i","practice","74","209082","0.0-4.0-8.8","true","9","4.65","","",""
"443.5","e","choice","left","e","practice","82","211818","0.0-4.0-8.9","true","10","4.45","","",""
"393.3999996185303","i","choice","right","i","practice","90","214497","0.0-4.0-8.10","true","11","4.45","","",""
"459.2999997138977","e","choice","left","e","practice","98","217236","0.0-4.0-8.11","true","12","4.3500000000000005","","",""
"387.09999990463257","e","choice","left","e","practice","106","219899","0.0-4.0-8.12","true","13","4.3500000000000005","","",""
"469.19999980926514","i","choice","right","i","practice","114","222662","0.0-4.0-8.13","true","14","4.250000000000001","","",""
"1138.6000003814697","e","choice","right","i","practice","122","226080","0.0-4.0-8.14","false","15","4.250000000000001","","",""
"516.9000000953674","e","choice","left","e","practice","130","228888","0.0-4.0-8.15","true","16","4.3500000000000005","","",""
"475.90000009536743","e","choice","left","e","practice","138","231649","0.0-4.0-8.16","true","17","4.3500000000000005","","",""
"534.6999998092651","i","choice","right","i","practice","146","234488","0.0-4.0-8.17","true","18","4.250000000000001","","",""
"776.1999998092651","i","choice","right","i","practice","154","237558","0.0-4.0-8.18","true","19","4.250000000000001","","",""
"758.8000001907349","e","choice","left","e","practice","162","240617","0.0-4.0-8.19","true","20","4.150000000000001","","",""
"708.3000001907349","i","choice","right","i","practice","170","243623","0.0-4.0-8.20","true","21","4.150000000000001","","",""
"418.59999990463257","i","choice","left","e","practice","178","246336","0.0-4.0-8.21","false","22","4.050000000000002","","",""
"564.3000001907349","i","choice","left","e","practice","186","249192","0.0-4.0-8.22","false","23","4.150000000000001","","",""
"502.30000019073486","i","choice","right","i","practice","194","251984","0.0-4.0-8.23","true","24","4.250000000000001","","",""
"253.5","i","choice","right","i","practice","202","254529","0.0-4.0-8.24","true","25","4.250000000000001","","",""
"395.8999996185303","i","choice","left","e","practice","210","257220","0.0-4.0-8.25","false","26","4.150000000000001","","",""
"432.40000009536743","i","choice","right","i","experimental","221","302106","0.0-4.0-8.26","true","27","4.250000000000001","","",""
"4207.199999809265","3","confid","","","html-slider-response","223","306818","0.0-4.0-10.26-0.26","","","","Rate your confidence","1",""
"832.0999999046326","e","choice","left","e","experimental","230","309435","0.0-4.0-8.27","true","28","4.250000000000001","","",""
"5111.700000286102","4","confid","","","html-slider-response","232","315052","0.0-4.0-10.27-0.27","","","","Rate your confidence","1",""
"1176.6999998092651","e","choice","left","e","experimental","239","318018","0.0-4.0-8.28","true","29","4.150000000000001","","",""
"4819","2","confid","","","html-slider-response","241","323343","0.0-4.0-10.28-0.28","","","","Rate your confidence","1",""
"1099.5","i","choice","right","i","experimental","248","326235","0.0-4.0-8.29","true","30","4.150000000000001","","",""
"7392.400000095367","3","confid","","","html-slider-response","250","334133","0.0-4.0-10.29-0.29","","","","Rate your confidence","1",""
"875.2000002861023","e","choice","left","e","experimental","257","336801","0.0-4.0-8.30","true","31","4.050000000000002","","",""
"8625.099999904633","3","confid","","","html-slider-response","259","345931","0.0-4.0-10.30-0.30","","","","Rate your confidence","1",""
"177.09999990463257","i","choice","right","i","experimental","266","347895","0.0-4.0-8.31","true","32","4.050000000000002","","",""
"5964.200000286102","4","confid","","","html-slider-response","268","354364","0.0-4.0-10.31-0.31","","","","Rate your confidence","1",""
"1312.1999998092651","e","choice","left","e","experimental","275","357466","0.0-4.0-8.32","true","33","3.9500000000000015","","",""
"5128","4","confid","","","html-slider-response","277","363099","0.0-4.0-10.32-0.32","","","","Rate your confidence","1",""
"632.3999996185303","e","choice","right","i","experimental","284","365509","0.0-4.0-8.33","false","34","3.9500000000000015","","",""
"2887.0999999046326","2","confid","","","html-slider-response","286","368899","0.0-4.0-10.33-0.33","","","","Rate your confidence","1",""
"1157.8000001907349","e","choice","left","e","experimental","293","371844","0.0-4.0-8.34","true","35","4.050000000000002","","",""
"2609.0999999046326","2","confid","","","html-slider-response","295","374963","0.0-4.0-10.34-0.34","","","","Rate your confidence","1",""
"684.2000002861023","i","choice","right","i","experimental","302","377431","0.0-4.0-8.35","true","36","4.050000000000002","","",""
"2705.2000002861023","3","confid","","","html-slider-response","304","380643","0.0-4.0-10.35-0.35","","","","Rate your confidence","1",""
"533.5999999046326","e","choice","left","e","experimental","311","382961","0.0-4.0-8.36","true","37","3.9500000000000015","","",""
"3056.199999809265","4","confid","","","html-slider-response","313","386523","0.0-4.0-10.36-0.36","","","","Rate your confidence","1",""
"246.2999997138977","i","choice","right","i","experimental","320","388570","0.0-4.0-8.37","true","38","3.9500000000000015","","",""
"2283.5","4","confid","","","html-slider-response","322","391359","0.0-4.0-10.37-0.37","","","","Rate your confidence","1",""
"112.2999997138977","e","choice","left","e","experimental","329","393261","0.0-4.0-8.38","true","39","3.8500000000000014","","",""
"3665.0999999046326","4","confid","","","html-slider-response","331","397431","0.0-4.0-10.38-0.38","","","","Rate your confidence","1",""
"563.8000001907349","i","choice","right","i","experimental","338","399796","0.0-4.0-8.39","true","40","3.8500000000000014","","",""
"2451.5","3","confid","","","html-slider-response","340","402752","0.0-4.0-10.39-0.39","","","","Rate your confidence","1",""
"1799.2000002861023","e","choice","left","e","experimental","347","406343","0.0-4.0-8.40","true","41","3.7500000000000013","","",""
"2769.4000000953674","1","confid","","","html-slider-response","349","409618","0.0-4.0-10.40-0.40","","","","Rate your confidence","1",""
"144.7999997138977","i","choice","right","i","experimental","356","411559","0.0-4.0-8.41","true","42","3.7500000000000013","","",""
"2470.0999999046326","3","confid","","","html-slider-response","358","414535","0.0-4.0-10.41-0.41","","","","Rate your confidence","1",""
"403.2000002861023","e","choice","left","e","experimental","365","416734","0.0-4.0-8.42","true","43","3.6500000000000012","","",""
"2377.300000190735","4","confid","","","html-slider-response","367","419616","0.0-4.0-10.42-0.42","","","","Rate your confidence","1",""
"315.90000009536743","i","choice","right","i","experimental","374","421712","0.0-4.0-8.43","true","44","3.6500000000000012","","",""
"3175.199999809265","5","confid","","","html-slider-response","376","425398","0.0-4.0-10.43-0.43","","","","Rate your confidence","1",""
"327","e","choice","left","e","experimental","383","427515","0.0-4.0-8.44","true","45","3.550000000000001","","",""
"3038.4000000953674","3","confid","","","html-slider-response","385","431069","0.0-4.0-10.44-0.44","","","","Rate your confidence","1",""
"427.30000019073486","i","choice","right","i","experimental","392","433298","0.0-4.0-8.45","true","46","3.550000000000001","","",""
"4080.4000000953674","3","confid","","","html-slider-response","394","437883","0.0-4.0-10.45-0.45","","","","Rate your confidence","1",""
"306","e","choice","left","e","experimental","401","439979","0.0-4.0-8.46","true","47","3.450000000000001","","",""
"2464.6000003814697","3","confid","","","html-slider-response","403","442950","0.0-4.0-10.46-0.46","","","","Rate your confidence","1",""
"641.5","e","choice","right","i","experimental","410","445379","0.0-4.0-8.47","false","48","3.450000000000001","","",""
"3379.300000190735","2","confid","","","html-slider-response","412","449262","0.0-4.0-10.47-0.47","","","","Rate your confidence","1",""
"42.89999961853027","i","choice","right","i","experimental","419","451089","0.0-4.0-8.48","true","49","3.550000000000001","","",""
"3084.9000000953674","3","confid","","","html-slider-response","421","454680","0.0-4.0-10.48-0.48","","","","Rate your confidence","1",""
"695.1999998092651","e","choice","left","e","experimental","428","457165","0.0-4.0-8.49","true","50","3.550000000000001","","",""
"5796.800000190735","2","confid","","","html-slider-response","430","463466","0.0-4.0-10.49-0.49","","","","Rate your confidence","1",""
"835.8999996185303","e","choice","left","e","experimental","437","466101","0.0-4.0-8.50","true","51","3.450000000000001","","",""
"3746.9000000953674","3","confid","","","html-slider-response","439","470353","0.0-4.0-10.50-0.50","","","","Rate your confidence","1",""
"222.39999961853027","i","choice","right","i","experimental","446","472360","0.0-4.0-8.51","true","52","3.450000000000001","","",""
"2502.2999997138977","3","confid","","","html-slider-response","448","475368","0.0-4.0-10.51-0.51","","","","Rate your confidence","1",""
"248.40000009536743","i","choice","right","i","experimental","455","477415","0.0-4.0-8.52","true","53","3.350000000000001","","",""
"2300.2000002861023","3","confid","","","html-slider-response","457","480221","0.0-4.0-10.52-0.52","","","","Rate your confidence","1",""
"539.8999996185303","i","choice","left","e","experimental","464","482548","0.0-4.0-8.53","false","54","3.350000000000001","","",""
"2462","3","confid","","","html-slider-response","466","485515","0.0-4.0-10.53-0.53","","","","Rate your confidence","1",""
"298.30000019073486","i","choice","right","i","experimental","473","487601","0.0-4.0-8.54","true","55","3.450000000000001","","",""
"3492.2000002861023","4","confid","","","html-slider-response","475","491598","0.0-4.0-10.54-0.54","","","","Rate your confidence","1",""
"738.5999999046326","e","choice","left","e","experimental","482","494132","0.0-4.0-8.55","true","56","3.450000000000001","","",""
"2731.9000000953674","3","confid","","","html-slider-response","484","497386","0.0-4.0-10.55-0.55","","","","Rate your confidence","1",""
"1410.3000001907349","i","choice","right","i","experimental","491","500576","0.0-4.0-8.56","true","57","3.350000000000001","","",""
"3343.8999996185303","1","confid","","","html-slider-response","493","504431","0.0-4.0-10.56-0.56","","","","Rate your confidence","1",""
"891.1999998092651","i","choice","left","e","experimental","500","507105","0.0-4.0-8.57","false","58","3.350000000000001","","",""
"5468","2","confid","","","html-slider-response","502","513078","0.0-4.0-10.57-0.57","","","","Rate your confidence","1",""
"470.59999990463257","i","choice","right","i","experimental","509","515336","0.0-4.0-8.58","true","59","3.450000000000001","","",""
"2085","4","confid","","","html-slider-response","511","517926","0.0-4.0-10.58-0.58","","","","Rate your confidence","1",""
"2280.5999999046326","e","choice","left","e","experimental","518","521999","0.0-4.0-8.59","true","60","3.450000000000001","","",""
"2742.300000190735","1","confid","","","html-slider-response","520","525245","0.0-4.0-10.59-0.59","","","","Rate your confidence","1",""
"807.3999996185303","i","choice","right","i","experimental","527","527844","0.0-4.0-8.60","true","61","3.350000000000001","","",""
"3431.7999997138977","4","confid","","","html-slider-response","529","531781","0.0-4.0-10.60-0.60","","","","Rate your confidence","1",""
"479.40000009536743","i","choice","left","e","experimental","536","534063","0.0-4.0-8.61","false","62","3.350000000000001","","",""
"3845.0999999046326","3","confid","","","html-slider-response","538","538413","0.0-4.0-10.61-0.61","","","","Rate your confidence","1",""
"1005.2000002861023","i","choice","left","e","experimental","545","541207","0.0-4.0-8.62","false","63","3.450000000000001","","",""
"4472.599999904633","1","confid","","","html-slider-response","547","546185","0.0-4.0-10.62-0.62","","","","Rate your confidence","1",""
"526.8000001907349","i","choice","right","i","experimental","554","548505","0.0-4.0-8.63","true","64","3.550000000000001","","",""
"5731.599999904633","1","confid","","","html-slider-response","556","554742","0.0-4.0-10.63-0.63","","","","Rate your confidence","1",""
"225.69999980926514","i","choice","right","i","experimental","563","556766","0.0-4.0-8.64","true","65","3.550000000000001","","",""
"2479.5","2","confid","","","html-slider-response","565","559750","0.0-4.0-10.64-0.64","","","","Rate your confidence","1",""
"715.2999997138977","i","choice","left","e","experimental","572","562257","0.0-4.0-8.65","false","66","3.450000000000001","","",""
"2740.5","1","confid","","","html-slider-response","574","565509","0.0-4.0-10.65-0.65","","","","Rate your confidence","1",""
"1230.6000003814697","i","choice","left","e","experimental","581","568528","0.0-4.0-8.66","false","67","3.550000000000001","","",""
"2961.5999999046326","1","confid","","","html-slider-response","583","571995","0.0-4.0-10.66-0.66","","","","Rate your confidence","1",""
"437.09999990463257","i","choice","right","i","experimental","590","574238","0.0-4.0-8.67","true","68","3.6500000000000012","","",""
"2397.2999997138977","3","confid","","","html-slider-response","592","577142","0.0-4.0-10.67-0.67","","","","Rate your confidence","1",""
"594.2000002861023","i","choice","right","i","experimental","600","621259","0.0-4.0-8.68","true","69","3.6500000000000012","","",""
"2333.5","3","confid","","","html-slider-response","602","624098","0.0-4.0-10.68-0.68","","","","Rate your confidence","1",""
"585.8999996185303","e","choice","left","e","experimental","609","626456","0.0-4.0-8.69","true","70","3.550000000000001","","",""
"4293.900000095367","2","confid","","","html-slider-response","611","631264","0.0-4.0-10.69-0.69","","","","Rate your confidence","1",""
"1171","i","choice","right","i","experimental","618","634223","0.0-4.0-8.70","true","71","3.550000000000001","","",""
"4668.099999904633","3","confid","","","html-slider-response","620","639399","0.0-4.0-10.70-0.70","","","","Rate your confidence","1",""
"668.9000000953674","i","choice","left","e","experimental","627","641866","0.0-4.0-8.71","false","72","3.450000000000001","","",""
"2696.9000000953674","1","confid","","","html-slider-response","629","645068","0.0-4.0-10.71-0.71","","","","Rate your confidence","1",""
"339.80000019073486","e","choice","left","e","experimental","636","647200","0.0-4.0-8.72","true","73","3.550000000000001","","",""
"4610.699999809265","2","confid","","","html-slider-response","638","652316","0.0-4.0-10.72-0.72","","","","Rate your confidence","1",""
"1178.6999998092651","e","choice","right","i","experimental","645","655291","0.0-4.0-8.73","false","74","3.550000000000001","","",""
"3369.199999809265","1","confid","","","html-slider-response","647","659167","0.0-4.0-10.73-0.73","","","","Rate your confidence","1",""
"411.90000009536743","i","choice","right","i","experimental","654","661377","0.0-4.0-8.74","true","75","3.6500000000000012","","",""
"2278.5","3","confid","","","html-slider-response","656","664159","0.0-4.0-10.74-0.74","","","","Rate your confidence","1",""
"363.59999990463257","e","choice","left","e","experimental","663","666314","0.0-4.0-8.75","true","76","3.6500000000000012","","",""
"3135.2999997138977","4","confid","","","html-slider-response","665","669955","0.0-4.0-10.75-0.75","","","","Rate your confidence","1",""
"353.90000009536743","i","choice","right","i","experimental","672","672098","0.0-4.0-8.76","true","77","3.550000000000001","","",""
"2599.5999999046326","3","confid","","","html-slider-response","674","675203","0.0-4.0-10.76-0.76","","","","Rate your confidence","1",""
"495.19999980926514","e","choice","left","e","experimental","681","677495","0.0-4.0-8.77","true","78","3.550000000000001","","",""
"3242","1","confid","","","html-slider-response","683","681242","0.0-4.0-10.77-0.77","","","","Rate your confidence","1",""
"662.4000000953674","i","choice","right","i","experimental","690","683704","0.0-4.0-8.78","true","79","3.450000000000001","","",""
"3132.699999809265","2","confid","","","html-slider-response","692","687343","0.0-4.0-10.78-0.78","","","","Rate your confidence","1",""
"449.69999980926514","e","choice","left","e","experimental","699","689578","0.0-4.0-8.79","true","80","3.450000000000001","","",""
"3309.0999999046326","2","confid","","","html-slider-response","701","693393","0.0-4.0-10.79-0.79","","","","Rate your confidence","1",""
"684.9000000953674","i","choice","right","i","experimental","708","695870","0.0-4.0-8.80","true","81","3.350000000000001","","",""
"2907.5999999046326","2","confid","","","html-slider-response","710","699282","0.0-4.0-10.80-0.80","","","","Rate your confidence","1",""
"1673.8000001907349","e","choice","left","e","experimental","717","702749","0.0-4.0-8.81","true","82","3.350000000000001","","",""
"3093.2999997138977","1","confid","","","html-slider-response","719","706348","0.0-4.0-10.81-0.81","","","","Rate your confidence","1",""
"414.40000009536743","i","choice","right","i","experimental","726","708554","0.0-4.0-8.82","true","83","3.250000000000001","","",""
"3083.800000190735","1","confid","","","html-slider-response","728","712143","0.0-4.0-10.82-0.82","","","","Rate your confidence","1",""
"293.7000002861023","i","choice","left","e","experimental","735","714231","0.0-4.0-8.83","false","84","3.250000000000001","","",""
"4916.699999809265","2","confid","","","html-slider-response","737","719662","0.0-4.0-10.83-0.83","","","","Rate your confidence","1",""
"849.3000001907349","i","choice","right","i","experimental","744","722298","0.0-4.0-8.84","true","85","3.350000000000001","","",""
"2565.199999809265","2","confid","","","html-slider-response","746","725370","0.0-4.0-10.84-0.84","","","","Rate your confidence","1",""
"648.8999996185303","e","choice","left","e","experimental","753","727814","0.0-4.0-8.85","true","86","3.350000000000001","","",""
"5896.5","3","confid","","","html-slider-response","755","734217","0.0-4.0-10.85-0.85","","","","Rate your confidence","1",""
"1734.6999998092651","e","choice","left","e","experimental","762","737747","0.0-4.0-8.86","true","87","3.250000000000001","","",""
"3062","1","confid","","","html-slider-response","764","741314","0.0-4.0-10.86-0.86","","","","Rate your confidence","1",""
"525","i","choice","right","i","experimental","771","743629","0.0-4.0-8.87","true","88","3.250000000000001","","",""
"2621.2999997138977","2","confid","","","html-slider-response","773","746753","0.0-4.0-10.87-0.87","","","","Rate your confidence","1",""
"851.2999997138977","e","choice","left","e","experimental","780","749387","0.0-4.0-8.88","true","89","3.150000000000001","","",""
"3523","2","confid","","","html-slider-response","782","753416","0.0-4.0-10.88-0.88","","","","Rate your confidence","1",""
"387.09999990463257","i","choice","right","i","experimental","789","755594","0.0-4.0-8.89","true","90","3.150000000000001","","",""
"3054.2000002861023","2","confid","","","html-slider-response","791","759154","0.0-4.0-10.89-0.89","","","","Rate your confidence","1",""
"288.7000002861023","e","choice","left","e","experimental","798","761225","0.0-4.0-8.90","true","91","3.0500000000000007","","",""
"4706.89999961853","1","confid","","","html-slider-response","800","766438","0.0-4.0-10.90-0.90","","","","Rate your confidence","1",""
"432.2000002861023","e","choice","right","i","experimental","807","768665","0.0-4.0-8.91","false","92","3.0500000000000007","","",""
"3345.4000000953674","1","confid","","","html-slider-response","809","772516","0.0-4.0-10.91-0.91","","","","Rate your confidence","1",""
"152.40000009536743","i","choice","left","e","experimental","816","774461","0.0-4.0-8.92","false","93","3.150000000000001","","",""
"3189.5999999046326","1","confid","","","html-slider-response","818","778157","0.0-4.0-10.92-0.92","","","","Rate your confidence","1",""
"161.2999997138977","i","choice","right","i","experimental","825","780112","0.0-4.0-8.93","true","94","3.250000000000001","","",""
"2339.0999999046326","1","confid","","","html-slider-response","827","782956","0.0-4.0-10.93-0.93","","","","Rate your confidence","1",""
"675.5","e","choice","right","i","experimental","834","785417","0.0-4.0-8.94","false","95","3.250000000000001","","",""
"3350.0999999046326","1","confid","","","html-slider-response","836","789274","0.0-4.0-10.94-0.94","","","","Rate your confidence","1",""
"120","e","choice","left","e","experimental","843","791184","0.0-4.0-8.95","true","96","3.350000000000001","","",""
"3607.300000190735","1","confid","","","html-slider-response","845","795297","0.0-4.0-10.95-0.95","","","","Rate your confidence","1",""
"106.09999990463257","i","choice","left","e","experimental","852","797197","0.0-4.0-8.96","false","97","3.350000000000001","","",""
"3764.5","1","confid","","","html-slider-response","854","801477","0.0-4.0-10.96-0.96","","","","Rate your confidence","1",""
"670.4000000953674","i","choice","right","i","experimental","861","803935","0.0-4.0-8.97","true","98","3.450000000000001","","",""
"3702.7000002861023","2","confid","","","html-slider-response","863","808144","0.0-4.0-10.97-0.97","","","","Rate your confidence","1",""
"285.90000009536743","e","choice","left","e","experimental","870","810216","0.0-4.0-8.98","true","99","3.450000000000001","","",""
"3382.300000190735","2","confid","","","html-slider-response","872","814102","0.0-4.0-10.98-0.98","","","","Rate your confidence","1",""
"1270.8000001907349","e","choice","right","i","experimental","879","817165","0.0-4.0-8.99","false","100","3.350000000000001","","",""
"3689.199999809265","2","confid","","","html-slider-response","881","821360","0.0-4.0-10.99-0.99","","","","Rate your confidence","1",""
"482.80000019073486","i","choice","right","i","experimental","888","823636","0.0-4.0-8.100","true","101","3.450000000000001","","",""
"3335.300000190735","2","confid","","","html-slider-response","890","827477","0.0-4.0-10.100-0.100","","","","Rate your confidence","1",""
"84.5","i","choice","left","e","experimental","897","829345","0.0-4.0-8.101","false","102","3.450000000000001","","",""
"3033.0999999046326","2","confid","","","html-slider-response","899","832883","0.0-4.0-10.101-0.101","","","","Rate your confidence","1",""
"478.69999980926514","e","choice","left","e","experimental","906","835156","0.0-4.0-8.102","true","103","3.550000000000001","","",""
"2564.5","2","confid","","","html-slider-response","908","838227","0.0-4.0-10.102-0.102","","","","Rate your confidence","1",""
"56.799999713897705","i","choice","right","i","experimental","915","840068","0.0-4.0-8.103","true","104","3.550000000000001","","",""
"2899.5","2","confid","","","html-slider-response","917","843471","0.0-4.0-10.103-0.103","","","","Rate your confidence","1",""
"886.4000000953674","i","choice","right","i","experimental","924","846139","0.0-4.0-8.104","true","105","3.450000000000001","","",""
"2478.5","3","confid","","","html-slider-response","926","849124","0.0-4.0-10.104-0.104","","","","Rate your confidence","1",""
"840.9000000953674","e","choice","left","e","experimental","933","851753","0.0-4.0-8.105","true","106","3.450000000000001","","",""
"3911.9000000953674","2","confid","","","html-slider-response","935","856177","0.0-4.0-10.105-0.105","","","","Rate your confidence","1",""
"775","i","choice","right","i","experimental","942","858741","0.0-4.0-8.106","true","107","3.350000000000001","","",""
"3564","2","confid","","","html-slider-response","944","862811","0.0-4.0-10.106-0.106","","","","Rate your confidence","1",""
"385.90000009536743","e","choice","left","e","experimental","951","864988","0.0-4.0-8.107","true","108","3.350000000000001","","",""
"3883.5","3","confid","","","html-slider-response","953","869377","0.0-4.0-10.107-0.107","","","","Rate your confidence","1",""
"1243.2000002861023","e","choice","left","e","experimental","960","872415","0.0-4.0-8.108","true","109","3.250000000000001","","",""
"2607.4000000953674","1","confid","","","html-slider-response","962","875528","0.0-4.0-10.108-0.108","","","","Rate your confidence","1",""
"540.6000003814697","i","choice","right","i","experimental","969","877863","0.0-4.0-8.109","true","110","3.250000000000001","","",""
"2767.699999809265","2","confid","","","html-slider-response","971","881143","0.0-4.0-10.109-0.109","","","","Rate your confidence","1",""
"449.7000002861023","e","choice","right","i","experimental","979","1181070","0.0-4.0-8.110","false","111","3.150000000000001","","",""
"3900.0999999046326","1","confid","","","html-slider-response","981","1185475","0.0-4.0-10.110-0.110","","","","Rate your confidence","1",""
"916.7999997138977","i","choice","left","e","experimental","988","1188186","0.0-4.0-8.111","false","112","3.250000000000001","","",""
"2604.9000000953674","1","confid","","","html-slider-response","990","1191296","0.0-4.0-10.111-0.111","","","","Rate your confidence","1",""
"193.40000009536743","e","choice","left","e","experimental","997","1193276","0.0-4.0-8.112","true","113","3.350000000000001","","",""
"2121.4000000953674","2","confid","","","html-slider-response","999","1195903","0.0-4.0-10.112-0.112","","","","Rate your confidence","1",""
"94.80000019073486","i","choice","right","i","experimental","1006","1197783","0.0-4.0-8.113","true","114","3.350000000000001","","",""
"3206.2999997138977","2","confid","","","html-slider-response","1008","1201514","0.0-4.0-10.113-0.113","","","","Rate your confidence","1",""
"571.9000000953674","e","choice","left","e","experimental","1015","1203872","0.0-4.0-8.114","true","115","3.250000000000001","","",""
"3642.2000002861023","2","confid","","","html-slider-response","1017","1208019","0.0-4.0-10.114-0.114","","","","Rate your confidence","1",""
"359.59999990463257","i","choice","right","i","experimental","1024","1210174","0.0-4.0-8.115","true","116","3.250000000000001","","",""
"3932.4000000953674","2","confid","","","html-slider-response","1026","1214612","0.0-4.0-10.115-0.115","","","","Rate your confidence","1",""
"176.40000009536743","i","choice","right","i","experimental","1033","1216574","0.0-4.0-8.116","true","117","3.150000000000001","","",""
"2689.199999809265","1","confid","","","html-slider-response","1035","1219770","0.0-4.0-10.116-0.116","","","","Rate your confidence","1",""
"532.1999998092651","i","choice","left","e","experimental","1042","1222092","0.0-4.0-8.117","false","118","3.150000000000001","","",""
"2382.699999809265","1","confid","","","html-slider-response","1044","1224981","0.0-4.0-10.117-0.117","","","","Rate your confidence","1",""
"319.19999980926514","i","choice","left","e","experimental","1051","1227095","0.0-4.0-8.118","false","119","3.250000000000001","","",""
"3101.3999996185303","1","confid","","","html-slider-response","1053","1230703","0.0-4.0-10.118-0.118","","","","Rate your confidence","1",""
"129.60000038146973","i","choice","right","i","experimental","1060","1232624","0.0-4.0-8.119","true","120","3.350000000000001","","",""
"3113.0999999046326","1","confid","","","html-slider-response","1062","1236242","0.0-4.0-10.119-0.119","","","","Rate your confidence","1",""
"242.59999990463257","e","choice","left","e","experimental","1069","1238281","0.0-4.0-8.120","true","121","3.350000000000001","","",""
"3700.5","1","confid","","","html-slider-response","1071","1242486","0.0-4.0-10.120-0.120","","","","Rate your confidence","1",""
"189.59999990463257","i","choice","right","i","experimental","1078","1244477","0.0-4.0-8.121","true","122","3.250000000000001","","",""
"3279.0999999046326","2","confid","","","html-slider-response","1080","1248262","0.0-4.0-10.121-0.121","","","","Rate your confidence","1",""
"427.90000009536743","i","choice","left","e","experimental","1087","1250473","0.0-4.0-8.122","false","123","3.250000000000001","","",""
"3251.0999999046326","2","confid","","","html-slider-response","1089","1254229","0.0-4.0-10.122-0.122","","","","Rate your confidence","1",""
"495","i","choice","right","i","experimental","1096","1256512","0.0-4.0-8.123","true","124","3.350000000000001","","",""
"3218.3999996185303","3","confid","","","html-slider-response","1098","1260237","0.0-4.0-10.123-0.123","","","","Rate your confidence","1",""
"300.69999980926514","i","choice","right","i","experimental","1105","1262328","0.0-4.0-8.124","true","125","3.350000000000001","","",""
"2321","2","confid","","","html-slider-response","1107","1265153","0.0-4.0-10.124-0.124","","","","Rate your confidence","1",""
"196","i","choice","left","e","experimental","1114","1267139","0.0-4.0-8.125","false","126","3.250000000000001","","",""
"3881.2000002861023","2","confid","","","html-slider-response","1116","1271525","0.0-4.0-10.125-0.125","","","","Rate your confidence","1",""
"887.4000000953674","i","choice","right","i","experimental","1123","1274204","0.0-4.0-8.126","true","127","3.350000000000001","","",""
"3236.9000000953674","2","confid","","","html-slider-response","1125","1277945","0.0-4.0-10.126-0.126","","","","Rate your confidence","1",""
"1948.3000001907349","e","choice","left","e","experimental","1132","1281684","0.0-4.0-8.127","true","128","3.350000000000001","","",""
"3480.2000002861023","3","confid","","","html-slider-response","1134","1285677","0.0-4.0-10.127-0.127","","","","Rate your confidence","1",""
"835.6000003814697","i","choice","right","i","experimental","1141","1288297","0.0-4.0-8.128","true","129","3.250000000000001","","",""
"3619.0999999046326","3","confid","","","html-slider-response","1143","1292422","0.0-4.0-10.128-0.128","","","","Rate your confidence","1",""
"1081.5","i","choice","left","e","experimental","1150","1295290","0.0-4.0-8.129","false","130","3.250000000000001","","",""
"2397.4000000953674","3","confid","","","html-slider-response","1152","1298192","0.0-4.0-10.129-0.129","","","","Rate your confidence","1",""
"639.3999996185303","i","choice","right","i","experimental","1159","1300635","0.0-4.0-8.130","true","131","3.350000000000001","","",""
"2531.4000000953674","3","confid","","","html-slider-response","1161","1303673","0.0-4.0-10.130-0.130","","","","Rate your confidence","1",""
"1398","e","choice","left","e","experimental","1168","1306863","0.0-4.0-8.131","true","132","3.350000000000001","","",""
"2391.5","2","confid","","","html-slider-response","1170","1309774","0.0-4.0-10.131-0.131","","","","Rate your confidence","1",""
"1113.1999998092651","i","choice","left","e","experimental","1177","1312675","0.0-4.0-8.132","false","133","3.250000000000001","","",""
"3254","2","confid","","","html-slider-response","1179","1316440","0.0-4.0-10.132-0.132","","","","Rate your confidence","1",""
"1338.4000000953674","i","choice","right","i","experimental","1186","1319578","0.0-4.0-8.133","true","134","3.350000000000001","","",""
"2417.800000190735","2","confid","","","html-slider-response","1188","1322502","0.0-4.0-10.133-0.133","","","","Rate your confidence","1",""
"1601","i","choice","right","i","experimental","1195","1325901","0.0-4.0-8.134","true","135","3.350000000000001","","",""
"3028.4000000953674","1","confid","","","html-slider-response","1197","1329435","0.0-4.0-10.134-0.134","","","","Rate your confidence","1",""
"1491.0999999046326","e","choice","left","e","experimental","1204","1332721","0.0-4.0-8.135","true","136","3.250000000000001","","",""
"3350","4","confid","","","html-slider-response","1206","1336578","0.0-4.0-10.135-0.135","","","","Rate your confidence","1",""
"1452.7000002861023","e","choice","left","e","experimental","1213","1339818","0.0-4.0-8.136","true","137","3.250000000000001","","",""
"3384.2000002861023","1","confid","","","html-slider-response","1215","1343708","0.0-4.0-10.136-0.136","","","","Rate your confidence","1",""
"1444.6999998092651","e","choice","right","i","experimental","1222","1346955","0.0-4.0-8.137","false","138","3.150000000000001","","",""
"2572.5","1","confid","","","html-slider-response","1224","1350032","0.0-4.0-10.137-0.137","","","","Rate your confidence","1",""
"967.5999999046326","i","choice","left","e","experimental","1231","1352786","0.0-4.0-8.138","false","139","3.250000000000001","","",""
"3025.7999997138977","1","confid","","","html-slider-response","1233","1356318","0.0-4.0-10.138-0.138","","","","Rate your confidence","1",""
"769.0999999046326","i","choice","right","i","experimental","1240","1358881","0.0-4.0-8.139","true","140","3.350000000000001","","",""
"2754.199999809265","1","confid","","","html-slider-response","1242","1362141","0.0-4.0-10.139-0.139","","","","Rate your confidence","1",""
"1008.9000000953674","i","choice","left","e","experimental","1249","1364938","0.0-4.0-8.140","false","141","3.350000000000001","","",""
"4616.400000095367","2","confid","","","html-slider-response","1251","1370059","0.0-4.0-10.140-0.140","","","","Rate your confidence","1",""
"1221.9000000953674","e","choice","right","i","experimental","1258","1373067","0.0-4.0-8.141","false","142","3.450000000000001","","",""
"3378.5","2","confid","","","html-slider-response","1260","1376951","0.0-4.0-10.141-0.141","","","","Rate your confidence","1",""
"1465.6999998092651","i","choice","right","i","experimental","1267","1380216","0.0-4.0-8.142","true","143","3.550000000000001","","",""
"4426","2","confid","","","html-slider-response","1269","1385148","0.0-4.0-10.142-0.142","","","","Rate your confidence","1",""
"756.8999996185303","i","choice","left","e","experimental","1276","1387701","0.0-4.0-8.143","false","144","3.550000000000001","","",""
"2630","2","confid","","","html-slider-response","1278","1390837","0.0-4.0-10.143-0.143","","","","Rate your confidence","1",""
"927.2999997138977","e","choice","right","i","experimental","1285","1393560","0.0-4.0-8.144","false","145","3.6500000000000012","","",""
"2831","1","confid","","","html-slider-response","1287","1396897","0.0-4.0-10.144-0.144","","","","Rate your confidence","1",""
"952","e","choice","left","e","experimental","1294","1399646","0.0-4.0-8.145","true","146","3.7500000000000013","","",""
"3016.5","1","confid","","","html-slider-response","1296","1403169","0.0-4.0-10.145-0.145","","","","Rate your confidence","1",""
"698.5","i","choice","right","i","experimental","1303","1405656","0.0-4.0-8.146","true","147","3.7500000000000013","","",""
"3195.300000190735","1","confid","","","html-slider-response","1305","1409354","0.0-4.0-10.146-0.146","","","","Rate your confidence","1",""
"996.4000000953674","e","choice","left","e","experimental","1312","1412142","0.0-4.0-8.147","true","148","3.6500000000000012","","",""
"3048.2000002861023","1","confid","","","html-slider-response","1314","1415696","0.0-4.0-10.147-0.147","","","","Rate your confidence","1",""
"839.9000000953674","e","choice","left","e","experimental","1321","1418335","0.0-4.0-8.148","true","149","3.6500000000000012","","",""
"3657.4000000953674","2","confid","","","html-slider-response","1323","1422498","0.0-4.0-10.148-0.148","","","","Rate your confidence","1",""
"903.5999999046326","i","choice","right","i","experimental","1330","1425200","0.0-4.0-8.149","true","150","3.550000000000001","","",""
"3420.199999809265","2","confid","","","html-slider-response","1332","1429127","0.0-4.0-10.149-0.149","","","","Rate your confidence","1",""
"1446.3000001907349","e","choice","left","e","experimental","1339","1432364","0.0-4.0-8.150","true","151","3.550000000000001","","",""
"2385.800000190735","2","confid","","","html-slider-response","1341","1435270","0.0-4.0-10.150-0.150","","","","Rate your confidence","1",""
"701.5","i","choice","right","i","experimental","1348","1437768","0.0-4.0-8.151","true","152","3.450000000000001","","",""
"2650.5999999046326","2","confid","","","html-slider-response","1350","1440924","0.0-4.0-10.151-0.151","","","","Rate your confidence","1",""
"892.0999999046326","i","choice","left","e","experimental","1358","1445395","0.0-4.0-8.152","false","153","3.450000000000001","","",""
"3533","1","confid","","","html-slider-response","1360","1449432","0.0-4.0-10.152-0.152","","","","Rate your confidence","1",""
"776.5999999046326","i","choice","right","i","experimental","1367","1451995","0.0-4.0-8.153","true","154","3.550000000000001","","",""
"2601.300000190735","2","confid","","","html-slider-response","1369","1455103","0.0-4.0-10.153-0.153","","","","Rate your confidence","1",""
"787.3000001907349","i","choice","left","e","experimental","1376","1457682","0.0-4.0-8.154","false","155","3.550000000000001","","",""
"3561.699999809265","2","confid","","","html-slider-response","1378","1461750","0.0-4.0-10.154-0.154","","","","Rate your confidence","1",""
"820.2000002861023","i","choice","right","i","experimental","1385","1464365","0.0-4.0-8.155","true","156","3.6500000000000012","","",""
"2366.9000000953674","2","confid","","","html-slider-response","1387","1467238","0.0-4.0-10.155-0.155","","","","Rate your confidence","1",""
"1414.1999998092651","e","choice","left","e","experimental","1394","1470445","0.0-4.0-8.156","true","157","3.6500000000000012","","",""
"3247.7999997138977","1","confid","","","html-slider-response","1396","1474198","0.0-4.0-10.156-0.156","","","","Rate your confidence","1",""
"2396","i","choice","right","i","experimental","1403","1478391","0.0-4.0-8.157","true","158","3.550000000000001","","",""
"2595.8999996185303","3","confid","","","html-slider-response","1405","1481493","0.0-4.0-10.157-0.157","","","","Rate your confidence","1",""
"1087.3000001907349","e","choice","left","e","experimental","1412","1484369","0.0-4.0-8.158","true","159","3.550000000000001","","",""
"5134.5","2","confid","","","html-slider-response","1414","1490010","0.0-4.0-10.158-0.158","","","","Rate your confidence","1",""
"639","i","choice","right","i","experimental","1421","1492448","0.0-4.0-8.159","true","160","3.450000000000001","","",""
"2316.800000190735","2","confid","","","html-slider-response","1423","1495269","0.0-4.0-10.159-0.159","","","","Rate your confidence","1",""
"1138.2999997138977","e","choice","left","e","experimental","1430","1498208","0.0-4.0-8.160","true","161","3.450000000000001","","",""
"3610.2999997138977","1","confid","","","html-slider-response","1432","1502324","0.0-4.0-10.160-0.160","","","","Rate your confidence","1",""
"1774","i","choice","right","i","experimental","1439","1505891","0.0-4.0-8.161","true","162","3.350000000000001","","",""
"3192.8999996185303","2","confid","","","html-slider-response","1441","1509589","0.0-4.0-10.161-0.161","","","","Rate your confidence","1",""
"852.6999998092651","e","choice","left","e","experimental","1448","1512234","0.0-4.0-8.162","true","163","3.350000000000001","","",""
"2932.2000002861023","4","confid","","","html-slider-response","1450","1515671","0.0-4.0-10.162-0.162","","","","Rate your confidence","1",""
"961.6000003814697","i","choice","right","i","experimental","1457","1518421","0.0-4.0-8.163","true","164","3.250000000000001","","",""
"3757.699999809265","2","confid","","","html-slider-response","1459","1522685","0.0-4.0-10.163-0.163","","","","Rate your confidence","1",""
"738.2999997138977","e","choice","right","i","experimental","1466","1525217","0.0-4.0-8.164","false","165","3.250000000000001","","",""
"2654","2","confid","","","html-slider-response","1468","1528374","0.0-4.0-10.164-0.164","","","","Rate your confidence","1",""
"819.5999999046326","e","choice","left","e","experimental","1475","1530986","0.0-4.0-8.165","true","166","3.350000000000001","","",""
"2437.5","1","confid","","","html-slider-response","1477","1533930","0.0-4.0-10.165-0.165","","","","Rate your confidence","1",""
"2330.800000190735","i","choice","left","e","experimental","1484","1538053","0.0-4.0-8.166","false","167","3.350000000000001","","",""
"2582.5","1","confid","","","html-slider-response","1486","1541142","0.0-4.0-10.166-0.166","","","","Rate your confidence","1",""
"783.0999999046326","i","choice","right","i","experimental","1493","1543713","0.0-4.0-8.167","true","168","3.450000000000001","","",""
"3453.5999999046326","2","confid","","","html-slider-response","1495","1547673","0.0-4.0-10.167-0.167","","","","Rate your confidence","1",""
"1088.8000001907349","e","choice","left","e","experimental","1502","1550556","0.0-4.0-8.168","true","169","3.450000000000001","","",""
"5036.199999809265","2","confid","","","html-slider-response","1504","1556098","0.0-4.0-10.168-0.168","","","","Rate your confidence","1",""
"800.2999997138977","i","choice","right","i","experimental","1511","1558694","0.0-4.0-8.169","true","170","3.350000000000001","","",""
"3243.0999999046326","2","confid","","","html-slider-response","1513","1562444","0.0-4.0-10.169-0.169","","","","Rate your confidence","1",""
"697.1999998092651","i","choice","left","e","experimental","1520","1564932","0.0-4.0-8.170","false","171","3.350000000000001","","",""
"2455.5999999046326","1","confid","","","html-slider-response","1522","1567893","0.0-4.0-10.170-0.170","","","","Rate your confidence","1",""
"947.4000000953674","e","choice","right","i","experimental","1529","1570636","0.0-4.0-8.171","false","172","3.450000000000001","","",""
"2923.9000000953674","1","confid","","","html-slider-response","1531","1574066","0.0-4.0-10.171-0.171","","","","Rate your confidence","1",""
"777","e","choice","right","i","experimental","1538","1576636","0.0-4.0-8.172","false","173","3.550000000000001","","",""
"3250.7999997138977","2","confid","","","html-slider-response","1540","1580393","0.0-4.0-10.172-0.172","","","","Rate your confidence","1",""
"904.5","e","choice","left","e","experimental","1547","1583084","0.0-4.0-8.173","true","174","3.6500000000000012","","",""
"3180.800000190735","3","confid","","","html-slider-response","1549","1586771","0.0-4.0-10.173-0.173","","","","Rate your confidence","1",""
"1649.0999999046326","e","choice","left","e","experimental","1556","1590213","0.0-4.0-8.174","true","175","3.6500000000000012","","",""
"4004.199999809265","2","confid","","","html-slider-response","1558","1594723","0.0-4.0-10.174-0.174","","","","Rate your confidence","1",""
"399.7000002861023","i","choice","right","i","experimental","1565","1596913","0.0-4.0-8.175","true","176","3.550000000000001","","",""
"3754.199999809265","2","confid","","","html-slider-response","1567","1601174","0.0-4.0-10.175-0.175","","","","Rate your confidence","1",""
"418.09999990463257","e","choice","left","e","experimental","1574","1603379","0.0-4.0-8.176","true","177","3.550000000000001","","",""
"2791.5999999046326","3","confid","","","html-slider-response","1576","1606677","0.0-4.0-10.176-0.176","","","","Rate your confidence","1",""
"842.8000001907349","i","choice","right","i","experimental","1583","1609321","0.0-4.0-8.177","true","178","3.450000000000001","","",""
"3069.7999997138977","1","confid","","","html-slider-response","1585","1612897","0.0-4.0-10.177-0.177","","","","Rate your confidence","1",""
"607.4000000953674","i","choice","right","i","experimental","1592","1615300","0.0-4.0-8.178","true","179","3.450000000000001","","",""
"3489.800000190735","1","confid","","","html-slider-response","1594","1619294","0.0-4.0-10.178-0.178","","","","Rate your confidence","1",""
"1274","i","choice","left","e","experimental","1601","1622373","0.0-4.0-8.179","false","180","3.350000000000001","","",""
"3053.0999999046326","1","confid","","","html-slider-response","1603","1625932","0.0-4.0-10.179-0.179","","","","Rate your confidence","1",""
"1090.5","e","choice","right","i","experimental","1610","1628814","0.0-4.0-8.180","false","181","3.450000000000001","","",""
"2543.4000000953674","1","confid","","","html-slider-response","1612","1631864","0.0-4.0-10.180-0.180","","","","Rate your confidence","1",""
"935.5999999046326","e","choice","left","e","experimental","1619","1634588","0.0-4.0-8.181","true","182","3.550000000000001","","",""
"3180.199999809265","1","confid","","","html-slider-response","1621","1638274","0.0-4.0-10.181-0.181","","","","Rate your confidence","1",""
"710.6999998092651","i","choice","right","i","experimental","1628","1640779","0.0-4.0-8.182","true","183","3.550000000000001","","",""
"3676.199999809265","2","confid","","","html-slider-response","1630","1644961","0.0-4.0-10.182-0.182","","","","Rate your confidence","1",""
"1041.5999999046326","e","choice","left","e","experimental","1637","1647787","0.0-4.0-8.183","true","184","3.450000000000001","","",""
"3359.7000002861023","2","confid","","","html-slider-response","1639","1651663","0.0-4.0-10.183-0.183","","","","Rate your confidence","1",""
"648.7999997138977","i","choice","left","e","experimental","1646","1654111","0.0-4.0-8.184","false","185","3.450000000000001","","",""
"2236.4000000953674","2","confid","","","html-slider-response","1648","1656857","0.0-4.0-10.184-0.184","","","","Rate your confidence","1",""
"586.3000001907349","i","choice","right","i","experimental","1655","1659233","0.0-4.0-8.185","true","186","3.550000000000001","","",""
"2087.300000190735","2","confid","","","html-slider-response","1657","1661833","0.0-4.0-10.185-0.185","","","","Rate your confidence","1",""
"685.1000003814697","i","choice","left","e","experimental","1664","1664320","0.0-4.0-8.186","false","187","3.550000000000001","","",""
"2381.8999996185303","2","confid","","","html-slider-response","1666","1667208","0.0-4.0-10.186-0.186","","","","Rate your confidence","1",""
"1654","e","choice","right","i","experimental","1673","1670665","0.0-4.0-8.187","false","188","3.6500000000000012","","",""
"2147.5","1","confid","","","html-slider-response","1675","1673319","0.0-4.0-10.187-0.187","","","","Rate your confidence","1",""
"840.4000000953674","i","choice","right","i","experimental","1682","1675964","0.0-4.0-8.188","true","189","3.7500000000000013","","",""
"1931.9000000953674","3","confid","","","html-slider-response","1684","1678401","0.0-4.0-10.188-0.188","","","","Rate your confidence","1",""
"2426.5999999046326","e","choice","left","e","experimental","1691","1682622","0.0-4.0-8.189","true","190","3.7500000000000013","","",""
"3530.5999999046326","1","confid","","","html-slider-response","1693","1686658","0.0-4.0-10.189-0.189","","","","Rate your confidence","1",""
"1095.1999998092651","e","choice","right","i","experimental","1700","1689546","0.0-4.0-8.190","false","191","3.6500000000000012","","",""
"2153.7000002861023","1","confid","","","html-slider-response","1702","1692206","0.0-4.0-10.190-0.190","","","","Rate your confidence","1",""
"1016.9000000953674","e","choice","left","e","experimental","1709","1695026","0.0-4.0-8.191","true","192","3.7500000000000013","","",""
"2305.5","2","confid","","","html-slider-response","1711","1697836","0.0-4.0-10.191-0.191","","","","Rate your confidence","1",""
"1250.0999999046326","e","choice","left","e","experimental","1718","1700881","0.0-4.0-8.192","true","193","3.7500000000000013","","",""
"3678.199999809265","2","confid","","","html-slider-response","1720","1705064","0.0-4.0-10.192-0.192","","","","Rate your confidence","1",""
"1945","i","choice","right","i","experimental","1727","1708809","0.0-4.0-8.193","true","194","3.6500000000000012","","",""
"2299.5","1","confid","","","html-slider-response","1729","1711614","0.0-4.0-10.193-0.193","","","","Rate your confidence","1","86620"
