"rt","response","task","target_side","correct_response","trial_type","trial_index","time_elapsed","internal_node_id","correct","trial_number","n_dots","stimulus","slider_start","participant"
"910","e","choice","left","e","practice","10","33656","0.0-4.0-8.0","true","1","4.25","","",""
"311","i","choice","right","i","practice","18","36322","0.0-4.0-8.1","true","2","4.25","","",""
"192","i","choice","right","i","practice","26","38878","0.0-4.0-8.2","true","3","3.85","","",""
"190","e","choice","left","e","practice","34","41427","0.0-4.0-8.3","true","4","3.85","","",""
"5628","e","choice","left","e","practice","42","49441","0.0-4.0-8.4","true","5","3.45","","",""
"672","i","choice","right","i","practice","50","52456","0.0-4.0-8.5","true","6","3.45","","",""
"864","e","choice","left","e","practice","58","55698","0.0-4.0-8.6","true","7","3.25","","",""
"485","e","choice","right","i","practice","66","58544","0.0-4.0-8.7","false","8","3.25","","",""
"458","e","choice","left","e","practice","74","61357","0.0-4.0-8.8","true","9","3.45","","",""
"136","i","choice","right","i","practice","82","63853","0.0-4.0-8.9","true","10","3.45","","",""
"2243","i","choice","left","e","practice","90","68420","0.0-4.0-8.10","false","11","3.25","","",""
"211","i","choice","right","i","practice","98","70992","0.0-4.0-8.11","true","12","3.35","","",""
"242","i","choice","right","i","practice","106","73587","0.0-4.0-8.12","true","13","3.35","","",""
"598","i","choice","left","e","practice","114","76549","0.0-4.0-8.13","false","14","3.25","","",""
"595","e","choice","right","i","practice","122","79515","0.0-4.0-8.14","false","15","3.35","","",""
"563","e","choice","left","e","practice","130","82409","0.0-4.0-8.15","true","16","3.45","","",""
"19405","i","choice","right","i","practice","138","104153","0.0-4.0-8.16","true","17","3.45","","",""
"393","e","choice","left","e","practice","146","106873","0.0-4.0-8.17","true","18","3.35","","",""
"333","i","choice","right","i","practice","154","109560","0.0-4.0-8.18","true","19","3.35","","",""
"1662","i","choice","left","e","practice","162","113561","0.0-4.0-8.19","false","20","3.25","","",""
"2053","i","choice","left","e","practice","170","117996","0.0-4.0-8.20","false","21","3.35","","",""
"307","i","choice","right","i","practice","178","120639","0.0-4.0-8.21","true","22","3.45","","",""
"304","i","choice","left","e","practice","186","123314","0.0-4.0-8.22","false","23","3.45","","",""
"375","e","choice","right","i","practice","194","126014","0.0-4.0-8.23","false","24","3.5500000000000003","","",""
"164","e","choice","left","e","practice","202","128525","0.0-4.0-8.24","true","25","3.6500000000000004","","",""
"211","i","choice","right","i","practice","210","131066","0.0-4.0-8.25","true","26","3.6500000000000004","","",""
"545","e","choice","right","i","experimental","221","146757","0.0-4.0-8.26","false","27","3.5500000000000003","","",""
"3652","4","confid","","","html-slider-response","223","150924","0.0-4.0-10.26-0.26","","","","Rate your confidence","1",""
"512","e","choice","left","e","experimental","230","153264","0.0-4.0-8.27","true","28","3.6500000000000004","","",""
"2061","5","confid","","","html-slider-response","232","155834","0.0-4.0-10.27-0.27","","","","Rate your confidence","1",""
"729","i","choice","right","i","experimental","239","158378","0.0-4.0-8.28","true","29","3.6500000000000004","","",""
"3109","3","confid","","","html-slider-response","241","162003","0.0-4.0-10.28-0.28","","","","Rate your confidence","1",""
"699","i","choice","left","e","experimental","248","164562","0.0-4.0-8.29","false","30","3.5500000000000003","","",""
"2240","5","confid","","","html-slider-response","250","167319","0.0-4.0-10.29-0.29","","","","Rate your confidence","1",""
"689","i","choice","left","e","experimental","257","169881","0.0-4.0-8.30","false","31","3.6500000000000004","","",""
"2251","4","confid","","","html-slider-response","259","172648","0.0-4.0-10.30-0.30","","","","Rate your confidence","1",""
"731","e","choice","right","i","experimental","266","175204","0.0-4.0-8.31","false","32","3.7500000000000004","","",""
"4680","4","confid","","","html-slider-response","268","180397","0.0-4.0-10.31-0.31","","","","Rate your confidence","1",""
"900","i","choice","right","i","experimental","275","183142","0.0-4.0-8.32","true","33","3.8500000000000005","","",""
"3525","4","confid","","","html-slider-response","277","187176","0.0-4.0-10.32-0.32","","","","Rate your confidence","1",""
"822","e","choice","left","e","experimental","284","189829","0.0-4.0-8.33","true","34","3.8500000000000005","","",""
"2557","5","confid","","","html-slider-response","286","192889","0.0-4.0-10.33-0.33","","","","Rate your confidence","1",""
"1078","i","choice","right","i","experimental","293","195822","0.0-4.0-8.34","true","35","3.7500000000000004","","",""
"4396","5","confid","","","html-slider-response","295","200735","0.0-4.0-10.34-0.34","","","","Rate your confidence","1",""
"11294","i","choice","left","e","experimental","302","213866","0.0-4.0-8.35","false","36","3.7500000000000004","","",""
"3272","5","confid","","","html-slider-response","304","217654","0.0-4.0-10.35-0.35","","","","Rate your confidence","1",""
"354","e","choice","left","e","experimental","311","219867","0.0-4.0-8.36","true","37","3.8500000000000005","","",""
"2253","4","confid","","","html-slider-response","313","222626","0.0-4.0-10.36-0.36","","","","Rate your confidence","1",""
"465","i","choice","right","i","experimental","320","224944","0.0-4.0-8.37","true","38","3.8500000000000005","","",""
"1744","5","confid","","","html-slider-response","322","227195","0.0-4.0-10.37-0.37","","","","Rate your confidence","1",""
"18315","i","choice","left","e","experimental","329","247369","0.0-4.0-8.38","false","39","3.7500000000000004","","",""
"2656","4","confid","","","html-slider-response","331","250539","0.0-4.0-10.38-0.38","","","","Rate your confidence","1",""
"979","e","choice","right","i","experimental","338","253338","0.0-4.0-8.39","false","40","3.8500000000000005","","",""
"2416","4","confid","","","html-slider-response","340","256266","0.0-4.0-10.39-0.39","","","","Rate your confidence","1",""
"1927","i","choice","right","i","experimental","347","260033","0.0-4.0-8.40","true","41","3.9500000000000006","","",""
"3082","4","confid","","","html-slider-response","349","263631","0.0-4.0-10.40-0.40","","","","Rate your confidence","1",""
"487","e","choice","left","e","experimental","356","265967","0.0-4.0-8.41","true","42","3.9500000000000006","","",""
"3310","5","confid","","","html-slider-response","358","269780","0.0-4.0-10.41-0.41","","","","Rate your confidence","1",""
"583","e","choice","left","e","experimental","365","272190","0.0-4.0-8.42","true","43","3.8500000000000005","","",""
"5814","5","confid","","","html-slider-response","367","278521","0.0-4.0-10.42-0.42","","","","Rate your confidence","1",""
"537","e","choice","right","i","experimental","374","280892","0.0-4.0-8.43","false","44","3.8500000000000005","","",""
"2515","5","confid","","","html-slider-response","376","283916","0.0-4.0-10.43-0.43","","","","Rate your confidence","1",""
"283","i","choice","right","i","experimental","383","286003","0.0-4.0-8.44","true","45","3.9500000000000006","","",""
"2286","6","confid","","","html-slider-response","385","288798","0.0-4.0-10.44-0.44","","","","Rate your confidence","1",""
"466","e","choice","left","e","experimental","392","291116","0.0-4.0-8.45","true","46","3.9500000000000006","","",""
"2400","4","confid","","","html-slider-response","394","294034","0.0-4.0-10.45-0.45","","","","Rate your confidence","1",""
"830","i","choice","right","i","experimental","401","296744","0.0-4.0-8.46","true","47","3.8500000000000005","","",""
"1862","5","confid","","","html-slider-response","403","299114","0.0-4.0-10.46-0.46","","","","Rate your confidence","1",""
"450","e","choice","left","e","experimental","410","301404","0.0-4.0-8.47","true","48","3.8500000000000005","","",""
"1529","5","confid","","","html-slider-response","412","303439","0.0-4.0-10.47-0.47","","","","Rate your confidence","1",""
"349","e","choice","left","e","experimental","419","305623","0.0-4.0-8.48","true","49","3.7500000000000004","","",""
"1651","4","confid","","","html-slider-response","421","307787","0.0-4.0-10.48-0.48","","","","Rate your confidence","1",""
"550","i","choice","right","i","experimental","428","310151","0.0-4.0-8.49","true","50","3.7500000000000004","","",""
"2019","5","confid","","","html-slider-response","430","312689","0.0-4.0-10.49-0.49","","","","Rate your confidence","1",""
"510","i","choice","right","i","experimental","437","315051","0.0-4.0-8.50","true","51","3.6500000000000004","","",""
"1588","4","confid","","","html-slider-response","439","317150","0.0-4.0-10.50-0.50","","","","Rate your confidence","1",""
"374","e","choice","left","e","experimental","446","319354","0.0-4.0-8.51","true","52","3.6500000000000004","","",""
"2218","5","confid","","","html-slider-response","448","322081","0.0-4.0-10.51-0.51","","","","Rate your confidence","1",""
"1326","i","choice","left","e","experimental","455","325247","0.0-4.0-8.52","false","53","3.5500000000000003","","",""
"2089","5","confid","","","html-slider-response","457","327855","0.0-4.0-10.52-0.52","","","","Rate your confidence","1",""
"335","e","choice","right","i","experimental","464","330035","0.0-4.0-8.53","false","54","3.6500000000000004","","",""
"1841","5","confid","","","html-slider-response","466","332388","0.0-4.0-10.53-0.53","","","","Rate your confidence","1",""
"285","e","choice","left","e","experimental","473","334492","0.0-4.0-8.54","true","55","3.7500000000000004","","",""
"2398","5","confid","","","html-slider-response","475","337405","0.0-4.0-10.54-0.54","","","","Rate your confidence","1",""
"870","i","choice","right","i","experimental","482","340087","0.0-4.0-8.55","true","56","3.7500000000000004","","",""
"2042","4","confid","","","html-slider-response","484","342639","0.0-4.0-10.55-0.55","","","","Rate your confidence","1",""
"1405","e","choice","left","e","experimental","491","345878","0.0-4.0-8.56","true","57","3.6500000000000004","","",""
"1998","5","confid","","","html-slider-response","493","348380","0.0-4.0-10.56-0.56","","","","Rate your confidence","1",""
"271","i","choice","right","i","experimental","500","350506","0.0-4.0-8.57","true","58","3.6500000000000004","","",""
"1632","5","confid","","","html-slider-response","502","352650","0.0-4.0-10.57-0.57","","","","Rate your confidence","1",""
"465","e","choice","left","e","experimental","509","354979","0.0-4.0-8.58","true","59","3.5500000000000003","","",""
"1220","5","confid","","","html-slider-response","511","356706","0.0-4.0-10.58-0.58","","","","Rate your confidence","1",""
"579","i","choice","right","i","experimental","518","359146","0.0-4.0-8.59","true","60","3.5500000000000003","","",""
"1718","5","confid","","","html-slider-response","520","361381","0.0-4.0-10.59-0.59","","","","Rate your confidence","1",""
"275","e","choice","left","e","experimental","527","363500","0.0-4.0-8.60","true","61","3.45","","",""
"1744","5","confid","","","html-slider-response","529","365750","0.0-4.0-10.60-0.60","","","","Rate your confidence","1",""
"429","i","choice","right","i","experimental","536","368022","0.0-4.0-8.61","true","62","3.45","","",""
"1923","5","confid","","","html-slider-response","538","370461","0.0-4.0-10.61-0.61","","","","Rate your confidence","1",""
"293","i","choice","right","i","experimental","545","372575","0.0-4.0-8.62","true","63","3.35","","",""
"2465","5","confid","","","html-slider-response","547","375551","0.0-4.0-10.62-0.62","","","","Rate your confidence","1",""
"963","i","choice","left","e","experimental","554","378320","0.0-4.0-8.63","false","64","3.35","","",""
"2210","4","confid","","","html-slider-response","556","381039","0.0-4.0-10.63-0.63","","","","Rate your confidence","1",""
"522","i","choice","right","i","experimental","563","383381","0.0-4.0-8.64","true","65","3.45","","",""
"2747","4","confid","","","html-slider-response","565","386646","0.0-4.0-10.64-0.64","","","","Rate your confidence","1",""
"322","e","choice","left","e","experimental","572","388827","0.0-4.0-8.65","true","66","3.45","","",""
"2235","5","confid","","","html-slider-response","574","391576","0.0-4.0-10.65-0.65","","","","Rate your confidence","1",""
"358","e","choice","left","e","experimental","581","393772","0.0-4.0-8.66","true","67","3.35","","",""
"1824","4","confid","","","html-slider-response","583","396100","0.0-4.0-10.66-0.66","","","","Rate your confidence","1",""
"386","i","choice","right","i","experimental","590","398314","0.0-4.0-8.67","true","68","3.35","","",""
"1415","5","confid","","","html-slider-response","592","400236","0.0-4.0-10.67-0.67","","","","Rate your confidence","1",""
"76","i","choice","right","i","experimental","600","426861","0.0-4.0-8.68","true","69","3.25","","",""
"2641","5","confid","","","html-slider-response","602","430006","0.0-4.0-10.68-0.68","","","","Rate your confidence","1",""
"460","e","choice","left","e","experimental","609","432323","0.0-4.0-8.69","true","70","3.25","","",""
"1664","4","confid","","","html-slider-response","611","434496","0.0-4.0-10.69-0.69","","","","Rate your confidence","1",""
"362","i","choice","right","i","experimental","618","436690","0.0-4.0-8.70","true","71","3.15","","",""
"4888","5","confid","","","html-slider-response","620","442084","0.0-4.0-10.70-0.70","","","","Rate your confidence","1",""
"4287","i","choice","left","e","experimental","627","448224","0.0-4.0-8.71","false","72","3.15","","",""
"2788","5","confid","","","html-slider-response","629","451528","0.0-4.0-10.71-0.71","","","","Rate your confidence","1",""
"858","e","choice","left","e","experimental","636","454247","0.0-4.0-8.72","true","73","3.25","","",""
"2528","4","confid","","","html-slider-response","638","457282","0.0-4.0-10.72-0.72","","","","Rate your confidence","1",""
"2130","i","choice","right","i","experimental","645","461235","0.0-4.0-8.73","true","74","3.25","","",""
"3211","4","confid","","","html-slider-response","647","464952","0.0-4.0-10.73-0.73","","","","Rate your confidence","1",""
"315","e","choice","left","e","experimental","654","467113","0.0-4.0-8.74","true","75","3.15","","",""
"2475","5","confid","","","html-slider-response","656","470107","0.0-4.0-10.74-0.74","","","","Rate your confidence","1",""
"493","e","choice","right","i","experimental","663","472456","0.0-4.0-8.75","false","76","3.15","","",""
"3588","4","confid","","","html-slider-response","665","476555","0.0-4.0-10.75-0.75","","","","Rate your confidence","1",""
"440","e","choice","left","e","experimental","672","478844","0.0-4.0-8.76","true","77","3.25","","",""
"2379","5","confid","","","html-slider-response","674","481733","0.0-4.0-10.76-0.76","","","","Rate your confidence","1",""
"641","e","choice","right","i","experimental","681","484255","0.0-4.0-8.77","false","78","3.25","","",""
"2595","4","confid","","","html-slider-response","683","487364","0.0-4.0-10.77-0.77","","","","Rate your confidence","1",""
"455","i","choice","left","e","experimental","690","489686","0.0-4.0-8.78","false","79","3.35","","",""
"2497","3","confid","","","html-slider-response","692","492698","0.0-4.0-10.78-0.78","","","","Rate your confidence","1",""
"477","i","choice","right","i","experimental","699","495030","0.0-4.0-8.79","true","80","3.45","","",""
"2147","3","confid","","","html-slider-response","701","497681","0.0-4.0-10.79-0.79","","","","Rate your confidence","1",""
"883","i","choice","left","e","experimental","708","500386","0.0-4.0-8.80","false","81","3.45","","",""
"2373","3","confid","","","html-slider-response","710","503273","0.0-4.0-10.80-0.80","","","","Rate your confidence","1",""
"595","i","choice","right","i","experimental","717","505713","0.0-4.0-8.81","true","82","3.5500000000000003","","",""
"2086","3","confid","","","html-slider-response","719","508303","0.0-4.0-10.81-0.81","","","","Rate your confidence","1",""
"394","i","choice","left","e","experimental","726","510529","0.0-4.0-8.82","false","83","3.5500000000000003","","",""
"2047","5","confid","","","html-slider-response","728","513093","0.0-4.0-10.82-0.82","","","","Rate your confidence","1",""
"681","i","choice","right","i","experimental","735","515599","0.0-4.0-8.83","true","84","3.6500000000000004","","",""
"2013","5","confid","","","html-slider-response","737","518115","0.0-4.0-10.83-0.83","","","","Rate your confidence","1",""
"337","e","choice","left","e","experimental","744","520274","0.0-4.0-8.84","true","85","3.6500000000000004","","",""
"2046","5","confid","","","html-slider-response","746","522832","0.0-4.0-10.84-0.84","","","","Rate your confidence","1",""
"325","i","choice","right","i","experimental","753","525006","0.0-4.0-8.85","true","86","3.5500000000000003","","",""
"2275","4","confid","","","html-slider-response","755","527785","0.0-4.0-10.85-0.85","","","","Rate your confidence","1",""
"297","e","choice","left","e","experimental","762","529896","0.0-4.0-8.86","true","87","3.5500000000000003","","",""
"2232","4","confid","","","html-slider-response","764","532644","0.0-4.0-10.86-0.86","","","","Rate your confidence","1",""
"312","i","choice","right","i","experimental","771","534805","0.0-4.0-8.87","true","88","3.45","","",""
"3486","5","confid","","","html-slider-response","773","538796","0.0-4.0-10.87-0.87","","","","Rate your confidence","1",""
"3132","e","choice","left","e","experimental","780","543782","0.0-4.0-8.88","true","89","3.45","","",""
"1955","4","confid","","","html-slider-response","782","546249","0.0-4.0-10.88-0.88","","","","Rate your confidence","1",""
"5769","e","choice","right","i","experimental","789","553866","0.0-4.0-8.89","false","90","3.35","","",""
"2892","5","confid","","","html-slider-response","791","557270","0.0-4.0-10.89-0.89","","","","Rate your confidence","1",""
"653","i","choice","right","i","experimental","798","559775","0.0-4.0-8.90","true","91","3.45","","",""
"1924","5","confid","","","html-slider-response","800","562216","0.0-4.0-10.90-0.90","","","","Rate your confidence","1",""
"559","e","choice","left","e","experimental","807","564647","0.0-4.0-8.91","true","92","3.45","","",""
"2843","4","confid","","","html-slider-response","809","567997","0.0-4.0-10.91-0.91","","","","Rate your confidence","1",""
"603","i","choice","left","e","experimental","816","570462","0.0-4.0-8.92","false","93","3.35","","",""
"1653","5","confid","","","html-slider-response","818","572628","0.0-4.0-10.92-0.92","","","","Rate your confidence","1",""
"773","i","choice","right","i","experimental","825","575252","0.0-4.0-8.93","true","94","3.45","","",""
"1893","5","confid","","","html-slider-response","827","577653","0.0-4.0-10.93-0.93","","","","Rate your confidence","1",""
"182","e","choice","right","i","experimental","834","579696","0.0-4.0-8.94","false","95","3.45","","",""
"2716","4","confid","","","html-slider-response","836","582917","0.0-4.0-10.94-0.94","","","","Rate your confidence","1",""
"642","i","choice","left","e","experimental","843","585420","0.0-4.0-8.95","false","96","3.5500000000000003","","",""
"1878","5","confid","","","html-slider-response","845","587811","0.0-4.0-10.95-0.95","","","","Rate your confidence","1",""
"661","i","choice","left","e","experimental","852","590305","0.0-4.0-8.96","false","97","3.6500000000000004","","",""
"2312","4","confid","","","html-slider-response","854","593122","0.0-4.0-10.96-0.96","","","","Rate your confidence","1",""
"114","i","choice","right","i","experimental","861","595091","0.0-4.0-8.97","true","98","3.7500000000000004","","",""
"2186","5","confid","","","html-slider-response","863","597787","0.0-4.0-10.97-0.97","","","","Rate your confidence","1",""
"885","i","choice","right","i","experimental","870","600542","0.0-4.0-8.98","true","99","3.7500000000000004","","",""
"2190","5","confid","","","html-slider-response","872","603237","0.0-4.0-10.98-0.98","","","","Rate your confidence","1",""
"312","e","choice","left","e","experimental","879","605397","0.0-4.0-8.99","true","100","3.6500000000000004","","",""
"3023","5","confid","","","html-slider-response","881","608935","0.0-4.0-10.99-0.99","","","","Rate your confidence","1",""
"111","e","choice","left","e","experimental","888","610876","0.0-4.0-8.100","true","101","3.6500000000000004","","",""
"2707","5","confid","","","html-slider-response","890","614096","0.0-4.0-10.100-0.100","","","","Rate your confidence","1",""
"448","i","choice","right","i","experimental","897","616422","0.0-4.0-8.101","true","102","3.5500000000000003","","",""
"1917","4","confid","","","html-slider-response","899","618846","0.0-4.0-10.101-0.101","","","","Rate your confidence","1",""
"389","e","choice","left","e","experimental","906","621087","0.0-4.0-8.102","true","103","3.5500000000000003","","",""
"2233","5","confid","","","html-slider-response","908","623826","0.0-4.0-10.102-0.102","","","","Rate your confidence","1",""
"259","i","choice","right","i","experimental","915","625944","0.0-4.0-8.103","true","104","3.45","","",""
"2128","5","confid","","","html-slider-response","917","628581","0.0-4.0-10.103-0.103","","","","Rate your confidence","1",""
"801","i","choice","right","i","experimental","924","631235","0.0-4.0-8.104","true","105","3.45","","",""
"6215","5","confid","","","html-slider-response","926","637960","0.0-4.0-10.104-0.104","","","","Rate your confidence","1",""
"2266","e","choice","left","e","experimental","933","642050","0.0-4.0-8.105","true","106","3.35","","",""
"3074","5","confid","","","html-slider-response","935","645632","0.0-4.0-10.105-0.105","","","","Rate your confidence","1",""
"741","i","choice","right","i","experimental","942","648240","0.0-4.0-8.106","true","107","3.35","","",""
"2471","4","confid","","","html-slider-response","944","651222","0.0-4.0-10.106-0.106","","","","Rate your confidence","1",""
"245","e","choice","left","e","experimental","951","653317","0.0-4.0-8.107","true","108","3.25","","",""
"2121","5","confid","","","html-slider-response","953","655948","0.0-4.0-10.107-0.107","","","","Rate your confidence","1",""
"338","i","choice","left","e","experimental","960","658133","0.0-4.0-8.108","false","109","3.25","","",""
"2965","4","confid","","","html-slider-response","962","661608","0.0-4.0-10.108-0.108","","","","Rate your confidence","1",""
"703","i","choice","right","i","experimental","969","664162","0.0-4.0-8.109","true","110","3.35","","",""
"2738","3","confid","","","html-slider-response","971","667406","0.0-4.0-10.109-0.109","","","","Rate your confidence","1",""
"333","i","choice","left","e","experimental","979","671095","0.0-4.0-8.110","false","111","3.35","","",""
"2017","5","confid","","","html-slider-response","981","673621","0.0-4.0-10.110-0.110","","","","Rate your confidence","1",""
"663","i","choice","right","i","experimental","988","676151","0.0-4.0-8.111","true","112","3.45","","",""
"1802","4","confid","","","html-slider-response","990","678460","0.0-4.0-10.111-0.111","","","","Rate your confidence","1",""
"218","e","choice","left","e","experimental","997","680556","0.0-4.0-8.112","true","113","3.45","","",""
"2015","3","confid","","","html-slider-response","999","683084","0.0-4.0-10.112-0.112","","","","Rate your confidence","1",""
"250","i","choice","right","i","experimental","1006","685189","0.0-4.0-8.113","true","114","3.35","","",""
"3498","3","confid","","","html-slider-response","1008","689200","0.0-4.0-10.113-0.113","","","","Rate your confidence","1",""
"213","i","choice","right","i","experimental","1015","691257","0.0-4.0-8.114","true","115","3.35","","",""
"1717","4","confid","","","html-slider-response","1017","693491","0.0-4.0-10.114-0.114","","","","Rate your confidence","1",""
"352","e","choice","left","e","experimental","1024","695702","0.0-4.0-8.115","true","116","3.25","","",""
"3526","4","confid","","","html-slider-response","1026","699737","0.0-4.0-10.115-0.115","","","","Rate your confidence","1",""
"264","i","choice","right","i","experimental","1033","701853","0.0-4.0-8.116","true","117","3.25","","",""
"2031","5","confid","","","html-slider-response","1035","704391","0.0-4.0-10.116-0.116","","","","Rate your confidence","1",""
"389","e","choice","left","e","experimental","1042","706608","0.0-4.0-8.117","true","118","3.15","","",""
"2228","4","confid","","","html-slider-response","1044","709341","0.0-4.0-10.117-0.117","","","","Rate your confidence","1",""
"535","i","choice","left","e","experimental","1051","711668","0.0-4.0-8.118","false","119","3.15","","",""
"2344","5","confid","","","html-slider-response","1053","714529","0.0-4.0-10.118-0.118","","","","Rate your confidence","1",""
"462","i","choice","right","i","experimental","1060","716824","0.0-4.0-8.119","true","120","3.25","","",""
"1473","4","confid","","","html-slider-response","1062","718807","0.0-4.0-10.119-0.119","","","","Rate your confidence","1",""
"183","i","choice","right","i","experimental","1069","720822","0.0-4.0-8.120","true","121","3.25","","",""
"2092","5","confid","","","html-slider-response","1071","723419","0.0-4.0-10.120-0.120","","","","Rate your confidence","1",""
"359","e","choice","left","e","experimental","1078","725655","0.0-4.0-8.121","true","122","3.15","","",""
"2498","4","confid","","","html-slider-response","1080","728667","0.0-4.0-10.121-0.121","","","","Rate your confidence","1",""
"363","e","choice","left","e","experimental","1087","730864","0.0-4.0-8.122","true","123","3.15","","",""
"2046","3","confid","","","html-slider-response","1089","733427","0.0-4.0-10.122-0.122","","","","Rate your confidence","1",""
"626","i","choice","right","i","experimental","1096","735895","0.0-4.0-8.123","true","124","3.05","","",""
"2578","4","confid","","","html-slider-response","1098","738982","0.0-4.0-10.123-0.123","","","","Rate your confidence","1",""
"356","e","choice","right","i","experimental","1105","741201","0.0-4.0-8.124","false","125","3.05","","",""
"2468","3","confid","","","html-slider-response","1107","744185","0.0-4.0-10.124-0.124","","","","Rate your confidence","1",""
"416","i","choice","left","e","experimental","1114","746458","0.0-4.0-8.125","false","126","3.15","","",""
"3933","4","confid","","","html-slider-response","1116","750900","0.0-4.0-10.125-0.125","","","","Rate your confidence","1",""
"107","e","choice","left","e","experimental","1123","752825","0.0-4.0-8.126","true","127","3.25","","",""
"2038","4","confid","","","html-slider-response","1125","755381","0.0-4.0-10.126-0.126","","","","Rate your confidence","1",""
"815","i","choice","right","i","experimental","1132","758071","0.0-4.0-8.127","true","128","3.25","","",""
"5117","4","confid","","","html-slider-response","1134","763704","0.0-4.0-10.127-0.127","","","","Rate your confidence","1",""
"755","i","choice","right","i","experimental","1141","766314","0.0-4.0-8.128","true","129","3.15","","",""
"2340","5","confid","","","html-slider-response","1143","769172","0.0-4.0-10.128-0.128","","","","Rate your confidence","1",""
"31999","e","choice","left","e","experimental","1150","803013","0.0-4.0-8.129","true","130","3.15","","",""
"2511","4","confid","","","html-slider-response","1152","806033","0.0-4.0-10.129-0.129","","","","Rate your confidence","1",""
"1332","i","choice","right","i","experimental","1159","809208","0.0-4.0-8.130","true","131","3.05","","",""
"4226","4","confid","","","html-slider-response","1161","813941","0.0-4.0-10.130-0.130","","","","Rate your confidence","1",""
"256","i","choice","left","e","experimental","1168","816071","0.0-4.0-8.131","false","132","3.05","","",""
"2802","5","confid","","","html-slider-response","1170","819384","0.0-4.0-10.131-0.131","","","","Rate your confidence","1",""
"486","i","choice","left","e","experimental","1177","821692","0.0-4.0-8.132","false","133","3.15","","",""
"2468","4","confid","","","html-slider-response","1179","824663","0.0-4.0-10.132-0.132","","","","Rate your confidence","1",""
"10815","i","choice","right","i","experimental","1186","837331","0.0-4.0-8.133","true","134","3.25","","",""
"2067","5","confid","","","html-slider-response","1188","839908","0.0-4.0-10.133-0.133","","","","Rate your confidence","1",""
"704","i","choice","left","e","experimental","1195","842464","0.0-4.0-8.134","false","135","3.25","","",""
"1520","4","confid","","","html-slider-response","1197","844491","0.0-4.0-10.134-0.134","","","","Rate your confidence","1",""
"260","e","choice","right","i","experimental","1204","846585","0.0-4.0-8.135","false","136","3.35","","",""
"3428","5","confid","","","html-slider-response","1206","850525","0.0-4.0-10.135-0.135","","","","Rate your confidence","1",""
"612","i","choice","right","i","experimental","1213","852974","0.0-4.0-8.136","true","137","3.45","","",""
"2796","5","confid","","","html-slider-response","1215","856279","0.0-4.0-10.136-0.136","","","","Rate your confidence","1",""
"325","i","choice","left","e","experimental","1222","858447","0.0-4.0-8.137","false","138","3.45","","",""
"1814","5","confid","","","html-slider-response","1224","860776","0.0-4.0-10.137-0.137","","","","Rate your confidence","1",""
"2196","e","choice","right","i","experimental","1231","864821","0.0-4.0-8.138","false","139","3.5500000000000003","","",""
"5334","4","confid","","","html-slider-response","1233","870673","0.0-4.0-10.138-0.138","","","","Rate your confidence","1",""
"508","i","choice","left","e","experimental","1240","873037","0.0-4.0-8.139","false","140","3.6500000000000004","","",""
"6771","5","confid","","","html-slider-response","1242","880315","0.0-4.0-10.139-0.139","","","","Rate your confidence","1",""
"133","e","choice","left","e","experimental","1249","882279","0.0-4.0-8.140","true","141","3.7500000000000004","","",""
"2227","4","confid","","","html-slider-response","1251","885011","0.0-4.0-10.140-0.140","","","","Rate your confidence","1",""
"326","i","choice","right","i","experimental","1258","887193","0.0-4.0-8.141","true","142","3.7500000000000004","","",""
"2174","5","confid","","","html-slider-response","1260","889871","0.0-4.0-10.141-0.141","","","","Rate your confidence","1",""
"10845","e","choice","right","i","experimental","1267","902570","0.0-4.0-8.142","false","143","3.6500000000000004","","",""
"4147","4","confid","","","html-slider-response","1269","907226","0.0-4.0-10.142-0.142","","","","Rate your confidence","1",""
"138","e","choice","left","e","experimental","1276","909229","0.0-4.0-8.143","true","144","3.7500000000000004","","",""
"2449","4","confid","","","html-slider-response","1278","912194","0.0-4.0-10.143-0.143","","","","Rate your confidence","1",""
"135","i","choice","left","e","experimental","1285","914180","0.0-4.0-8.144","false","145","3.7500000000000004","","",""
"2164","5","confid","","","html-slider-response","1287","916852","0.0-4.0-10.144-0.144","","","","Rate your confidence","1",""
"2498","i","choice","right","i","experimental","1294","921200","0.0-4.0-8.145","true","146","3.8500000000000005","","",""
"3986","4","confid","","","html-slider-response","1296","925697","0.0-4.0-10.145-0.145","","","","Rate your confidence","1",""
"2365","i","choice","right","i","experimental","1303","929919","0.0-4.0-8.146","true","147","3.8500000000000005","","",""
"1494","4","confid","","","html-slider-response","1305","931931","0.0-4.0-10.146-0.146","","","","Rate your confidence","1",""
"454","i","choice","left","e","experimental","1312","934233","0.0-4.0-8.147","false","148","3.7500000000000004","","",""
"1729","5","confid","","","html-slider-response","1314","936479","0.0-4.0-10.147-0.147","","","","Rate your confidence","1",""
"569","i","choice","right","i","experimental","1321","938908","0.0-4.0-8.148","true","149","3.8500000000000005","","",""
"1559","4","confid","","","html-slider-response","1323","940983","0.0-4.0-10.148-0.148","","","","Rate your confidence","1",""
"749","i","choice","left","e","experimental","1330","943599","0.0-4.0-8.149","false","150","3.8500000000000005","","",""
"1666","4","confid","","","html-slider-response","1332","945770","0.0-4.0-10.149-0.149","","","","Rate your confidence","1",""
"503","e","choice","left","e","experimental","1339","948121","0.0-4.0-8.150","true","151","3.9500000000000006","","",""
"3693","4","confid","","","html-slider-response","1341","952321","0.0-4.0-10.150-0.150","","","","Rate your confidence","1",""
"291","i","choice","right","i","experimental","1348","954486","0.0-4.0-8.151","true","152","3.9500000000000006","","",""
"2228","5","confid","","","html-slider-response","1350","957234","0.0-4.0-10.151-0.151","","","","Rate your confidence","1",""
"165","i","choice","right","i","experimental","1358","961545","0.0-4.0-8.152","true","153","3.8500000000000005","","",""
"1792","5","confid","","","html-slider-response","1360","963846","0.0-4.0-10.152-0.152","","","","Rate your confidence","1",""
"2190","e","choice","left","e","experimental","1367","967860","0.0-4.0-8.153","true","154","3.8500000000000005","","",""
"1359","5","confid","","","html-slider-response","1369","969736","0.0-4.0-10.153-0.153","","","","Rate your confidence","1",""
"211","i","choice","left","e","experimental","1376","971793","0.0-4.0-8.154","false","155","3.7500000000000004","","",""
"2344","4","confid","","","html-slider-response","1378","974647","0.0-4.0-10.154-0.154","","","","Rate your confidence","1",""
"1067","i","choice","right","i","experimental","1385","977571","0.0-4.0-8.155","true","156","3.8500000000000005","","",""
"3687","5","confid","","","html-slider-response","1387","981775","0.0-4.0-10.155-0.155","","","","Rate your confidence","1",""
"465","i","choice","right","i","experimental","1394","984110","0.0-4.0-8.156","true","157","3.8500000000000005","","",""
"1868","4","confid","","","html-slider-response","1396","986493","0.0-4.0-10.156-0.156","","","","Rate your confidence","1",""
"358","e","choice","left","e","experimental","1403","988703","0.0-4.0-8.157","true","158","3.7500000000000004","","",""
"1675","4","confid","","","html-slider-response","1405","990883","0.0-4.0-10.157-0.157","","","","Rate your confidence","1",""
"790","e","choice","left","e","experimental","1412","993524","0.0-4.0-8.158","true","159","3.7500000000000004","","",""
"2172","4","confid","","","html-slider-response","1414","996206","0.0-4.0-10.158-0.158","","","","Rate your confidence","1",""
"114","i","choice","right","i","experimental","1421","998187","0.0-4.0-8.159","true","160","3.6500000000000004","","",""
"1389","5","confid","","","html-slider-response","1423","1000091","0.0-4.0-10.159-0.159","","","","Rate your confidence","1",""
"964","e","choice","left","e","experimental","1430","1002934","0.0-4.0-8.160","true","161","3.6500000000000004","","",""
"2146","6","confid","","","html-slider-response","1432","1005590","0.0-4.0-10.160-0.160","","","","Rate your confidence","1",""
"74","i","choice","right","i","experimental","1439","1007469","0.0-4.0-8.161","true","162","3.5500000000000003","","",""
"10270","4","confid","","","html-slider-response","1441","1018257","0.0-4.0-10.161-0.161","","","","Rate your confidence","1",""
"239","i","choice","right","i","experimental","1448","1020342","0.0-4.0-8.162","true","163","3.5500000000000003","","",""
"1331","5","confid","","","html-slider-response","1450","1022192","0.0-4.0-10.162-0.162","","","","Rate your confidence","1",""
"216","i","choice","left","e","experimental","1457","1024234","0.0-4.0-8.163","false","164","3.45","","",""
"1785","5","confid","","","html-slider-response","1459","1026527","0.0-4.0-10.163-0.163","","","","Rate your confidence","1",""
"1628","e","choice","right","i","experimental","1466","1029966","0.0-4.0-8.164","false","165","3.5500000000000003","","",""
"2451","4","confid","","","html-slider-response","1468","1032926","0.0-4.0-10.164-0.164","","","","Rate your confidence","1",""
"13713","i","choice","left","e","experimental","1475","1048517","0.0-4.0-8.165","false","166","3.6500000000000004","","",""
"2095","4","confid","","","html-slider-response","1477","1051130","0.0-4.0-10.165-0.165","","","","Rate your confidence","1",""
"2220","i","choice","right","i","experimental","1484","1055185","0.0-4.0-8.166","true","167","3.7500000000000004","","",""
"4413","3","confid","","","html-slider-response","1486","1060103","0.0-4.0-10.166-0.166","","","","Rate your confidence","1",""
"64","i","choice","left","e","experimental","1493","1062008","0.0-4.0-8.167","false","168","3.7500000000000004","","",""
"1509","4","confid","","","html-slider-response","1495","1064032","0.0-4.0-10.167-0.167","","","","Rate your confidence","1",""
"273","e","choice","left","e","experimental","1502","1066155","0.0-4.0-8.168","true","169","3.8500000000000005","","",""
"2786","5","confid","","","html-slider-response","1504","1069451","0.0-4.0-10.168-0.168","","","","Rate your confidence","1",""
"54","i","choice","right","i","experimental","1511","1071346","0.0-4.0-8.169","true","170","3.8500000000000005","","",""
"1640","5","confid","","","html-slider-response","1513","1073494","0.0-4.0-10.169-0.169","","","","Rate your confidence","1",""
"255","i","choice","right","i","experimental","1520","1075588","0.0-4.0-8.170","true","171","3.7500000000000004","","",""
"2626","6","confid","","","html-slider-response","1522","1078727","0.0-4.0-10.170-0.170","","","","Rate your confidence","1",""
"131","i","choice","left","e","experimental","1529","1080688","0.0-4.0-8.171","false","172","3.7500000000000004","","",""
"1386","5","confid","","","html-slider-response","1531","1082587","0.0-4.0-10.171-0.171","","","","Rate your confidence","1",""
"135","i","choice","left","e","experimental","1538","1084557","0.0-4.0-8.172","false","173","3.8500000000000005","","",""
"2698","3","confid","","","html-slider-response","1540","1087767","0.0-4.0-10.172-0.172","","","","Rate your confidence","1",""
"372","i","choice","right","i","experimental","1547","1089963","0.0-4.0-8.173","true","174","3.9500000000000006","","",""
"1865","5","confid","","","html-slider-response","1549","1092350","0.0-4.0-10.173-0.173","","","","Rate your confidence","1",""
"301","e","choice","left","e","experimental","1556","1094525","0.0-4.0-8.174","true","175","3.9500000000000006","","",""
"1863","5","confid","","","html-slider-response","1558","1096904","0.0-4.0-10.174-0.174","","","","Rate your confidence","1",""
"188","i","choice","right","i","experimental","1565","1098901","0.0-4.0-8.175","true","176","3.8500000000000005","","",""
"1920","4","confid","","","html-slider-response","1567","1101336","0.0-4.0-10.175-0.175","","","","Rate your confidence","1",""
"432","i","choice","right","i","experimental","1574","1103639","0.0-4.0-8.176","true","177","3.8500000000000005","","",""
"2795","4","confid","","","html-slider-response","1576","1106948","0.0-4.0-10.176-0.176","","","","Rate your confidence","1",""
"322","e","choice","left","e","experimental","1583","1109102","0.0-4.0-8.177","true","178","3.7500000000000004","","",""
"1988","5","confid","","","html-slider-response","1585","1111598","0.0-4.0-10.177-0.177","","","","Rate your confidence","1",""
"543","i","choice","left","e","experimental","1592","1114003","0.0-4.0-8.178","false","179","3.7500000000000004","","",""
"1906","4","confid","","","html-slider-response","1594","1116429","0.0-4.0-10.178-0.178","","","","Rate your confidence","1",""
"366","i","choice","right","i","experimental","1601","1118652","0.0-4.0-8.179","true","180","3.8500000000000005","","",""
"2505","5","confid","","","html-slider-response","1603","1121667","0.0-4.0-10.179-0.179","","","","Rate your confidence","1",""
"19449","e","choice","left","e","experimental","1610","1142957","0.0-4.0-8.180","true","181","3.8500000000000005","","",""
"2377","4","confid","","","html-slider-response","1612","1145851","0.0-4.0-10.180-0.180","","","","Rate your confidence","1",""
"142","i","choice","right","i","experimental","1619","1147823","0.0-4.0-8.181","true","182","3.7500000000000004","","",""
"1500","5","confid","","","html-slider-response","1621","1149829","0.0-4.0-10.181-0.181","","","","Rate your confidence","1",""
"341","e","choice","left","e","experimental","1628","1152014","0.0-4.0-8.182","true","183","3.7500000000000004","","",""
"1593","5","confid","","","html-slider-response","1630","1154115","0.0-4.0-10.182-0.182","","","","Rate your confidence","1",""
"153","i","choice","right","i","experimental","1637","1156141","0.0-4.0-8.183","true","184","3.6500000000000004","","",""
"1767","5","confid","","","html-slider-response","1639","1158414","0.0-4.0-10.183-0.183","","","","Rate your confidence","1",""
"254","e","choice","left","e","experimental","1646","1160532","0.0-4.0-8.184","true","185","3.6500000000000004","","",""
"1744","2","confid","","","html-slider-response","1648","1162790","0.0-4.0-10.184-0.184","","","","Rate your confidence","1",""
"270","i","choice","right","i","experimental","1655","1164889","0.0-4.0-8.185","true","186","3.5500000000000003","","",""
"1600","4","confid","","","html-slider-response","1657","1167004","0.0-4.0-10.185-0.185","","","","Rate your confidence","1",""
"372","i","choice","left","e","experimental","1664","1169213","0.0-4.0-8.186","false","187","3.5500000000000003","","",""
"1509","5","confid","","","html-slider-response","1666","1171233","0.0-4.0-10.186-0.186","","","","Rate your confidence","1",""
"277","i","choice","right","i","experimental","1673","1173363","0.0-4.0-8.187","true","188","3.6500000000000004","","",""
"2936","4","confid","","","html-slider-response","1675","1176818","0.0-4.0-10.187-0.187","","","","Rate your confidence","1",""
"325","e","choice","left","e","experimental","1682","1178995","0.0-4.0-8.188","true","189","3.6500000000000004","","",""
"1330","4","confid","","","html-slider-response","1684","1180832","0.0-4.0-10.188-0.188","","","","Rate your confidence","1",""
"265","i","choice","right","i","experimental","1691","1182965","0.0-4.0-8.189","true","190","3.5500000000000003","","",""
"2098","4","confid","","","html-slider-response","1693","1185580","0.0-4.0-10.189-0.189","","","","Rate your confidence","1",""
"281","i","choice","left","e","experimental","1700","1187679","0.0-4.0-8.190","false","191","3.5500000000000003","","",""
"1865","5","confid","","","html-slider-response","1702","1190062","0.0-4.0-10.190-0.190","","","","Rate your confidence","1",""
"1322","i","choice","right","i","experimental","1709","1193226","0.0-4.0-8.191","true","192","3.6500000000000004","","",""
"2044","5","confid","","","html-slider-response","1711","1195789","0.0-4.0-10.191-0.191","","","","Rate your confidence","1",""
"410","e","choice","left","e","experimental","1718","1198076","0.0-4.0-8.192","true","193","3.6500000000000004","","",""
"6273","5","confid","","","html-slider-response","1720","1204857","0.0-4.0-10.192-0.192","","","","Rate your confidence","1",""
"2932","i","choice","right","i","experimental","1727","1209660","0.0-4.0-8.193","true","194","3.5500000000000003","","",""
"1949","5","confid","","","html-slider-response","1729","1212119","0.0-4.0-10.193-0.193","","","","Rate your confidence","1","65603"
