"rt","response","task","target_side","correct_response","trial_type","trial_index","time_elapsed","internal_node_id","correct","trial_number","n_dots","stimulus","slider_start","participant"
"988","i","choice","right","i","practice","10","57430","0.0-4.0-8.0","true","1","4.25","","",""
"436","e","choice","left","e","practice","18","60158","0.0-4.0-8.1","true","2","4.25","","",""
"519.0000000000146","e","choice","left","e","practice","26","62977","0.0-4.0-8.2","true","3","3.85","","",""
"353","i","choice","right","i","practice","34","65627","0.0-4.0-8.3","true","4","3.85","","",""
"301.00000000001455","i","choice","right","i","practice","42","68225","0.0-4.0-8.4","true","5","3.45","","",""
"340","e","choice","left","e","practice","50","70860","0.0-4.0-8.5","true","6","3.45","","",""
"551","i","choice","right","i","practice","58","73702","0.0-4.0-8.6","true","7","3.25","","",""
"422","i","choice","left","e","practice","66","76413","0.0-4.0-8.7","false","8","3.25","","",""
"469","e","choice","right","i","practice","74","79172","0.0-4.0-8.8","false","9","3.45","","",""
"695","i","choice","left","e","practice","82","82155","0.0-4.0-8.9","false","10","3.6500000000000004","","",""
"2940","e","choice","right","i","practice","90","87388","0.0-4.0-8.10","false","11","3.8500000000000005","","",""
"485","i","choice","left","e","practice","98","90167","0.0-4.0-8.11","false","12","3.9500000000000006","","",""
"332","e","choice","left","e","practice","106","92794","0.0-4.0-8.12","true","13","4.050000000000001","","",""
"401","i","choice","right","i","practice","114","95489","0.0-4.0-8.13","true","14","4.050000000000001","","",""
"36229.999999999985","i","choice","left","e","practice","122","134014","0.0-4.0-8.14","false","15","3.9500000000000006","","",""
"142","i","choice","right","i","practice","130","136451","0.0-4.0-8.15","true","16","4.050000000000001","","",""
"266","i","choice","right","i","practice","138","139014","0.0-4.0-8.16","true","17","4.050000000000001","","",""
"393","i","choice","left","e","practice","146","141709","0.0-4.0-8.17","false","18","3.9500000000000006","","",""
"299","i","choice","right","i","practice","154","144305","0.0-4.0-8.18","true","19","4.050000000000001","","",""
"307","e","choice","left","e","practice","162","146912","0.0-4.0-8.19","true","20","4.050000000000001","","",""
"348.9999999999709","i","choice","left","e","practice","170","149563","0.0-4.0-8.20","false","21","3.9500000000000006","","",""
"309","i","choice","right","i","practice","178","152172","0.0-4.0-8.21","true","22","4.050000000000001","","",""
"235","e","choice","left","e","practice","186","154703","0.0-4.0-8.22","true","23","4.050000000000001","","",""
"480","i","choice","right","i","practice","194","157481","0.0-4.0-8.23","true","24","3.9500000000000006","","",""
"343","i","choice","right","i","practice","202","160124","0.0-4.0-8.24","true","25","3.9500000000000006","","",""
"432","e","choice","left","e","practice","210","162852","0.0-4.0-8.25","true","26","3.8500000000000005","","",""
"758","i","choice","right","i","experimental","221","187686","0.0-4.0-8.26","true","27","3.8500000000000005","","",""
"5255","5","confid","","","html-slider-response","223","193445","0.0-4.0-10.26-0.26","","","","Rate your confidence","1",""
"321.9999999999709","e","choice","left","e","experimental","230","195565","0.0-4.0-8.27","true","28","3.7500000000000004","","",""
"2483","4","confid","","","html-slider-response","232","198556","0.0-4.0-10.27-0.27","","","","Rate your confidence","1",""
"380","i","choice","right","i","experimental","239","200733","0.0-4.0-8.28","true","29","3.7500000000000004","","",""
"3601","3","confid","","","html-slider-response","241","204842","0.0-4.0-10.28-0.28","","","","Rate your confidence","1",""
"552","e","choice","left","e","experimental","248","207191","0.0-4.0-8.29","true","30","3.6500000000000004","","",""
"1694.000000000029","3","confid","","","html-slider-response","250","209391","0.0-4.0-10.29-0.29","","","","Rate your confidence","1",""
"139.0000000000291","e","choice","left","e","experimental","257","211325","0.0-4.0-8.30","true","31","3.6500000000000004","","",""
"1538","3","confid","","","html-slider-response","259","213371","0.0-4.0-10.30-0.30","","","","Rate your confidence","1",""
"532","i","choice","right","i","experimental","266","215697","0.0-4.0-8.31","true","32","3.5500000000000003","","",""
"1430.000000000029","4","confid","","","html-slider-response","268","217634","0.0-4.0-10.31-0.31","","","","Rate your confidence","1",""
"372","e","choice","right","i","experimental","275","219797","0.0-4.0-8.32","false","33","3.5500000000000003","","",""
"1928.000000000029","3","confid","","","html-slider-response","277","222229","0.0-4.0-10.32-0.32","","","","Rate your confidence","1",""
"289","e","choice","left","e","experimental","284","224311","0.0-4.0-8.33","true","34","3.6500000000000004","","",""
"1724.999999999971","3","confid","","","html-slider-response","286","226543","0.0-4.0-10.33-0.33","","","","Rate your confidence","1",""
"240","i","choice","left","e","experimental","293","228577","0.0-4.0-8.34","false","35","3.6500000000000004","","",""
"1628.999999999971","3","confid","","","html-slider-response","295","230712","0.0-4.0-10.34-0.34","","","","Rate your confidence","1",""
"352","i","choice","right","i","experimental","302","232856","0.0-4.0-8.35","true","36","3.7500000000000004","","",""
"2105","5","confid","","","html-slider-response","304","235466","0.0-4.0-10.35-0.35","","","","Rate your confidence","1",""
"455","e","choice","left","e","experimental","311","237717","0.0-4.0-8.36","true","37","3.7500000000000004","","",""
"3464","4","confid","","","html-slider-response","313","241687","0.0-4.0-10.36-0.36","","","","Rate your confidence","1",""
"728","e","choice","right","i","experimental","320","244216","0.0-4.0-8.37","false","38","3.6500000000000004","","",""
"1703","2","confid","","","html-slider-response","322","246426","0.0-4.0-10.37-0.37","","","","Rate your confidence","1",""
"435.9999999999418","i","choice","right","i","experimental","329","248656","0.0-4.0-8.38","true","39","3.7500000000000004","","",""
"14289","4","confid","","","html-slider-response","331","263450","0.0-4.0-10.38-0.38","","","","Rate your confidence","1",""
"695","e","choice","left","e","experimental","338","265935","0.0-4.0-8.39","true","40","3.7500000000000004","","",""
"2752","4","confid","","","html-slider-response","340","269194","0.0-4.0-10.39-0.39","","","","Rate your confidence","1",""
"199","e","choice","left","e","experimental","347","271189","0.0-4.0-8.40","true","41","3.6500000000000004","","",""
"2305","4","confid","","","html-slider-response","349","274000","0.0-4.0-10.40-0.40","","","","Rate your confidence","1",""
"502.0000000000582","i","choice","right","i","experimental","356","276295","0.0-4.0-8.41","true","42","3.6500000000000004","","",""
"1635","4","confid","","","html-slider-response","358","278438","0.0-4.0-10.41-0.41","","","","Rate your confidence","1",""
"341","i","choice","right","i","experimental","365","280573","0.0-4.0-8.42","true","43","3.5500000000000003","","",""
"2026","4","confid","","","html-slider-response","367","283104","0.0-4.0-10.42-0.42","","","","Rate your confidence","1",""
"393","e","choice","left","e","experimental","374","285293","0.0-4.0-8.43","true","44","3.5500000000000003","","",""
"2076","3","confid","","","html-slider-response","376","287876","0.0-4.0-10.43-0.43","","","","Rate your confidence","1",""
"465","i","choice","left","e","experimental","383","290137","0.0-4.0-8.44","false","45","3.45","","",""
"1229","4","confid","","","html-slider-response","385","291875","0.0-4.0-10.44-0.44","","","","Rate your confidence","1",""
"302","i","choice","right","i","experimental","392","293969","0.0-4.0-8.45","true","46","3.5500000000000003","","",""
"3622","2","confid","","","html-slider-response","394","298094","0.0-4.0-10.45-0.45","","","","Rate your confidence","1",""
"146","e","choice","left","e","experimental","401","300033","0.0-4.0-8.46","true","47","3.5500000000000003","","",""
"1824.0000000000582","4","confid","","","html-slider-response","403","302367","0.0-4.0-10.46-0.46","","","","Rate your confidence","1",""
"442.0000000000582","i","choice","right","i","experimental","410","304605","0.0-4.0-8.47","true","48","3.45","","",""
"1116","5","confid","","","html-slider-response","412","306226","0.0-4.0-10.47-0.47","","","","Rate your confidence","1",""
"473","i","choice","right","i","experimental","419","308490","0.0-4.0-8.48","true","49","3.45","","",""
"1089","4","confid","","","html-slider-response","421","310084","0.0-4.0-10.48-0.48","","","","Rate your confidence","1",""
"228","e","choice","left","e","experimental","428","312103","0.0-4.0-8.49","true","50","3.35","","",""
"1337","3","confid","","","html-slider-response","430","313945","0.0-4.0-10.49-0.49","","","","Rate your confidence","1",""
"354","i","choice","right","i","experimental","437","316091","0.0-4.0-8.50","true","51","3.35","","",""
"1723","4","confid","","","html-slider-response","439","318320","0.0-4.0-10.50-0.50","","","","Rate your confidence","1",""
"240","e","choice","left","e","experimental","446","320360","0.0-4.0-8.51","true","52","3.25","","",""
"1235","4","confid","","","html-slider-response","448","322100","0.0-4.0-10.51-0.51","","","","Rate your confidence","1",""
"479","i","choice","right","i","experimental","455","324371","0.0-4.0-8.52","true","53","3.25","","",""
"1151.9999999999418","4","confid","","","html-slider-response","457","326029","0.0-4.0-10.52-0.52","","","","Rate your confidence","1",""
"769.9999999999418","e","choice","left","e","experimental","464","328594","0.0-4.0-8.53","true","54","3.15","","",""
"2701.000000000058","3","confid","","","html-slider-response","466","331800","0.0-4.0-10.53-0.53","","","","Rate your confidence","1",""
"402","i","choice","right","i","experimental","473","334001","0.0-4.0-8.54","true","55","3.15","","",""
"1493","4","confid","","","html-slider-response","475","336001","0.0-4.0-10.54-0.54","","","","Rate your confidence","1",""
"316","e","choice","left","e","experimental","482","338113","0.0-4.0-8.55","true","56","3.05","","",""
"1574.0000000000582","4","confid","","","html-slider-response","484","340192","0.0-4.0-10.55-0.55","","","","Rate your confidence","1",""
"372","i","choice","left","e","experimental","491","342363","0.0-4.0-8.56","false","57","3.05","","",""
"1968","4","confid","","","html-slider-response","493","344836","0.0-4.0-10.56-0.56","","","","Rate your confidence","1",""
"292.0000000000582","e","choice","right","i","experimental","500","346924","0.0-4.0-8.57","false","58","3.15","","",""
"2543.999999999942","4","confid","","","html-slider-response","502","349974","0.0-4.0-10.57-0.57","","","","Rate your confidence","1",""
"69","i","choice","right","i","experimental","509","351838","0.0-4.0-8.58","true","59","3.25","","",""
"2252.000000000058","3","confid","","","html-slider-response","511","354598","0.0-4.0-10.58-0.58","","","","Rate your confidence","1",""
"50","e","choice","left","e","experimental","518","356443","0.0-4.0-8.59","true","60","3.25","","",""
"1387","2","confid","","","html-slider-response","520","358336","0.0-4.0-10.59-0.59","","","","Rate your confidence","1",""
"554.0000000000582","i","choice","right","i","experimental","527","360691","0.0-4.0-8.60","true","61","3.15","","",""
"1588","4","confid","","","html-slider-response","529","362785","0.0-4.0-10.60-0.60","","","","Rate your confidence","1",""
"378","e","choice","left","e","experimental","536","364958","0.0-4.0-8.61","true","62","3.15","","",""
"3325","3","confid","","","html-slider-response","538","368788","0.0-4.0-10.61-0.61","","","","Rate your confidence","1",""
"260.9999999999418","e","choice","right","i","experimental","545","370846","0.0-4.0-8.62","false","63","3.05","","",""
"1863","3","confid","","","html-slider-response","547","373212","0.0-4.0-10.62-0.62","","","","Rate your confidence","1",""
"371","i","choice","left","e","experimental","554","375378","0.0-4.0-8.63","false","64","3.15","","",""
"1271","4","confid","","","html-slider-response","556","377158","0.0-4.0-10.63-0.63","","","","Rate your confidence","1",""
"92","e","choice","left","e","experimental","563","379042","0.0-4.0-8.64","true","65","3.25","","",""
"1899","2","confid","","","html-slider-response","565","381445","0.0-4.0-10.64-0.64","","","","Rate your confidence","1",""
"360","i","choice","right","i","experimental","572","383599","0.0-4.0-8.65","true","66","3.25","","",""
"2083","4","confid","","","html-slider-response","574","386187","0.0-4.0-10.65-0.65","","","","Rate your confidence","1",""
"447.9999999999418","i","choice","left","e","experimental","581","388431","0.0-4.0-8.66","false","67","3.15","","",""
"1972","2","confid","","","html-slider-response","583","390908","0.0-4.0-10.66-0.66","","","","Rate your confidence","1",""
"263","e","choice","right","i","experimental","590","392970","0.0-4.0-8.67","false","68","3.25","","",""
"1235.0000000000582","3","confid","","","html-slider-response","592","394709","0.0-4.0-10.67-0.67","","","","Rate your confidence","1",""
"767","e","choice","left","e","experimental","600","416455","0.0-4.0-8.68","true","69","3.35","","",""
"2810","3","confid","","","html-slider-response","602","419772","0.0-4.0-10.68-0.68","","","","Rate your confidence","1",""
"102","i","choice","right","i","experimental","609","421670","0.0-4.0-8.69","true","70","3.35","","",""
"1608","5","confid","","","html-slider-response","611","423786","0.0-4.0-10.69-0.69","","","","Rate your confidence","1",""
"120","e","choice","left","e","experimental","618","425693","0.0-4.0-8.70","true","71","3.25","","",""
"2819.000000000058","4","confid","","","html-slider-response","620","429023","0.0-4.0-10.70-0.70","","","","Rate your confidence","1",""
"302","e","choice","right","i","experimental","627","431126","0.0-4.0-8.71","false","72","3.25","","",""
"2773","5","confid","","","html-slider-response","629","434405","0.0-4.0-10.71-0.71","","","","Rate your confidence","1",""
"284","i","choice","right","i","experimental","636","436478","0.0-4.0-8.72","true","73","3.35","","",""
"1280","4","confid","","","html-slider-response","638","438265","0.0-4.0-10.72-0.72","","","","Rate your confidence","1",""
"265.9999999999418","e","choice","left","e","experimental","645","440324","0.0-4.0-8.73","true","74","3.35","","",""
"2328","4","confid","","","html-slider-response","647","443158","0.0-4.0-10.73-0.73","","","","Rate your confidence","1",""
"346","i","choice","right","i","experimental","654","445298","0.0-4.0-8.74","true","75","3.25","","",""
"1213.0000000000582","4","confid","","","html-slider-response","656","447017","0.0-4.0-10.74-0.74","","","","Rate your confidence","1",""
"139","e","choice","left","e","experimental","663","448946","0.0-4.0-8.75","true","76","3.25","","",""
"984","4","confid","","","html-slider-response","665","450437","0.0-4.0-10.75-0.75","","","","Rate your confidence","1",""
"295","i","choice","right","i","experimental","672","452529","0.0-4.0-8.76","true","77","3.15","","",""
"2798.999999999942","3","confid","","","html-slider-response","674","455833","0.0-4.0-10.76-0.76","","","","Rate your confidence","1",""
"272","i","choice","left","e","experimental","681","457898","0.0-4.0-8.77","false","78","3.15","","",""
"1275","5","confid","","","html-slider-response","683","459678","0.0-4.0-10.77-0.77","","","","Rate your confidence","1",""
"521","e","choice","left","e","experimental","690","461986","0.0-4.0-8.78","true","79","3.25","","",""
"1765","5","confid","","","html-slider-response","692","464256","0.0-4.0-10.78-0.78","","","","Rate your confidence","1",""
"349.9999999999418","e","choice","right","i","experimental","699","466396","0.0-4.0-8.79","false","80","3.25","","",""
"2412","3","confid","","","html-slider-response","701","469313","0.0-4.0-10.79-0.79","","","","Rate your confidence","1",""
"149.9999999999418","e","choice","left","e","experimental","708","471261","0.0-4.0-8.80","true","81","3.35","","",""
"2866","4","confid","","","html-slider-response","710","474635","0.0-4.0-10.80-0.80","","","","Rate your confidence","1",""
"579","i","choice","right","i","experimental","717","477007","0.0-4.0-8.81","true","82","3.35","","",""
"2009.0000000000582","4","confid","","","html-slider-response","719","479520","0.0-4.0-10.81-0.81","","","","Rate your confidence","1",""
"256.9999999999418","e","choice","right","i","experimental","726","481570","0.0-4.0-8.82","false","83","3.25","","",""
"1437","4","confid","","","html-slider-response","728","483515","0.0-4.0-10.82-0.82","","","","Rate your confidence","1",""
"160","e","choice","left","e","experimental","735","485465","0.0-4.0-8.83","true","84","3.35","","",""
"2506.999999999942","5","confid","","","html-slider-response","737","488476","0.0-4.0-10.83-0.83","","","","Rate your confidence","1",""
"334.0000000000582","e","choice","left","e","experimental","744","490607","0.0-4.0-8.84","true","85","3.35","","",""
"2164","4","confid","","","html-slider-response","746","493277","0.0-4.0-10.84-0.84","","","","Rate your confidence","1",""
"169","e","choice","right","i","experimental","753","495237","0.0-4.0-8.85","false","86","3.25","","",""
"1218","2","confid","","","html-slider-response","755","496960","0.0-4.0-10.85-0.85","","","","Rate your confidence","1",""
"158.00000000011642","e","choice","right","i","experimental","762","498908","0.0-4.0-8.86","false","87","3.35","","",""
"1140","4","confid","","","html-slider-response","764","500554","0.0-4.0-10.86-0.86","","","","Rate your confidence","1",""
"175","e","choice","left","e","experimental","771","502525","0.0-4.0-8.87","true","88","3.45","","",""
"1245","4","confid","","","html-slider-response","773","504276","0.0-4.0-10.87-0.87","","","","Rate your confidence","1",""
"272","i","choice","right","i","experimental","780","506342","0.0-4.0-8.88","true","89","3.45","","",""
"1293","4","confid","","","html-slider-response","782","508140","0.0-4.0-10.88-0.88","","","","Rate your confidence","1",""
"199.00000000011642","e","choice","left","e","experimental","789","510133","0.0-4.0-8.89","true","90","3.35","","",""
"1702","3","confid","","","html-slider-response","791","512340","0.0-4.0-10.89-0.89","","","","Rate your confidence","1",""
"544","i","choice","right","i","experimental","798","514675","0.0-4.0-8.90","true","91","3.35","","",""
"3159","4","confid","","","html-slider-response","800","518342","0.0-4.0-10.90-0.90","","","","Rate your confidence","1",""
"707","e","choice","left","e","experimental","807","520844","0.0-4.0-8.91","true","92","3.25","","",""
"1616.0000000001164","4","confid","","","html-slider-response","809","522966","0.0-4.0-10.91-0.91","","","","Rate your confidence","1",""
"427.0000000001164","i","choice","right","i","experimental","816","525186","0.0-4.0-8.92","true","93","3.25","","",""
"2196","4","confid","","","html-slider-response","818","527889","0.0-4.0-10.92-0.92","","","","Rate your confidence","1",""
"296","e","choice","left","e","experimental","825","529978","0.0-4.0-8.93","true","94","3.15","","",""
"1780","4","confid","","","html-slider-response","827","532265","0.0-4.0-10.93-0.93","","","","Rate your confidence","1",""
"368","i","choice","right","i","experimental","834","534426","0.0-4.0-8.94","true","95","3.15","","",""
"1650.9999999998836","4","confid","","","html-slider-response","836","536582","0.0-4.0-10.94-0.94","","","","Rate your confidence","1",""
"274","e","choice","left","e","experimental","843","538653","0.0-4.0-8.95","true","96","3.05","","",""
"1153","3","confid","","","html-slider-response","845","540312","0.0-4.0-10.95-0.95","","","","Rate your confidence","1",""
"195","e","choice","left","e","experimental","852","542295","0.0-4.0-8.96","true","97","3.05","","",""
"1610","4","confid","","","html-slider-response","854","544410","0.0-4.0-10.96-0.96","","","","Rate your confidence","1",""
"207","e","choice","right","i","experimental","861","546405","0.0-4.0-8.97","false","98","2.9499999999999997","","",""
"1443","4","confid","","","html-slider-response","863","548356","0.0-4.0-10.97-0.97","","","","Rate your confidence","1",""
"279","i","choice","right","i","experimental","870","550425","0.0-4.0-8.98","true","99","3.05","","",""
"1044","4","confid","","","html-slider-response","872","551977","0.0-4.0-10.98-0.98","","","","Rate your confidence","1",""
"123","e","choice","left","e","experimental","879","553899","0.0-4.0-8.99","true","100","3.05","","",""
"1308","3","confid","","","html-slider-response","881","555712","0.0-4.0-10.99-0.99","","","","Rate your confidence","1",""
"425","i","choice","right","i","experimental","888","557933","0.0-4.0-8.100","true","101","2.9499999999999997","","",""
"2000","3","confid","","","html-slider-response","890","560439","0.0-4.0-10.100-0.100","","","","Rate your confidence","1",""
"646","i","choice","left","e","experimental","897","562883","0.0-4.0-8.101","false","102","2.9499999999999997","","",""
"1534","3","confid","","","html-slider-response","899","564921","0.0-4.0-10.101-0.101","","","","Rate your confidence","1",""
"659.9999999998836","e","choice","left","e","experimental","906","567374","0.0-4.0-8.102","true","103","3.05","","",""
"1807","4","confid","","","html-slider-response","908","569688","0.0-4.0-10.102-0.102","","","","Rate your confidence","1",""
"308","i","choice","right","i","experimental","915","571789","0.0-4.0-8.103","true","104","3.05","","",""
"3920","4","confid","","","html-slider-response","917","576215","0.0-4.0-10.103-0.103","","","","Rate your confidence","1",""
"559","e","choice","left","e","experimental","924","578572","0.0-4.0-8.104","true","105","2.9499999999999997","","",""
"1864.9999999998836","4","confid","","","html-slider-response","926","580943","0.0-4.0-10.104-0.104","","","","Rate your confidence","1",""
"448","e","choice","right","i","experimental","933","583191","0.0-4.0-8.105","false","106","2.9499999999999997","","",""
"2098","3","confid","","","html-slider-response","935","585794","0.0-4.0-10.105-0.105","","","","Rate your confidence","1",""
"439","e","choice","left","e","experimental","942","588028","0.0-4.0-8.106","true","107","3.05","","",""
"2236","3","confid","","","html-slider-response","944","590769","0.0-4.0-10.106-0.106","","","","Rate your confidence","1",""
"273.0000000001164","i","choice","right","i","experimental","951","592838","0.0-4.0-8.107","true","108","3.05","","",""
"1350","4","confid","","","html-slider-response","953","594694","0.0-4.0-10.107-0.107","","","","Rate your confidence","1",""
"455","e","choice","left","e","experimental","960","596951","0.0-4.0-8.108","true","109","2.9499999999999997","","",""
"1575.9999999998836","3","confid","","","html-slider-response","962","599033","0.0-4.0-10.108-0.108","","","","Rate your confidence","1",""
"296","i","choice","right","i","experimental","969","601126","0.0-4.0-8.109","true","110","2.9499999999999997","","",""
"1337","4","confid","","","html-slider-response","971","602971","0.0-4.0-10.109-0.109","","","","Rate your confidence","1",""
"494","i","choice","left","e","experimental","979","606518","0.0-4.0-8.110","false","111","2.8499999999999996","","",""
"1685","3","confid","","","html-slider-response","981","608709","0.0-4.0-10.110-0.110","","","","Rate your confidence","1",""
"414.9999999998836","e","choice","right","i","experimental","988","610920","0.0-4.0-8.111","false","112","2.9499999999999997","","",""
"1874","3","confid","","","html-slider-response","990","613300","0.0-4.0-10.111-0.111","","","","Rate your confidence","1",""
"63.000000000116415","e","choice","left","e","experimental","997","615154","0.0-4.0-8.112","true","113","3.05","","",""
"1215","3","confid","","","html-slider-response","999","616875","0.0-4.0-10.112-0.112","","","","Rate your confidence","1",""
"340.0000000001164","i","choice","right","i","experimental","1006","619004","0.0-4.0-8.113","true","114","3.05","","",""
"2217","3","confid","","","html-slider-response","1008","621729","0.0-4.0-10.113-0.113","","","","Rate your confidence","1",""
"251.99999999988358","i","choice","left","e","experimental","1015","623781","0.0-4.0-8.114","false","115","2.9499999999999997","","",""
"1757","3","confid","","","html-slider-response","1017","626044","0.0-4.0-10.114-0.114","","","","Rate your confidence","1",""
"84","e","choice","right","i","experimental","1024","627919","0.0-4.0-8.115","false","116","3.05","","",""
"1267","4","confid","","","html-slider-response","1026","629691","0.0-4.0-10.115-0.115","","","","Rate your confidence","1",""
"276","i","choice","left","e","experimental","1033","631759","0.0-4.0-8.116","false","117","3.15","","",""
"1496","2","confid","","","html-slider-response","1035","633761","0.0-4.0-10.116-0.116","","","","Rate your confidence","1",""
"191","e","choice","right","i","experimental","1042","635746","0.0-4.0-8.117","false","118","3.25","","",""
"2625","3","confid","","","html-slider-response","1044","638876","0.0-4.0-10.117-0.117","","","","Rate your confidence","1",""
"280.0000000001164","e","choice","left","e","experimental","1051","640951","0.0-4.0-8.118","true","119","3.35","","",""
"1213","3","confid","","","html-slider-response","1053","642671","0.0-4.0-10.118-0.118","","","","Rate your confidence","1",""
"285","e","choice","right","i","experimental","1060","644748","0.0-4.0-8.119","false","120","3.35","","",""
"1671.9999999998836","4","confid","","","html-slider-response","1062","646926","0.0-4.0-10.119-0.119","","","","Rate your confidence","1",""
"336","i","choice","right","i","experimental","1069","649054","0.0-4.0-8.120","true","121","3.45","","",""
"1696","4","confid","","","html-slider-response","1071","651256","0.0-4.0-10.120-0.120","","","","Rate your confidence","1",""
"166","e","choice","left","e","experimental","1078","653220","0.0-4.0-8.121","true","122","3.45","","",""
"2659.9999999998836","5","confid","","","html-slider-response","1080","656385","0.0-4.0-10.121-0.121","","","","Rate your confidence","1",""
"224","e","choice","left","e","experimental","1087","658406","0.0-4.0-8.122","true","123","3.35","","",""
"1534","5","confid","","","html-slider-response","1089","660447","0.0-4.0-10.122-0.122","","","","Rate your confidence","1",""
"215","e","choice","right","i","experimental","1096","662457","0.0-4.0-8.123","false","124","3.35","","",""
"4497.000000000116","2","confid","","","html-slider-response","1098","667460","0.0-4.0-10.123-0.123","","","","Rate your confidence","1",""
"710","i","choice","left","e","experimental","1105","669967","0.0-4.0-8.124","false","125","3.45","","",""
"1906.0000000001164","2","confid","","","html-slider-response","1107","672378","0.0-4.0-10.124-0.124","","","","Rate your confidence","1",""
"710","i","choice","right","i","experimental","1114","674887","0.0-4.0-8.125","true","126","3.5500000000000003","","",""
"1317","4","confid","","","html-slider-response","1116","676708","0.0-4.0-10.125-0.125","","","","Rate your confidence","1",""
"683","i","choice","right","i","experimental","1123","679180","0.0-4.0-8.126","true","127","3.5500000000000003","","",""
"1274","4","confid","","","html-slider-response","1125","680959","0.0-4.0-10.126-0.126","","","","Rate your confidence","1",""
"383","e","choice","left","e","experimental","1132","683138","0.0-4.0-8.127","true","128","3.45","","",""
"1104.0000000001164","4","confid","","","html-slider-response","1134","684748","0.0-4.0-10.127-0.127","","","","Rate your confidence","1",""
"310","e","choice","left","e","experimental","1141","686864","0.0-4.0-8.128","true","129","3.45","","",""
"1802","3","confid","","","html-slider-response","1143","689173","0.0-4.0-10.128-0.128","","","","Rate your confidence","1",""
"466","i","choice","right","i","experimental","1150","691438","0.0-4.0-8.129","true","130","3.35","","",""
"3046","4","confid","","","html-slider-response","1152","694991","0.0-4.0-10.129-0.129","","","","Rate your confidence","1",""
"357","i","choice","right","i","experimental","1159","697140","0.0-4.0-8.130","true","131","3.35","","",""
"1256.9999999998836","4","confid","","","html-slider-response","1161","698903","0.0-4.0-10.130-0.130","","","","Rate your confidence","1",""
"608","e","choice","left","e","experimental","1168","701301","0.0-4.0-8.131","true","132","3.25","","",""
"2098","4","confid","","","html-slider-response","1170","703904","0.0-4.0-10.131-0.131","","","","Rate your confidence","1",""
"272","e","choice","right","i","experimental","1177","705970","0.0-4.0-8.132","false","133","3.25","","",""
"1720","3","confid","","","html-slider-response","1179","708197","0.0-4.0-10.132-0.132","","","","Rate your confidence","1",""
"145","e","choice","left","e","experimental","1186","710136","0.0-4.0-8.133","true","134","3.35","","",""
"1365","2","confid","","","html-slider-response","1188","712006","0.0-4.0-10.133-0.133","","","","Rate your confidence","1",""
"65","e","choice","left","e","experimental","1195","713870","0.0-4.0-8.134","true","135","3.35","","",""
"1104.9999999998836","4","confid","","","html-slider-response","1197","715481","0.0-4.0-10.134-0.134","","","","Rate your confidence","1",""
"285","i","choice","right","i","experimental","1204","717558","0.0-4.0-8.135","true","136","3.25","","",""
"1806","3","confid","","","html-slider-response","1206","719868","0.0-4.0-10.135-0.135","","","","Rate your confidence","1",""
"347","i","choice","right","i","experimental","1213","722012","0.0-4.0-8.136","true","137","3.25","","",""
"1369","4","confid","","","html-slider-response","1215","723886","0.0-4.0-10.136-0.136","","","","Rate your confidence","1",""
"182","e","choice","left","e","experimental","1222","725862","0.0-4.0-8.137","true","138","3.15","","",""
"1927","5","confid","","","html-slider-response","1224","728296","0.0-4.0-10.137-0.137","","","","Rate your confidence","1",""
"291","e","choice","left","e","experimental","1231","730384","0.0-4.0-8.138","true","139","3.15","","",""
"1938","3","confid","","","html-slider-response","1233","732829","0.0-4.0-10.138-0.138","","","","Rate your confidence","1",""
"271","i","choice","right","i","experimental","1240","734896","0.0-4.0-8.139","true","140","3.05","","",""
"1368.9999999998836","4","confid","","","html-slider-response","1242","736773","0.0-4.0-10.139-0.139","","","","Rate your confidence","1",""
"432.0000000001164","e","choice","right","i","experimental","1249","738995","0.0-4.0-8.140","false","141","3.05","","",""
"1260","3","confid","","","html-slider-response","1251","740762","0.0-4.0-10.140-0.140","","","","Rate your confidence","1",""
"40.999999999883585","e","choice","left","e","experimental","1258","742598","0.0-4.0-8.141","true","142","3.15","","",""
"1432","4","confid","","","html-slider-response","1260","744537","0.0-4.0-10.141-0.141","","","","Rate your confidence","1",""
"245","i","choice","right","i","experimental","1267","746578","0.0-4.0-8.142","true","143","3.15","","",""
"1159.9999999998836","4","confid","","","html-slider-response","1269","748242","0.0-4.0-10.142-0.142","","","","Rate your confidence","1",""
"110","e","choice","left","e","experimental","1276","750147","0.0-4.0-8.143","true","144","3.05","","",""
"1481","3","confid","","","html-slider-response","1278","752134","0.0-4.0-10.143-0.143","","","","Rate your confidence","1",""
"26","e","choice","left","e","experimental","1285","753955","0.0-4.0-8.144","true","145","3.05","","",""
"1261","4","confid","","","html-slider-response","1287","755723","0.0-4.0-10.144-0.144","","","","Rate your confidence","1",""
"214.99999999988358","i","choice","right","i","experimental","1294","757733","0.0-4.0-8.145","true","146","2.9499999999999997","","",""
"1411.0000000001164","3","confid","","","html-slider-response","1296","759649","0.0-4.0-10.145-0.145","","","","Rate your confidence","1",""
"155.00000000011642","e","choice","left","e","experimental","1303","761600","0.0-4.0-8.146","true","147","2.9499999999999997","","",""
"1316.0000000001164","4","confid","","","html-slider-response","1305","763423","0.0-4.0-10.146-0.146","","","","Rate your confidence","1",""
"551","i","choice","right","i","experimental","1312","765767","0.0-4.0-8.147","true","148","2.8499999999999996","","",""
"2588","3","confid","","","html-slider-response","1314","768860","0.0-4.0-10.147-0.147","","","","Rate your confidence","1",""
"175","e","choice","left","e","experimental","1321","770827","0.0-4.0-8.148","true","149","2.8499999999999996","","",""
"2642.0000000001164","4","confid","","","html-slider-response","1323","773975","0.0-4.0-10.148-0.148","","","","Rate your confidence","1",""
"174.99999999988358","i","choice","right","i","experimental","1330","775943","0.0-4.0-8.149","true","150","2.7499999999999996","","",""
"2513","4","confid","","","html-slider-response","1332","778966","0.0-4.0-10.149-0.149","","","","Rate your confidence","1",""
"272","i","choice","left","e","experimental","1339","781032","0.0-4.0-8.150","false","151","2.7499999999999996","","",""
"4356","2","confid","","","html-slider-response","1341","785894","0.0-4.0-10.150-0.150","","","","Rate your confidence","1",""
"274","i","choice","right","i","experimental","1348","787957","0.0-4.0-8.151","true","152","2.8499999999999996","","",""
"2029","3","confid","","","html-slider-response","1350","790492","0.0-4.0-10.151-0.151","","","","Rate your confidence","1",""
"417","i","choice","right","i","experimental","1358","794210","0.0-4.0-8.152","true","153","2.8499999999999996","","",""
"2745.9999999998836","3","confid","","","html-slider-response","1360","797465","0.0-4.0-10.152-0.152","","","","Rate your confidence","1",""
"596","e","choice","left","e","experimental","1367","799857","0.0-4.0-8.153","true","154","2.7499999999999996","","",""
"2024","3","confid","","","html-slider-response","1369","802387","0.0-4.0-10.153-0.153","","","","Rate your confidence","1",""
"285","e","choice","left","e","experimental","1376","804470","0.0-4.0-8.154","true","155","2.7499999999999996","","",""
"2021","3","confid","","","html-slider-response","1378","806996","0.0-4.0-10.154-0.154","","","","Rate your confidence","1",""
"373.9999999998836","i","choice","right","i","experimental","1385","809164","0.0-4.0-8.155","true","156","2.6499999999999995","","",""
"1639","4","confid","","","html-slider-response","1387","811309","0.0-4.0-10.155-0.155","","","","Rate your confidence","1",""
"115","e","choice","right","i","experimental","1394","813216","0.0-4.0-8.156","false","157","2.6499999999999995","","",""
"1206","3","confid","","","html-slider-response","1396","814927","0.0-4.0-10.156-0.156","","","","Rate your confidence","1",""
"260.9999999998836","i","choice","left","e","experimental","1403","816979","0.0-4.0-8.157","false","158","2.7499999999999996","","",""
"1561","2","confid","","","html-slider-response","1405","819047","0.0-4.0-10.157-0.157","","","","Rate your confidence","1",""
"281","i","choice","right","i","experimental","1412","821123","0.0-4.0-8.158","true","159","2.8499999999999996","","",""
"2441","4","confid","","","html-slider-response","1414","824070","0.0-4.0-10.158-0.158","","","","Rate your confidence","1",""
"637.0000000001164","e","choice","left","e","experimental","1421","826502","0.0-4.0-8.159","true","160","2.8499999999999996","","",""
"2997","4","confid","","","html-slider-response","1423","830004","0.0-4.0-10.159-0.159","","","","Rate your confidence","1",""
"380","e","choice","right","i","experimental","1430","832182","0.0-4.0-8.160","false","161","2.7499999999999996","","",""
"2506.9999999998836","4","confid","","","html-slider-response","1432","835195","0.0-4.0-10.160-0.160","","","","Rate your confidence","1",""
"1593.0000000001164","e","choice","left","e","experimental","1439","838588","0.0-4.0-8.161","true","162","2.8499999999999996","","",""
"1152","3","confid","","","html-slider-response","1441","840245","0.0-4.0-10.161-0.161","","","","Rate your confidence","1",""
"458","e","choice","left","e","experimental","1448","842493","0.0-4.0-8.162","true","163","2.8499999999999996","","",""
"2782","3","confid","","","html-slider-response","1450","845781","0.0-4.0-10.162-0.162","","","","Rate your confidence","1",""
"287","i","choice","right","i","experimental","1457","847859","0.0-4.0-8.163","true","164","2.7499999999999996","","",""
"1818","4","confid","","","html-slider-response","1459","850184","0.0-4.0-10.163-0.163","","","","Rate your confidence","1",""
"77","e","choice","left","e","experimental","1466","852052","0.0-4.0-8.164","true","165","2.7499999999999996","","",""
"1286","3","confid","","","html-slider-response","1468","853846","0.0-4.0-10.164-0.164","","","","Rate your confidence","1",""
"76","e","choice","right","i","experimental","1475","855713","0.0-4.0-8.165","false","166","2.6499999999999995","","",""
"1143","5","confid","","","html-slider-response","1477","857362","0.0-4.0-10.165-0.165","","","","Rate your confidence","1",""
"237","i","choice","left","e","experimental","1484","859391","0.0-4.0-8.166","false","167","2.7499999999999996","","",""
"1838","3","confid","","","html-slider-response","1486","861734","0.0-4.0-10.166-0.166","","","","Rate your confidence","1",""
"357","i","choice","right","i","experimental","1493","863883","0.0-4.0-8.167","true","168","2.8499999999999996","","",""
"1677","4","confid","","","html-slider-response","1495","866064","0.0-4.0-10.167-0.167","","","","Rate your confidence","1",""
"84.00000000011642","e","choice","right","i","experimental","1502","867947","0.0-4.0-8.168","false","169","2.8499999999999996","","",""
"1118","3","confid","","","html-slider-response","1504","869571","0.0-4.0-10.168-0.168","","","","Rate your confidence","1",""
"213.99999999988358","i","choice","left","e","experimental","1511","871580","0.0-4.0-8.169","false","170","2.9499999999999997","","",""
"1178.9999999998836","4","confid","","","html-slider-response","1513","873265","0.0-4.0-10.169-0.169","","","","Rate your confidence","1",""
"153","e","choice","left","e","experimental","1520","875210","0.0-4.0-8.170","true","171","3.05","","",""
"1589","4","confid","","","html-slider-response","1522","877304","0.0-4.0-10.170-0.170","","","","Rate your confidence","1",""
"297","i","choice","right","i","experimental","1529","879392","0.0-4.0-8.171","true","172","3.05","","",""
"1335","4","confid","","","html-slider-response","1531","881233","0.0-4.0-10.171-0.171","","","","Rate your confidence","1",""
"352","i","choice","right","i","experimental","1538","883374","0.0-4.0-8.172","true","173","2.9499999999999997","","",""
"1296","4","confid","","","html-slider-response","1540","885177","0.0-4.0-10.172-0.172","","","","Rate your confidence","1",""
"277.0000000001164","i","choice","left","e","experimental","1547","887245","0.0-4.0-8.173","false","174","2.9499999999999997","","",""
"1859","4","confid","","","html-slider-response","1549","889611","0.0-4.0-10.173-0.173","","","","Rate your confidence","1",""
"173","i","choice","right","i","experimental","1556","891580","0.0-4.0-8.174","true","175","3.05","","",""
"1422","4","confid","","","html-slider-response","1558","893507","0.0-4.0-10.174-0.174","","","","Rate your confidence","1",""
"603","i","choice","left","e","experimental","1565","895905","0.0-4.0-8.175","false","176","3.05","","",""
"1697.9999999998836","2","confid","","","html-slider-response","1567","898110","0.0-4.0-10.175-0.175","","","","Rate your confidence","1",""
"207","i","choice","right","i","experimental","1574","900111","0.0-4.0-8.176","true","177","3.15","","",""
"1212","3","confid","","","html-slider-response","1576","901829","0.0-4.0-10.176-0.176","","","","Rate your confidence","1",""
"244","i","choice","left","e","experimental","1583","903863","0.0-4.0-8.177","false","178","3.15","","",""
"1856","2","confid","","","html-slider-response","1585","906223","0.0-4.0-10.177-0.177","","","","Rate your confidence","1",""
"205","i","choice","right","i","experimental","1592","908216","0.0-4.0-8.178","true","179","3.25","","",""
"1205","5","confid","","","html-slider-response","1594","909928","0.0-4.0-10.178-0.178","","","","Rate your confidence","1",""
"984.9999999998836","e","choice","left","e","experimental","1601","912705","0.0-4.0-8.179","true","180","3.25","","",""
"2290","4","confid","","","html-slider-response","1603","915501","0.0-4.0-10.179-0.179","","","","Rate your confidence","1",""
"634","e","choice","left","e","experimental","1610","917932","0.0-4.0-8.180","true","181","3.15","","",""
"2519.9999999998836","3","confid","","","html-slider-response","1612","920961","0.0-4.0-10.180-0.180","","","","Rate your confidence","1",""
"125","i","choice","right","i","experimental","1619","922877","0.0-4.0-8.181","true","182","3.15","","",""
"2035","3","confid","","","html-slider-response","1621","925419","0.0-4.0-10.181-0.181","","","","Rate your confidence","1",""
"192.99999999988358","i","choice","right","i","experimental","1628","927402","0.0-4.0-8.182","true","183","3.05","","",""
"1668","4","confid","","","html-slider-response","1630","929576","0.0-4.0-10.182-0.182","","","","Rate your confidence","1",""
"440","i","choice","left","e","experimental","1637","931811","0.0-4.0-8.183","false","184","3.05","","",""
"1535","4","confid","","","html-slider-response","1639","933853","0.0-4.0-10.183-0.183","","","","Rate your confidence","1",""
"217","i","choice","right","i","experimental","1646","935862","0.0-4.0-8.184","true","185","3.15","","",""
"1386","4","confid","","","html-slider-response","1648","937753","0.0-4.0-10.184-0.184","","","","Rate your confidence","1",""
"937","e","choice","left","e","experimental","1655","940482","0.0-4.0-8.185","true","186","3.15","","",""
"4743.000000000116","3","confid","","","html-slider-response","1657","945732","0.0-4.0-10.185-0.185","","","","Rate your confidence","1",""
"1528","i","choice","right","i","experimental","1664","949056","0.0-4.0-8.186","true","187","3.05","","",""
"10372","3","confid","","","html-slider-response","1666","959936","0.0-4.0-10.186-0.186","","","","Rate your confidence","1",""
"861","e","choice","left","e","experimental","1673","962595","0.0-4.0-8.187","true","188","3.05","","",""
"1459","3","confid","","","html-slider-response","1675","964561","0.0-4.0-10.187-0.187","","","","Rate your confidence","1",""
"279","i","choice","right","i","experimental","1682","966624","0.0-4.0-8.188","true","189","2.9499999999999997","","",""
"1377","4","confid","","","html-slider-response","1684","968506","0.0-4.0-10.188-0.188","","","","Rate your confidence","1",""
"478","i","choice","left","e","experimental","1691","970773","0.0-4.0-8.189","false","190","2.9499999999999997","","",""
"1618.9999999998836","4","confid","","","html-slider-response","1693","972899","0.0-4.0-10.189-0.189","","","","Rate your confidence","1",""
"178","i","choice","right","i","experimental","1700","974870","0.0-4.0-8.190","true","191","3.05","","",""
"3310","4","confid","","","html-slider-response","1702","978685","0.0-4.0-10.190-0.190","","","","Rate your confidence","1",""
"691.0000000001164","e","choice","left","e","experimental","1709","981165","0.0-4.0-8.191","true","192","3.05","","",""
"1578","4","confid","","","html-slider-response","1711","983248","0.0-4.0-10.191-0.191","","","","Rate your confidence","1",""
"257.9999999998836","i","choice","right","i","experimental","1718","985303","0.0-4.0-8.192","true","193","2.9499999999999997","","",""
"1393","4","confid","","","html-slider-response","1720","987203","0.0-4.0-10.192-0.192","","","","Rate your confidence","1",""
"143.00000000011642","i","choice","left","e","experimental","1727","989140","0.0-4.0-8.193","false","194","2.9499999999999997","","",""
"1177","4","confid","","","html-slider-response","1729","990825","0.0-4.0-10.193-0.193","","","","Rate your confidence","1","49371"
