"rt","response","task","target_side","correct_response","trial_type","trial_index","time_elapsed","internal_node_id","correct","trial_number","n_dots","stimulus","slider_start","participant"
"193","i","choice","right","i","practice","10","75246","0.0-4.0-8.0","true","1","4.25","","",""
"387","i","choice","left","e","practice","18","77924","0.0-4.0-8.1","false","2","4.25","","",""
"337.99999999998545","i","choice","right","i","practice","26","80551","0.0-4.0-8.2","true","3","4.65","","",""
"297","e","choice","left","e","practice","34","83136","0.0-4.0-8.3","true","4","4.65","","",""
"347","i","choice","right","i","practice","42","85771","0.0-4.0-8.4","true","5","4.25","","",""
"262","e","choice","left","e","practice","50","88324","0.0-4.0-8.5","true","6","4.25","","",""
"326.99999999998545","e","choice","left","e","practice","58","90936","0.0-4.0-8.6","true","7","4.05","","",""
"389","i","choice","right","i","practice","66","93616","0.0-4.0-8.7","true","8","4.05","","",""
"119","e","choice","left","e","practice","74","96024","0.0-4.0-8.8","true","9","3.8499999999999996","","",""
"355","i","choice","right","i","practice","82","98666","0.0-4.0-8.9","true","10","3.8499999999999996","","",""
"320","i","choice","right","i","practice","90","101278","0.0-4.0-8.10","true","11","3.6499999999999995","","",""
"506","e","choice","left","e","practice","98","104074","0.0-4.0-8.11","true","12","3.6499999999999995","","",""
"294","e","choice","left","e","practice","106","106657","0.0-4.0-8.12","true","13","3.5499999999999994","","",""
"444","i","choice","right","i","practice","114","109389","0.0-4.0-8.13","true","14","3.5499999999999994","","",""
"297","e","choice","left","e","practice","122","111976","0.0-4.0-8.14","true","15","3.4499999999999993","","",""
"353.00000000001455","i","choice","right","i","practice","130","114617","0.0-4.0-8.15","true","16","3.4499999999999993","","",""
"284","e","choice","left","e","practice","138","117190","0.0-4.0-8.16","true","17","3.349999999999999","","",""
"277.99999999998545","i","choice","right","i","practice","146","119763","0.0-4.0-8.17","true","18","3.349999999999999","","",""
"418","e","choice","right","i","practice","154","122476","0.0-4.0-8.18","false","19","3.249999999999999","","",""
"311.99999999998545","e","choice","left","e","practice","162","125081","0.0-4.0-8.19","true","20","3.349999999999999","","",""
"291","e","choice","left","e","practice","170","127659","0.0-4.0-8.20","true","21","3.349999999999999","","",""
"494","i","choice","right","i","practice","178","130444","0.0-4.0-8.21","true","22","3.249999999999999","","",""
"2173.000000000029","e","choice","right","i","practice","186","134907","0.0-4.0-8.22","false","23","3.249999999999999","","",""
"315","e","choice","left","e","practice","194","137511","0.0-4.0-8.23","true","24","3.349999999999999","","",""
"290","i","choice","left","e","practice","202","140085","0.0-4.0-8.24","false","25","3.349999999999999","","",""
"387","i","choice","right","i","practice","210","142765","0.0-4.0-8.25","true","26","3.4499999999999993","","",""
"203","i","choice","right","i","experimental","221","169784","0.0-4.0-8.26","true","27","3.4499999999999993","","",""
"3580","5","confid","","","html-slider-response","223","173870","0.0-4.0-10.26-0.26","","","","Rate your confidence","1",""
"311.0000000000291","e","choice","left","e","experimental","230","175965","0.0-4.0-8.27","true","28","3.349999999999999","","",""
"2516","5","confid","","","html-slider-response","232","178990","0.0-4.0-10.27-0.27","","","","Rate your confidence","1",""
"347","i","choice","left","e","experimental","239","181120","0.0-4.0-8.28","false","29","3.349999999999999","","",""
"3154.000000000029","5","confid","","","html-slider-response","241","184780","0.0-4.0-10.28-0.28","","","","Rate your confidence","1",""
"710.0000000000291","i","choice","right","i","experimental","248","187275","0.0-4.0-8.29","true","30","3.4499999999999993","","",""
"3467","5","confid","","","html-slider-response","250","191248","0.0-4.0-10.29-0.29","","","","Rate your confidence","1",""
"696.9999999999709","i","choice","left","e","experimental","257","193733","0.0-4.0-8.30","false","31","3.4499999999999993","","",""
"3122","5","confid","","","html-slider-response","259","197363","0.0-4.0-10.30-0.30","","","","Rate your confidence","1",""
"286.9999999999709","i","choice","right","i","experimental","266","199436","0.0-4.0-8.31","true","32","3.5499999999999994","","",""
"2856.000000000029","5","confid","","","html-slider-response","268","202797","0.0-4.0-10.31-0.31","","","","Rate your confidence","1",""
"534","e","choice","left","e","experimental","275","205117","0.0-4.0-8.32","true","33","3.5499999999999994","","",""
"2289","4","confid","","","html-slider-response","277","207912","0.0-4.0-10.32-0.32","","","","Rate your confidence","1",""
"246.0000000000291","i","choice","right","i","experimental","284","209947","0.0-4.0-8.33","true","34","3.4499999999999993","","",""
"3392.000000000029","5","confid","","","html-slider-response","286","213845","0.0-4.0-10.33-0.33","","","","Rate your confidence","1",""
"295","e","choice","left","e","experimental","293","215925","0.0-4.0-8.34","true","35","3.4499999999999993","","",""
"1797","4","confid","","","html-slider-response","295","218227","0.0-4.0-10.34-0.34","","","","Rate your confidence","1",""
"156.9999999999709","i","choice","right","i","experimental","302","220168","0.0-4.0-8.35","true","36","3.349999999999999","","",""
"3003.000000000029","5","confid","","","html-slider-response","304","223678","0.0-4.0-10.35-0.35","","","","Rate your confidence","1",""
"373","i","choice","right","i","experimental","311","225839","0.0-4.0-8.36","true","37","3.349999999999999","","",""
"3303","4","confid","","","html-slider-response","313","229646","0.0-4.0-10.36-0.36","","","","Rate your confidence","1",""
"184","e","choice","left","e","experimental","320","231617","0.0-4.0-8.37","true","38","3.249999999999999","","",""
"1951","4","confid","","","html-slider-response","322","234074","0.0-4.0-10.37-0.37","","","","Rate your confidence","1",""
"380","i","choice","right","i","experimental","329","236239","0.0-4.0-8.38","true","39","3.249999999999999","","",""
"4306.999999999971","4","confid","","","html-slider-response","331","241050","0.0-4.0-10.38-0.38","","","","Rate your confidence","1",""
"455","e","choice","left","e","experimental","338","243290","0.0-4.0-8.39","true","40","3.149999999999999","","",""
"1613","5","confid","","","html-slider-response","340","245408","0.0-4.0-10.39-0.39","","","","Rate your confidence","1",""
"355","i","choice","right","i","experimental","347","247551","0.0-4.0-8.40","true","41","3.149999999999999","","",""
"2141","5","confid","","","html-slider-response","349","250198","0.0-4.0-10.40-0.40","","","","Rate your confidence","1",""
"395","i","choice","left","e","experimental","356","252381","0.0-4.0-8.41","false","42","3.049999999999999","","",""
"1950.0000000000582","5","confid","","","html-slider-response","358","254840","0.0-4.0-10.41-0.41","","","","Rate your confidence","1",""
"280.9999999999709","e","choice","right","i","experimental","365","256907","0.0-4.0-8.42","false","43","3.149999999999999","","",""
"1909","4","confid","","","html-slider-response","367","259322","0.0-4.0-10.42-0.42","","","","Rate your confidence","1",""
"259.9999999999418","e","choice","left","e","experimental","374","261369","0.0-4.0-8.43","true","44","3.249999999999999","","",""
"2537","4","confid","","","html-slider-response","376","264410","0.0-4.0-10.43-0.43","","","","Rate your confidence","1",""
"339","i","choice","right","i","experimental","383","266536","0.0-4.0-8.44","true","45","3.249999999999999","","",""
"2368","4","confid","","","html-slider-response","385","269409","0.0-4.0-10.44-0.44","","","","Rate your confidence","1",""
"568","e","choice","left","e","experimental","392","271762","0.0-4.0-8.45","true","46","3.149999999999999","","",""
"1840","4","confid","","","html-slider-response","394","274108","0.0-4.0-10.45-0.45","","","","Rate your confidence","1",""
"600","e","choice","left","e","experimental","401","276487","0.0-4.0-8.46","true","47","3.149999999999999","","",""
"1834","4","confid","","","html-slider-response","403","278826","0.0-4.0-10.46-0.46","","","","Rate your confidence","1",""
"597.0000000000582","e","choice","right","i","experimental","410","281210","0.0-4.0-8.47","false","48","3.049999999999999","","",""
"3802","4","confid","","","html-slider-response","412","285517","0.0-4.0-10.47-0.47","","","","Rate your confidence","1",""
"680.9999999999418","i","choice","right","i","experimental","419","287979","0.0-4.0-8.48","true","49","3.149999999999999","","",""
"1481","4","confid","","","html-slider-response","421","289963","0.0-4.0-10.48-0.48","","","","Rate your confidence","1",""
"378","e","choice","left","e","experimental","428","292131","0.0-4.0-8.49","true","50","3.149999999999999","","",""
"1692","4","confid","","","html-slider-response","430","294326","0.0-4.0-10.49-0.49","","","","Rate your confidence","1",""
"137","e","choice","left","e","experimental","437","296248","0.0-4.0-8.50","true","51","3.049999999999999","","",""
"2049","4","confid","","","html-slider-response","439","298803","0.0-4.0-10.50-0.50","","","","Rate your confidence","1",""
"388","i","choice","right","i","experimental","446","300976","0.0-4.0-8.51","true","52","3.049999999999999","","",""
"1807.9999999999418","4","confid","","","html-slider-response","448","303291","0.0-4.0-10.51-0.51","","","","Rate your confidence","1",""
"237","e","choice","left","e","experimental","455","305314","0.0-4.0-8.52","true","53","2.949999999999999","","",""
"1974.9999999999418","4","confid","","","html-slider-response","457","307796","0.0-4.0-10.52-0.52","","","","Rate your confidence","1",""
"521.9999999999418","i","choice","right","i","experimental","464","310106","0.0-4.0-8.53","true","54","2.949999999999999","","",""
"1764","4","confid","","","html-slider-response","466","312375","0.0-4.0-10.53-0.53","","","","Rate your confidence","1",""
"463","i","choice","left","e","experimental","473","314624","0.0-4.0-8.54","false","55","2.8499999999999988","","",""
"2074.999999999942","5","confid","","","html-slider-response","475","317207","0.0-4.0-10.54-0.54","","","","Rate your confidence","1",""
"329","e","choice","right","i","experimental","482","319313","0.0-4.0-8.55","false","56","2.949999999999999","","",""
"3471","4","confid","","","html-slider-response","484","323289","0.0-4.0-10.55-0.55","","","","Rate your confidence","1",""
"74","i","choice","left","e","experimental","491","325153","0.0-4.0-8.56","false","57","3.049999999999999","","",""
"2633","4","confid","","","html-slider-response","493","328291","0.0-4.0-10.56-0.56","","","","Rate your confidence","1",""
"82","e","choice","right","i","experimental","500","330161","0.0-4.0-8.57","false","58","3.149999999999999","","",""
"1634","4","confid","","","html-slider-response","502","332301","0.0-4.0-10.57-0.57","","","","Rate your confidence","1",""
"142","i","choice","left","e","experimental","509","334235","0.0-4.0-8.58","false","59","3.249999999999999","","",""
"1420","4","confid","","","html-slider-response","511","336161","0.0-4.0-10.58-0.58","","","","Rate your confidence","1",""
"449","e","choice","right","i","experimental","518","338398","0.0-4.0-8.59","false","60","3.349999999999999","","",""
"1693","4","confid","","","html-slider-response","520","340594","0.0-4.0-10.59-0.59","","","","Rate your confidence","1",""
"146.9999999999418","i","choice","right","i","experimental","527","342527","0.0-4.0-8.60","true","61","3.4499999999999993","","",""
"3602","4","confid","","","html-slider-response","529","346635","0.0-4.0-10.60-0.60","","","","Rate your confidence","1",""
"168","e","choice","left","e","experimental","536","348591","0.0-4.0-8.61","true","62","3.4499999999999993","","",""
"2705","4","confid","","","html-slider-response","538","351802","0.0-4.0-10.61-0.61","","","","Rate your confidence","1",""
"174","e","choice","left","e","experimental","545","353765","0.0-4.0-8.62","true","63","3.349999999999999","","",""
"3194","4","confid","","","html-slider-response","547","357469","0.0-4.0-10.62-0.62","","","","Rate your confidence","1",""
"454","i","choice","right","i","experimental","554","359714","0.0-4.0-8.63","true","64","3.349999999999999","","",""
"2873","4","confid","","","html-slider-response","556","363094","0.0-4.0-10.63-0.63","","","","Rate your confidence","1",""
"563","e","choice","right","i","experimental","563","365435","0.0-4.0-8.64","false","65","3.249999999999999","","",""
"1667","4","confid","","","html-slider-response","565","367609","0.0-4.0-10.64-0.64","","","","Rate your confidence","1",""
"652","i","choice","left","e","experimental","572","370037","0.0-4.0-8.65","false","66","3.349999999999999","","",""
"2641.000000000058","4","confid","","","html-slider-response","574","373184","0.0-4.0-10.65-0.65","","","","Rate your confidence","1",""
"390.9999999999418","e","choice","right","i","experimental","581","375360","0.0-4.0-8.66","false","67","3.4499999999999993","","",""
"2769","4","confid","","","html-slider-response","583","378635","0.0-4.0-10.66-0.66","","","","Rate your confidence","1",""
"376","e","choice","left","e","experimental","590","380795","0.0-4.0-8.67","true","68","3.5499999999999994","","",""
"3020","4","confid","","","html-slider-response","592","384322","0.0-4.0-10.67-0.67","","","","Rate your confidence","1",""
"168","e","choice","left","e","experimental","600","392181","0.0-4.0-8.68","true","69","3.5499999999999994","","",""
"1992","4","confid","","","html-slider-response","602","394676","0.0-4.0-10.68-0.68","","","","Rate your confidence","1",""
"263","i","choice","right","i","experimental","609","396728","0.0-4.0-8.69","true","70","3.4499999999999993","","",""
"1699","4","confid","","","html-slider-response","611","398932","0.0-4.0-10.69-0.69","","","","Rate your confidence","1",""
"849.9999999999418","i","choice","right","i","experimental","618","401564","0.0-4.0-8.70","true","71","3.4499999999999993","","",""
"2866","4","confid","","","html-slider-response","620","404934","0.0-4.0-10.70-0.70","","","","Rate your confidence","1",""
"87.99999999994179","e","choice","left","e","experimental","627","406806","0.0-4.0-8.71","true","72","3.349999999999999","","",""
"1670","5","confid","","","html-slider-response","629","408984","0.0-4.0-10.71-0.71","","","","Rate your confidence","1",""
"644.9999999999418","i","choice","left","e","experimental","636","411411","0.0-4.0-8.72","false","73","3.349999999999999","","",""
"1843","4","confid","","","html-slider-response","638","413759","0.0-4.0-10.72-0.72","","","","Rate your confidence","1",""
"664","e","choice","right","i","experimental","645","416212","0.0-4.0-8.73","false","74","3.4499999999999993","","",""
"3121.999999999942","5","confid","","","html-slider-response","647","419840","0.0-4.0-10.73-0.73","","","","Rate your confidence","1",""
"573.0000000000582","e","choice","right","i","experimental","654","422189","0.0-4.0-8.74","false","75","3.5499999999999994","","",""
"2664","5","confid","","","html-slider-response","656","425359","0.0-4.0-10.74-0.74","","","","Rate your confidence","1",""
"341","e","choice","left","e","experimental","663","427490","0.0-4.0-8.75","true","76","3.6499999999999995","","",""
"1571","4","confid","","","html-slider-response","665","429566","0.0-4.0-10.75-0.75","","","","Rate your confidence","1",""
"150","i","choice","right","i","experimental","672","431498","0.0-4.0-8.76","true","77","3.6499999999999995","","",""
"2282","4","confid","","","html-slider-response","674","434288","0.0-4.0-10.76-0.76","","","","Rate your confidence","1",""
"564","i","choice","left","e","experimental","681","436638","0.0-4.0-8.77","false","78","3.5499999999999994","","",""
"2608","5","confid","","","html-slider-response","683","439752","0.0-4.0-10.77-0.77","","","","Rate your confidence","1",""
"529","e","choice","left","e","experimental","690","442070","0.0-4.0-8.78","true","79","3.6499999999999995","","",""
"3233","4","confid","","","html-slider-response","692","445810","0.0-4.0-10.78-0.78","","","","Rate your confidence","1",""
"476","i","choice","right","i","experimental","699","448065","0.0-4.0-8.79","true","80","3.6499999999999995","","",""
"3353","5","confid","","","html-slider-response","701","451923","0.0-4.0-10.79-0.79","","","","Rate your confidence","1",""
"626.9999999999418","e","choice","left","e","experimental","708","454340","0.0-4.0-8.80","true","81","3.5499999999999994","","",""
"1958","5","confid","","","html-slider-response","710","456803","0.0-4.0-10.80-0.80","","","","Rate your confidence","1",""
"105","i","choice","right","i","experimental","717","458700","0.0-4.0-8.81","true","82","3.5499999999999994","","",""
"1739","4","confid","","","html-slider-response","719","460946","0.0-4.0-10.81-0.81","","","","Rate your confidence","1",""
"92","e","choice","left","e","experimental","726","462829","0.0-4.0-8.82","true","83","3.4499999999999993","","",""
"2244.000000000058","5","confid","","","html-slider-response","728","465579","0.0-4.0-10.82-0.82","","","","Rate your confidence","1",""
"2","e","choice","right","i","experimental","735","467368","0.0-4.0-8.83","false","84","3.4499999999999993","","",""
"1684","4","confid","","","html-slider-response","737","469558","0.0-4.0-10.83-0.83","","","","Rate your confidence","1",""
"0","i","choice","left","e","experimental","744","471339","0.0-4.0-8.84","false","85","3.5499999999999994","","",""
"1398","4","confid","","","html-slider-response","746","473243","0.0-4.0-10.84-0.84","","","","Rate your confidence","1",""
"634.9999999999418","i","choice","right","i","experimental","753","475655","0.0-4.0-8.85","true","86","3.6499999999999995","","",""
"2365","4","confid","","","html-slider-response","755","478524","0.0-4.0-10.85-0.85","","","","Rate your confidence","1",""
"796","i","choice","left","e","experimental","762","481107","0.0-4.0-8.86","false","87","3.6499999999999995","","",""
"2817","4","confid","","","html-slider-response","764","484429","0.0-4.0-10.86-0.86","","","","Rate your confidence","1",""
"508","i","choice","right","i","experimental","771","486721","0.0-4.0-8.87","true","88","3.7499999999999996","","",""
"3039","4","confid","","","html-slider-response","773","490265","0.0-4.0-10.87-0.87","","","","Rate your confidence","1",""
"251","i","choice","right","i","experimental","780","492304","0.0-4.0-8.88","true","89","3.7499999999999996","","",""
"1462.9999999999418","4","confid","","","html-slider-response","782","494275","0.0-4.0-10.88-0.88","","","","Rate your confidence","1",""
"336.9999999999418","e","choice","left","e","experimental","789","496392","0.0-4.0-8.89","true","90","3.6499999999999995","","",""
"2802.000000000058","4","confid","","","html-slider-response","791","499698","0.0-4.0-10.89-0.89","","","","Rate your confidence","1",""
"233","i","choice","right","i","experimental","798","501717","0.0-4.0-8.90","true","91","3.6499999999999995","","",""
"1551","4","confid","","","html-slider-response","800","503773","0.0-4.0-10.90-0.90","","","","Rate your confidence","1",""
"188","e","choice","left","e","experimental","807","505749","0.0-4.0-8.91","true","92","3.5499999999999994","","",""
"2919.000000000058","4","confid","","","html-slider-response","809","509174","0.0-4.0-10.91-0.91","","","","Rate your confidence","1",""
"59.99999999994179","e","choice","left","e","experimental","816","511023","0.0-4.0-8.92","true","93","3.5499999999999994","","",""
"5323","4","confid","","","html-slider-response","818","516853","0.0-4.0-10.92-0.92","","","","Rate your confidence","1",""
"275","i","choice","right","i","experimental","825","518917","0.0-4.0-8.93","true","94","3.4499999999999993","","",""
"1904","5","confid","","","html-slider-response","827","521326","0.0-4.0-10.93-0.93","","","","Rate your confidence","1",""
"164","i","choice","right","i","experimental","834","523278","0.0-4.0-8.94","true","95","3.4499999999999993","","",""
"2589","4","confid","","","html-slider-response","836","526372","0.0-4.0-10.94-0.94","","","","Rate your confidence","1",""
"18.000000000116415","e","choice","left","e","experimental","843","528174","0.0-4.0-8.95","true","96","3.349999999999999","","",""
"1876","4","confid","","","html-slider-response","845","530556","0.0-4.0-10.95-0.95","","","","Rate your confidence","1",""
"222","e","choice","left","e","experimental","852","532562","0.0-4.0-8.96","true","97","3.349999999999999","","",""
"1876.9999999998836","4","confid","","","html-slider-response","854","534944","0.0-4.0-10.96-0.96","","","","Rate your confidence","1",""
"176","i","choice","right","i","experimental","861","536909","0.0-4.0-8.97","true","98","3.249999999999999","","",""
"1959","4","confid","","","html-slider-response","863","539373","0.0-4.0-10.97-0.97","","","","Rate your confidence","1",""
"138","i","choice","right","i","experimental","870","541300","0.0-4.0-8.98","true","99","3.249999999999999","","",""
"1933","4","confid","","","html-slider-response","872","543737","0.0-4.0-10.98-0.98","","","","Rate your confidence","1",""
"83","i","choice","left","e","experimental","879","545611","0.0-4.0-8.99","false","100","3.149999999999999","","",""
"1537","5","confid","","","html-slider-response","881","547653","0.0-4.0-10.99-0.99","","","","Rate your confidence","1",""
"493","i","choice","right","i","experimental","888","549933","0.0-4.0-8.100","true","101","3.249999999999999","","",""
"1437","4","confid","","","html-slider-response","890","551874","0.0-4.0-10.100-0.100","","","","Rate your confidence","1",""
"211","e","choice","left","e","experimental","897","553873","0.0-4.0-8.101","true","102","3.249999999999999","","",""
"1774","4","confid","","","html-slider-response","899","556151","0.0-4.0-10.101-0.101","","","","Rate your confidence","1",""
"272","i","choice","right","i","experimental","906","558213","0.0-4.0-8.102","true","103","3.149999999999999","","",""
"1894","4","confid","","","html-slider-response","908","560613","0.0-4.0-10.102-0.102","","","","Rate your confidence","1",""
"41","e","choice","left","e","experimental","915","562442","0.0-4.0-8.103","true","104","3.149999999999999","","",""
"1731","4","confid","","","html-slider-response","917","564678","0.0-4.0-10.103-0.103","","","","Rate your confidence","1",""
"296.9999999998836","i","choice","right","i","experimental","924","566763","0.0-4.0-8.104","true","105","3.049999999999999","","",""
"1727","4","confid","","","html-slider-response","926","568996","0.0-4.0-10.104-0.104","","","","Rate your confidence","1",""
"275.9999999998836","i","choice","left","e","experimental","933","571063","0.0-4.0-8.105","false","106","3.049999999999999","","",""
"1386","4","confid","","","html-slider-response","935","572955","0.0-4.0-10.105-0.105","","","","Rate your confidence","1",""
"531.9999999998836","e","choice","left","e","experimental","942","575276","0.0-4.0-8.106","true","107","3.149999999999999","","",""
"4945","4","confid","","","html-slider-response","944","580727","0.0-4.0-10.106-0.106","","","","Rate your confidence","1",""
"7","i","choice","right","i","experimental","951","582518","0.0-4.0-8.107","true","108","3.149999999999999","","",""
"2822","5","confid","","","html-slider-response","953","585846","0.0-4.0-10.107-0.107","","","","Rate your confidence","1",""
"333.0000000001164","e","choice","left","e","experimental","960","587969","0.0-4.0-8.108","true","109","3.049999999999999","","",""
"1964","4","confid","","","html-slider-response","962","590439","0.0-4.0-10.108-0.108","","","","Rate your confidence","1",""
"732.9999999998836","i","choice","right","i","experimental","969","592948","0.0-4.0-8.109","true","110","3.049999999999999","","",""
"2325","4","confid","","","html-slider-response","971","595778","0.0-4.0-10.109-0.109","","","","Rate your confidence","1",""
"154","e","choice","left","e","experimental","979","599986","0.0-4.0-8.110","true","111","2.949999999999999","","",""
"2506","4","confid","","","html-slider-response","981","602996","0.0-4.0-10.110-0.110","","","","Rate your confidence","1",""
"270","i","choice","right","i","experimental","988","605059","0.0-4.0-8.111","true","112","2.949999999999999","","",""
"2261","4","confid","","","html-slider-response","990","607825","0.0-4.0-10.111-0.111","","","","Rate your confidence","1",""
"33","e","choice","left","e","experimental","997","609643","0.0-4.0-8.112","true","113","2.8499999999999988","","",""
"2069","4","confid","","","html-slider-response","999","612216","0.0-4.0-10.112-0.112","","","","Rate your confidence","1",""
"468","i","choice","right","i","experimental","1006","614462","0.0-4.0-8.113","true","114","2.8499999999999988","","",""
"1886","4","confid","","","html-slider-response","1008","616853","0.0-4.0-10.113-0.113","","","","Rate your confidence","1",""
"87.99999999988358","e","choice","left","e","experimental","1015","618725","0.0-4.0-8.114","true","115","2.7499999999999987","","",""
"2193","4","confid","","","html-slider-response","1017","621423","0.0-4.0-10.114-0.114","","","","Rate your confidence","1",""
"427.0000000001164","i","choice","right","i","experimental","1024","623637","0.0-4.0-8.115","true","116","2.7499999999999987","","",""
"3647.0000000001164","4","confid","","","html-slider-response","1026","627790","0.0-4.0-10.115-0.115","","","","Rate your confidence","1",""
"211","e","choice","left","e","experimental","1033","629779","0.0-4.0-8.116","true","117","2.6499999999999986","","",""
"1750.9999999998836","4","confid","","","html-slider-response","1035","632036","0.0-4.0-10.116-0.116","","","","Rate your confidence","1",""
"294","i","choice","right","i","experimental","1042","634116","0.0-4.0-8.117","true","118","2.6499999999999986","","",""
"2801","4","confid","","","html-slider-response","1044","637423","0.0-4.0-10.117-0.117","","","","Rate your confidence","1",""
"148.99999999988358","i","choice","right","i","experimental","1051","639358","0.0-4.0-8.118","true","119","2.5499999999999985","","",""
"1616","4","confid","","","html-slider-response","1053","641479","0.0-4.0-10.118-0.118","","","","Rate your confidence","1",""
"484","e","choice","left","e","experimental","1060","643747","0.0-4.0-8.119","true","120","2.5499999999999985","","",""
"2568","4","confid","","","html-slider-response","1062","646820","0.0-4.0-10.119-0.119","","","","Rate your confidence","1",""
"1017","i","choice","right","i","experimental","1069","649615","0.0-4.0-8.120","true","121","2.4499999999999984","","",""
"2525","4","confid","","","html-slider-response","1071","652645","0.0-4.0-10.120-0.120","","","","Rate your confidence","1",""
"46","e","choice","left","e","experimental","1078","654478","0.0-4.0-8.121","true","122","2.4499999999999984","","",""
"2878","4","confid","","","html-slider-response","1080","657860","0.0-4.0-10.121-0.121","","","","Rate your confidence","1",""
"395","i","choice","right","i","experimental","1087","660043","0.0-4.0-8.122","true","123","2.3499999999999983","","",""
"5851","4","confid","","","html-slider-response","1089","666399","0.0-4.0-10.122-0.122","","","","Rate your confidence","1",""
"69","e","choice","left","e","experimental","1096","668247","0.0-4.0-8.123","true","124","2.3499999999999983","","",""
"2016","4","confid","","","html-slider-response","1098","670771","0.0-4.0-10.123-0.123","","","","Rate your confidence","1",""
"158","e","choice","left","e","experimental","1105","672714","0.0-4.0-8.124","true","125","2.2499999999999982","","",""
"5635","4","confid","","","html-slider-response","1107","678855","0.0-4.0-10.124-0.124","","","","Rate your confidence","1",""
"106","e","choice","right","i","experimental","1114","680745","0.0-4.0-8.125","false","126","2.2499999999999982","","",""
"1959","4","confid","","","html-slider-response","1116","683209","0.0-4.0-10.125-0.125","","","","Rate your confidence","1",""
"209.99999999988358","i","choice","left","e","experimental","1123","685197","0.0-4.0-8.126","false","127","2.3499999999999983","","",""
"3506.0000000001164","4","confid","","","html-slider-response","1125","689207","0.0-4.0-10.126-0.126","","","","Rate your confidence","1",""
"223","i","choice","right","i","experimental","1132","691220","0.0-4.0-8.127","true","128","2.4499999999999984","","",""
"2218","4","confid","","","html-slider-response","1134","693941","0.0-4.0-10.127-0.127","","","","Rate your confidence","1",""
"123","e","choice","left","e","experimental","1141","695848","0.0-4.0-8.128","true","129","2.4499999999999984","","",""
"1646","4","confid","","","html-slider-response","1143","697997","0.0-4.0-10.128-0.128","","","","Rate your confidence","1",""
"766.9999999998836","i","choice","right","i","experimental","1150","700551","0.0-4.0-8.129","true","130","2.3499999999999983","","",""
"1749","4","confid","","","html-slider-response","1152","702805","0.0-4.0-10.129-0.129","","","","Rate your confidence","1",""
"268","e","choice","left","e","experimental","1159","704865","0.0-4.0-8.130","true","131","2.3499999999999983","","",""
"2818","4","confid","","","html-slider-response","1161","708188","0.0-4.0-10.130-0.130","","","","Rate your confidence","1",""
"29.999999999883585","e","choice","right","i","experimental","1168","710011","0.0-4.0-8.131","false","132","2.2499999999999982","","",""
"2839","4","confid","","","html-slider-response","1170","713355","0.0-4.0-10.131-0.131","","","","Rate your confidence","1",""
"474","i","choice","right","i","experimental","1177","715619","0.0-4.0-8.132","true","133","2.3499999999999983","","",""
"1780","4","confid","","","html-slider-response","1179","717904","0.0-4.0-10.132-0.132","","","","Rate your confidence","1",""
"75","e","choice","left","e","experimental","1186","719767","0.0-4.0-8.133","true","134","2.3499999999999983","","",""
"2792","4","confid","","","html-slider-response","1188","723065","0.0-4.0-10.133-0.133","","","","Rate your confidence","1",""
"30","e","choice","left","e","experimental","1195","724882","0.0-4.0-8.134","true","135","2.2499999999999982","","",""
"1982.9999999998836","4","confid","","","html-slider-response","1197","727372","0.0-4.0-10.134-0.134","","","","Rate your confidence","1",""
"45","i","choice","right","i","experimental","1204","729209","0.0-4.0-8.135","true","136","2.2499999999999982","","",""
"2894.9999999998836","4","confid","","","html-slider-response","1206","732611","0.0-4.0-10.135-0.135","","","","Rate your confidence","1",""
"139","e","choice","right","i","experimental","1213","734540","0.0-4.0-8.136","false","137","2.149999999999998","","",""
"2296","4","confid","","","html-slider-response","1215","737342","0.0-4.0-10.136-0.136","","","","Rate your confidence","1",""
"447","i","choice","left","e","experimental","1222","739580","0.0-4.0-8.137","false","138","2.2499999999999982","","",""
"2540","4","confid","","","html-slider-response","1224","742623","0.0-4.0-10.137-0.137","","","","Rate your confidence","1",""
"70.99999999988358","e","choice","right","i","experimental","1231","744484","0.0-4.0-8.138","false","139","2.3499999999999983","","",""
"1883","4","confid","","","html-slider-response","1233","746871","0.0-4.0-10.138-0.138","","","","Rate your confidence","1",""
"197","e","choice","left","e","experimental","1240","748856","0.0-4.0-8.139","true","140","2.4499999999999984","","",""
"2602","4","confid","","","html-slider-response","1242","751963","0.0-4.0-10.139-0.139","","","","Rate your confidence","1",""
"97","i","choice","right","i","experimental","1249","753850","0.0-4.0-8.140","true","141","2.4499999999999984","","",""
"3572","4","confid","","","html-slider-response","1251","757929","0.0-4.0-10.140-0.140","","","","Rate your confidence","1",""
"668","e","choice","left","e","experimental","1258","760386","0.0-4.0-8.141","true","142","2.3499999999999983","","",""
"3235.0000000001164","4","confid","","","html-slider-response","1260","764128","0.0-4.0-10.141-0.141","","","","Rate your confidence","1",""
"208","i","choice","right","i","experimental","1267","766119","0.0-4.0-8.142","true","143","2.3499999999999983","","",""
"1746","5","confid","","","html-slider-response","1269","768368","0.0-4.0-10.142-0.142","","","","Rate your confidence","1",""
"2294","e","choice","left","e","experimental","1276","772448","0.0-4.0-8.143","true","144","2.2499999999999982","","",""
"2536","4","confid","","","html-slider-response","1278","775491","0.0-4.0-10.143-0.143","","","","Rate your confidence","1",""
"661","i","choice","left","e","experimental","1285","777940","0.0-4.0-8.144","false","145","2.2499999999999982","","",""
"1896","4","confid","","","html-slider-response","1287","780344","0.0-4.0-10.144-0.144","","","","Rate your confidence","1",""
"2476.9999999998836","e","choice","right","i","experimental","1294","784610","0.0-4.0-8.145","false","146","2.3499999999999983","","",""
"2844","4","confid","","","html-slider-response","1296","787958","0.0-4.0-10.145-0.145","","","","Rate your confidence","1",""
"306","e","choice","right","i","experimental","1303","790048","0.0-4.0-8.146","false","147","2.4499999999999984","","",""
"2504","4","confid","","","html-slider-response","1305","793058","0.0-4.0-10.146-0.146","","","","Rate your confidence","1",""
"16.000000000116415","e","choice","left","e","experimental","1312","794853","0.0-4.0-8.147","true","148","2.5499999999999985","","",""
"2205","4","confid","","","html-slider-response","1314","797564","0.0-4.0-10.147-0.147","","","","Rate your confidence","1",""
"308","i","choice","right","i","experimental","1321","799658","0.0-4.0-8.148","true","149","2.5499999999999985","","",""
"2015","4","confid","","","html-slider-response","1323","802178","0.0-4.0-10.148-0.148","","","","Rate your confidence","1",""
"26","e","choice","left","e","experimental","1330","803987","0.0-4.0-8.149","true","150","2.4499999999999984","","",""
"2019","4","confid","","","html-slider-response","1332","806511","0.0-4.0-10.149-0.149","","","","Rate your confidence","1",""
"96","i","choice","left","e","experimental","1339","808393","0.0-4.0-8.150","false","151","2.4499999999999984","","",""
"1589.0000000001164","4","confid","","","html-slider-response","1341","810488","0.0-4.0-10.150-0.150","","","","Rate your confidence","1",""
"314","e","choice","right","i","experimental","1348","812591","0.0-4.0-8.151","false","152","2.5499999999999985","","",""
"2597","4","confid","","","html-slider-response","1350","815697","0.0-4.0-10.151-0.151","","","","Rate your confidence","1",""
"311","i","choice","right","i","experimental","1358","819243","0.0-4.0-8.152","true","153","2.6499999999999986","","",""
"2304","4","confid","","","html-slider-response","1360","822052","0.0-4.0-10.152-0.152","","","","Rate your confidence","1",""
"240","e","choice","left","e","experimental","1367","824072","0.0-4.0-8.153","true","154","2.6499999999999986","","",""
"1825.0000000001164","4","confid","","","html-slider-response","1369","826405","0.0-4.0-10.153-0.153","","","","Rate your confidence","1",""
"255","i","choice","left","e","experimental","1376","828448","0.0-4.0-8.154","false","155","2.5499999999999985","","",""
"1932","5","confid","","","html-slider-response","1378","830887","0.0-4.0-10.154-0.154","","","","Rate your confidence","1",""
"427","e","choice","right","i","experimental","1385","833103","0.0-4.0-8.155","false","156","2.6499999999999986","","",""
"2788","4","confid","","","html-slider-response","1387","836396","0.0-4.0-10.155-0.155","","","","Rate your confidence","1",""
"661","e","choice","left","e","experimental","1394","838848","0.0-4.0-8.156","true","157","2.7499999999999987","","",""
"3518","4","confid","","","html-slider-response","1396","842873","0.0-4.0-10.156-0.156","","","","Rate your confidence","1",""
"243.00000000011642","i","choice","right","i","experimental","1403","844900","0.0-4.0-8.157","true","158","2.7499999999999987","","",""
"1729.9999999998836","5","confid","","","html-slider-response","1405","847134","0.0-4.0-10.157-0.157","","","","Rate your confidence","1",""
"150.00000000011642","e","choice","left","e","experimental","1412","849073","0.0-4.0-8.158","true","159","2.6499999999999986","","",""
"2305","5","confid","","","html-slider-response","1414","851887","0.0-4.0-10.158-0.158","","","","Rate your confidence","1",""
"352.9999999998836","i","choice","right","i","experimental","1421","854032","0.0-4.0-8.159","true","160","2.6499999999999986","","",""
"2675","4","confid","","","html-slider-response","1423","857212","0.0-4.0-10.159-0.159","","","","Rate your confidence","1",""
"11","e","choice","left","e","experimental","1430","859012","0.0-4.0-8.160","true","161","2.5499999999999985","","",""
"1889.0000000001164","5","confid","","","html-slider-response","1432","861405","0.0-4.0-10.160-0.160","","","","Rate your confidence","1",""
"278","i","choice","right","i","experimental","1439","863458","0.0-4.0-8.161","true","162","2.5499999999999985","","",""
"2174","5","confid","","","html-slider-response","1441","866137","0.0-4.0-10.161-0.161","","","","Rate your confidence","1",""
"247","i","choice","right","i","experimental","1448","868173","0.0-4.0-8.162","true","163","2.4499999999999984","","",""
"2894.9999999998836","5","confid","","","html-slider-response","1450","871573","0.0-4.0-10.162-0.162","","","","Rate your confidence","1",""
"86","e","choice","left","e","experimental","1457","873440","0.0-4.0-8.163","true","164","2.4499999999999984","","",""
"1709.0000000001164","4","confid","","","html-slider-response","1459","875654","0.0-4.0-10.163-0.163","","","","Rate your confidence","1",""
"143","i","choice","right","i","experimental","1466","877590","0.0-4.0-8.164","true","165","2.3499999999999983","","",""
"2965","4","confid","","","html-slider-response","1468","881060","0.0-4.0-10.164-0.164","","","","Rate your confidence","1",""
"458","i","choice","left","e","experimental","1475","883302","0.0-4.0-8.165","false","166","2.3499999999999983","","",""
"1949","5","confid","","","html-slider-response","1477","885755","0.0-4.0-10.165-0.165","","","","Rate your confidence","1",""
"353","i","choice","right","i","experimental","1484","887889","0.0-4.0-8.166","true","167","2.4499999999999984","","",""
"1669","5","confid","","","html-slider-response","1486","890063","0.0-4.0-10.166-0.166","","","","Rate your confidence","1",""
"159","i","choice","left","e","experimental","1493","892008","0.0-4.0-8.167","false","168","2.4499999999999984","","",""
"1664","5","confid","","","html-slider-response","1495","894177","0.0-4.0-10.167-0.167","","","","Rate your confidence","1",""
"401","e","choice","left","e","experimental","1502","896360","0.0-4.0-8.168","true","169","2.5499999999999985","","",""
"1574.0000000001164","5","confid","","","html-slider-response","1504","898438","0.0-4.0-10.168-0.168","","","","Rate your confidence","1",""
"251","i","choice","right","i","experimental","1511","900478","0.0-4.0-8.169","true","170","2.5499999999999985","","",""
"2281","4","confid","","","html-slider-response","1513","903262","0.0-4.0-10.169-0.169","","","","Rate your confidence","1",""
"109","e","choice","left","e","experimental","1520","905157","0.0-4.0-8.170","true","171","2.4499999999999984","","",""
"2409","5","confid","","","html-slider-response","1522","908071","0.0-4.0-10.170-0.170","","","","Rate your confidence","1",""
"170","i","choice","right","i","experimental","1529","910029","0.0-4.0-8.171","true","172","2.4499999999999984","","",""
"1901.0000000001164","5","confid","","","html-slider-response","1531","912437","0.0-4.0-10.171-0.171","","","","Rate your confidence","1",""
"308","i","choice","left","e","experimental","1538","914536","0.0-4.0-8.172","false","173","2.3499999999999983","","",""
"1622.0000000001164","5","confid","","","html-slider-response","1540","916662","0.0-4.0-10.172-0.172","","","","Rate your confidence","1",""
"137","i","choice","right","i","experimental","1547","918586","0.0-4.0-8.173","true","174","2.4499999999999984","","",""
"2489","5","confid","","","html-slider-response","1549","921579","0.0-4.0-10.173-0.173","","","","Rate your confidence","1",""
"439","e","choice","left","e","experimental","1556","923807","0.0-4.0-8.174","true","175","2.4499999999999984","","",""
"1599.9999999998836","4","confid","","","html-slider-response","1558","925912","0.0-4.0-10.174-0.174","","","","Rate your confidence","1",""
"244","i","choice","right","i","experimental","1565","927944","0.0-4.0-8.175","true","176","2.3499999999999983","","",""
"1969","5","confid","","","html-slider-response","1567","930417","0.0-4.0-10.175-0.175","","","","Rate your confidence","1",""
"205.99999999988358","e","choice","left","e","experimental","1574","932412","0.0-4.0-8.176","true","177","2.3499999999999983","","",""
"1791","5","confid","","","html-slider-response","1576","934707","0.0-4.0-10.176-0.176","","","","Rate your confidence","1",""
"325.0000000001164","i","choice","right","i","experimental","1583","936821","0.0-4.0-8.177","true","178","2.2499999999999982","","",""
"2163","5","confid","","","html-slider-response","1585","939490","0.0-4.0-10.177-0.177","","","","Rate your confidence","1",""
"471","e","choice","left","e","experimental","1592","941750","0.0-4.0-8.178","true","179","2.2499999999999982","","",""
"2097","4","confid","","","html-slider-response","1594","944353","0.0-4.0-10.178-0.178","","","","Rate your confidence","1",""
"224.00000000011642","e","choice","right","i","experimental","1601","946355","0.0-4.0-8.179","false","180","2.149999999999998","","",""
"3261.9999999998836","4","confid","","","html-slider-response","1603","950121","0.0-4.0-10.179-0.179","","","","Rate your confidence","1",""
"178","e","choice","left","e","experimental","1610","952086","0.0-4.0-8.180","true","181","2.2499999999999982","","",""
"1649","5","confid","","","html-slider-response","1612","954238","0.0-4.0-10.180-0.180","","","","Rate your confidence","1",""
"13","i","choice","right","i","experimental","1619","956033","0.0-4.0-8.181","true","182","2.2499999999999982","","",""
"2297","4","confid","","","html-slider-response","1621","958833","0.0-4.0-10.181-0.181","","","","Rate your confidence","1",""
"340","i","choice","left","e","experimental","1628","960963","0.0-4.0-8.182","false","183","2.149999999999998","","",""
"6200.999999999884","4","confid","","","html-slider-response","1630","967669","0.0-4.0-10.182-0.182","","","","Rate your confidence","1",""
"188.99999999988358","i","choice","right","i","experimental","1637","969649","0.0-4.0-8.183","true","184","2.2499999999999982","","",""
"2558","4","confid","","","html-slider-response","1639","972713","0.0-4.0-10.183-0.183","","","","Rate your confidence","1",""
"47","e","choice","left","e","experimental","1646","974549","0.0-4.0-8.184","true","185","2.2499999999999982","","",""
"1708","4","confid","","","html-slider-response","1648","976762","0.0-4.0-10.184-0.184","","","","Rate your confidence","1",""
"4","e","choice","right","i","experimental","1655","978552","0.0-4.0-8.185","false","186","2.149999999999998","","",""
"1964","4","confid","","","html-slider-response","1657","981022","0.0-4.0-10.185-0.185","","","","Rate your confidence","1",""
"165","i","choice","right","i","experimental","1664","982975","0.0-4.0-8.186","true","187","2.2499999999999982","","",""
"3377","4","confid","","","html-slider-response","1666","986856","0.0-4.0-10.186-0.186","","","","Rate your confidence","1",""
"64","e","choice","left","e","experimental","1673","988701","0.0-4.0-8.187","true","188","2.2499999999999982","","",""
"1780","4","confid","","","html-slider-response","1675","990986","0.0-4.0-10.187-0.187","","","","Rate your confidence","1",""
"212","e","choice","left","e","experimental","1682","992991","0.0-4.0-8.188","true","189","2.149999999999998","","",""
"2506","4","confid","","","html-slider-response","1684","996004","0.0-4.0-10.188-0.188","","","","Rate your confidence","1",""
"157","e","choice","right","i","experimental","1691","997945","0.0-4.0-8.189","false","190","2.149999999999998","","",""
"4290","4","confid","","","html-slider-response","1693","1002740","0.0-4.0-10.189-0.189","","","","Rate your confidence","1",""
"338.0000000001164","e","choice","left","e","experimental","1700","1004858","0.0-4.0-8.190","true","191","2.2499999999999982","","",""
"2154","4","confid","","","html-slider-response","1702","1007518","0.0-4.0-10.190-0.190","","","","Rate your confidence","1",""
"360","i","choice","right","i","experimental","1709","1009649","0.0-4.0-8.191","true","192","2.2499999999999982","","",""
"2209","5","confid","","","html-slider-response","1711","1012361","0.0-4.0-10.191-0.191","","","","Rate your confidence","1",""
"408","e","choice","right","i","experimental","1718","1014542","0.0-4.0-8.192","false","193","2.149999999999998","","",""
"2421","4","confid","","","html-slider-response","1720","1017469","0.0-4.0-10.192-0.192","","","","Rate your confidence","1",""
"1208.9999999997672","e","choice","left","e","experimental","1727","1020468","0.0-4.0-8.193","true","194","2.2499999999999982","","",""
"5784.000000000116","4","confid","","","html-slider-response","1729","1026759","0.0-4.0-10.193-0.193","","","","Rate your confidence","1","58963"
