"rt","response","task","target_side","correct_response","trial_type","trial_index","time_elapsed","internal_node_id","correct","trial_number","n_dots","stimulus","slider_start","participant"
"3688","e","choice","right","i","practice","10","137067","0.0-4.0-8.0","false","1","4.25","","",""
"805","e","choice","left","e","practice","18","140233","0.0-4.0-8.1","true","2","4.65","","",""
"531.2999997138977","i","choice","right","i","practice","26","143089","0.0-4.0-8.2","true","3","4.65","","",""
"577.7999997138977","e","choice","left","e","practice","34","145989","0.0-4.0-8.3","true","4","4.25","","",""
"75.7999997138977","i","choice","right","i","practice","42","148380","0.0-4.0-8.4","true","5","4.25","","",""
"608","e","choice","left","e","practice","50","151320","0.0-4.0-8.5","true","6","3.85","","",""
"489.40000009536743","i","choice","right","i","practice","58","154149","0.0-4.0-8.6","true","7","3.85","","",""
"334.6000003814697","e","choice","left","e","practice","66","156795","0.0-4.0-8.7","true","8","3.65","","",""
"442.40000009536743","i","choice","right","i","practice","74","159566","0.0-4.0-8.8","true","9","3.65","","",""
"466.19999980926514","e","choice","left","e","practice","82","162383","0.0-4.0-8.9","true","10","3.4499999999999997","","",""
"342.69999980926514","i","choice","left","e","practice","90","165045","0.0-4.0-8.10","false","11","3.4499999999999997","","",""
"520.5","i","choice","right","i","practice","98","167922","0.0-4.0-8.11","true","12","3.55","","",""
"504.7999997138977","i","choice","right","i","practice","106","170753","0.0-4.0-8.12","true","13","3.55","","",""
"681.3000001907349","i","choice","left","e","practice","114","173748","0.0-4.0-8.13","false","14","3.4499999999999997","","",""
"481","i","choice","left","e","practice","122","176570","0.0-4.0-8.14","false","15","3.55","","",""
"430","i","choice","right","i","practice","130","179323","0.0-4.0-8.15","true","16","3.65","","",""
"479.59999990463257","i","choice","left","e","practice","138","182110","0.0-4.0-8.16","false","17","3.65","","",""
"340.19999980926514","i","choice","right","i","practice","146","184767","0.0-4.0-8.17","true","18","3.75","","",""
"536.4000000953674","i","choice","right","i","practice","154","187650","0.0-4.0-8.18","true","19","3.75","","",""
"1326.8000001907349","e","choice","left","e","practice","162","191331","0.0-4.0-8.19","true","20","3.65","","",""
"786","e","choice","left","e","practice","170","194445","0.0-4.0-8.20","true","21","3.65","","",""
"373.90000009536743","i","choice","right","i","practice","178","197162","0.0-4.0-8.21","true","22","3.55","","",""
"612.2999997138977","e","choice","left","e","practice","186","200103","0.0-4.0-8.22","true","23","3.55","","",""
"444","i","choice","right","i","practice","194","202866","0.0-4.0-8.23","true","24","3.4499999999999997","","",""
"352.3999996185303","i","choice","left","e","practice","202","205541","0.0-4.0-8.24","false","25","3.4499999999999997","","",""
"659.9000000953674","e","choice","right","i","practice","210","208522","0.0-4.0-8.25","false","26","3.55","","",""
"568.5999999046326","i","choice","right","i","experimental","221","275386","0.0-4.0-8.26","true","27","3.65","","",""
"4361.400000095367","5","confid","","","html-slider-response","223","280255","0.0-4.0-10.26-0.26","","","","Rate your confidence","1",""
"481.2999997138977","e","choice","left","e","experimental","230","282571","0.0-4.0-8.27","true","28","3.65","","",""
"3329.2999997138977","3","confid","","","html-slider-response","232","286409","0.0-4.0-10.27-0.27","","","","Rate your confidence","1",""
"1021.6999998092651","e","choice","left","e","experimental","239","289273","0.0-4.0-8.28","true","29","3.55","","",""
"3780.4000000953674","3","confid","","","html-slider-response","241","293566","0.0-4.0-10.28-0.28","","","","Rate your confidence","1",""
"411","i","choice","right","i","experimental","248","295784","0.0-4.0-8.29","true","30","3.55","","",""
"2693.5999999046326","5","confid","","","html-slider-response","250","298994","0.0-4.0-10.29-0.29","","","","Rate your confidence","1",""
"477","e","choice","left","e","experimental","257","301294","0.0-4.0-8.30","true","31","3.4499999999999997","","",""
"4240.5","4","confid","","","html-slider-response","259","306049","0.0-4.0-10.30-0.30","","","","Rate your confidence","1",""
"318.40000009536743","i","choice","right","i","experimental","266","308199","0.0-4.0-8.31","true","32","3.4499999999999997","","",""
"2912","5","confid","","","html-slider-response","268","311632","0.0-4.0-10.31-0.31","","","","Rate your confidence","1",""
"327","e","choice","left","e","experimental","275","313798","0.0-4.0-8.32","true","33","3.3499999999999996","","",""
"2563.2999997138977","4","confid","","","html-slider-response","277","316874","0.0-4.0-10.32-0.32","","","","Rate your confidence","1",""
"591.4000000953674","i","choice","right","i","experimental","284","319292","0.0-4.0-8.33","true","34","3.3499999999999996","","",""
"2661.5999999046326","3","confid","","","html-slider-response","286","322465","0.0-4.0-10.33-0.33","","","","Rate your confidence","1",""
"408","e","choice","left","e","experimental","293","324685","0.0-4.0-8.34","true","35","3.2499999999999996","","",""
"3597.5999999046326","3","confid","","","html-slider-response","295","328796","0.0-4.0-10.34-0.34","","","","Rate your confidence","1",""
"579.8000001907349","i","choice","right","i","experimental","302","331181","0.0-4.0-8.35","true","36","3.2499999999999996","","",""
"3085.199999809265","4","confid","","","html-slider-response","304","334793","0.0-4.0-10.35-0.35","","","","Rate your confidence","1",""
"415.40000009536743","i","choice","left","e","experimental","311","337023","0.0-4.0-8.36","false","37","3.1499999999999995","","",""
"3483.9000000953674","3","confid","","","html-slider-response","313","341023","0.0-4.0-10.36-0.36","","","","Rate your confidence","1",""
"402.5","i","choice","right","i","experimental","320","343236","0.0-4.0-8.37","true","38","3.2499999999999996","","",""
"3659.800000190735","3","confid","","","html-slider-response","322","347407","0.0-4.0-10.37-0.37","","","","Rate your confidence","1",""
"565.5","e","choice","left","e","experimental","329","349774","0.0-4.0-8.38","true","39","3.2499999999999996","","",""
"2471.199999809265","3","confid","","","html-slider-response","331","352753","0.0-4.0-10.38-0.38","","","","Rate your confidence","1",""
"644.0999999046326","i","choice","right","i","experimental","338","355234","0.0-4.0-8.39","true","40","3.1499999999999995","","",""
"2344.300000190735","3","confid","","","html-slider-response","340","358092","0.0-4.0-10.39-0.39","","","","Rate your confidence","1",""
"368.2999997138977","i","choice","right","i","experimental","347","360274","0.0-4.0-8.40","true","41","3.1499999999999995","","",""
"2268.9000000953674","4","confid","","","html-slider-response","349","363052","0.0-4.0-10.40-0.40","","","","Rate your confidence","1",""
"743.5","i","choice","left","e","experimental","356","365628","0.0-4.0-8.41","false","42","3.0499999999999994","","",""
"3009.7999997138977","3","confid","","","html-slider-response","358","369147","0.0-4.0-10.41-0.41","","","","Rate your confidence","1",""
"338.69999980926514","e","choice","left","e","experimental","365","371332","0.0-4.0-8.42","true","43","3.1499999999999995","","",""
"2351.5999999046326","4","confid","","","html-slider-response","367","374190","0.0-4.0-10.42-0.42","","","","Rate your confidence","1",""
"564.5999999046326","i","choice","right","i","experimental","374","376583","0.0-4.0-8.43","true","44","3.1499999999999995","","",""
"2618.0999999046326","5","confid","","","html-slider-response","376","379707","0.0-4.0-10.43-0.43","","","","Rate your confidence","1",""
"809.4000000953674","e","choice","left","e","experimental","383","382341","0.0-4.0-8.44","true","45","3.0499999999999994","","",""
"2429.7000002861023","3","confid","","","html-slider-response","385","385274","0.0-4.0-10.44-0.44","","","","Rate your confidence","1",""
"358.59999990463257","i","choice","right","i","experimental","392","387457","0.0-4.0-8.45","true","46","3.0499999999999994","","",""
"3249.5","5","confid","","","html-slider-response","394","391219","0.0-4.0-10.45-0.45","","","","Rate your confidence","1",""
"716.8999996185303","i","choice","right","i","experimental","401","393767","0.0-4.0-8.46","true","47","2.9499999999999993","","",""
"3073.0999999046326","3","confid","","","html-slider-response","403","397344","0.0-4.0-10.46-0.46","","","","Rate your confidence","1",""
"476.30000019073486","e","choice","left","e","experimental","410","399630","0.0-4.0-8.47","true","48","2.9499999999999993","","",""
"3049.300000190735","4","confid","","","html-slider-response","412","403187","0.0-4.0-10.47-0.47","","","","Rate your confidence","1",""
"1236.6999998092651","i","choice","right","i","experimental","419","406228","0.0-4.0-8.48","true","49","2.849999999999999","","",""
"2892.5","3","confid","","","html-slider-response","421","409632","0.0-4.0-10.48-0.48","","","","Rate your confidence","1",""
"508.2000002861023","i","choice","left","e","experimental","428","411953","0.0-4.0-8.49","false","50","2.849999999999999","","",""
"1977.4000000953674","3","confid","","","html-slider-response","430","414441","0.0-4.0-10.49-0.49","","","","Rate your confidence","1",""
"321.2999997138977","e","choice","left","e","experimental","437","416598","0.0-4.0-8.50","true","51","2.9499999999999993","","",""
"3888","4","confid","","","html-slider-response","439","420995","0.0-4.0-10.50-0.50","","","","Rate your confidence","1",""
"691.2999997138977","i","choice","right","i","experimental","446","423501","0.0-4.0-8.51","true","52","2.9499999999999993","","",""
"3037.5","3","confid","","","html-slider-response","448","427052","0.0-4.0-10.51-0.51","","","","Rate your confidence","1",""
"509.80000019073486","i","choice","right","i","experimental","455","429383","0.0-4.0-8.52","true","53","2.849999999999999","","",""
"2301.5999999046326","3","confid","","","html-slider-response","457","432193","0.0-4.0-10.52-0.52","","","","Rate your confidence","1",""
"541.4000000953674","i","choice","left","e","experimental","464","434550","0.0-4.0-8.53","false","54","2.849999999999999","","",""
"2134.7999997138977","3","confid","","","html-slider-response","466","437202","0.0-4.0-10.53-0.53","","","","Rate your confidence","1",""
"251.80000019073486","i","choice","right","i","experimental","473","439271","0.0-4.0-8.54","true","55","2.9499999999999993","","",""
"3913.699999809265","5","confid","","","html-slider-response","475","443696","0.0-4.0-10.54-0.54","","","","Rate your confidence","1",""
"427.19999980926514","e","choice","left","e","experimental","482","445942","0.0-4.0-8.55","true","56","2.9499999999999993","","",""
"2668.9000000953674","3","confid","","","html-slider-response","484","449123","0.0-4.0-10.55-0.55","","","","Rate your confidence","1",""
"442.19999980926514","i","choice","left","e","experimental","491","451399","0.0-4.0-8.56","false","57","2.849999999999999","","",""
"2228.5999999046326","3","confid","","","html-slider-response","493","454145","0.0-4.0-10.56-0.56","","","","Rate your confidence","1",""
"289.30000019073486","i","choice","right","i","experimental","500","456262","0.0-4.0-8.57","true","58","2.9499999999999993","","",""
"2418","3","confid","","","html-slider-response","502","459194","0.0-4.0-10.57-0.57","","","","Rate your confidence","1",""
"385.59999990463257","e","choice","left","e","experimental","509","461407","0.0-4.0-8.58","true","59","2.9499999999999993","","",""
"2183.5","3","confid","","","html-slider-response","511","464111","0.0-4.0-10.58-0.58","","","","Rate your confidence","1",""
"748.8999996185303","i","choice","right","i","experimental","518","466682","0.0-4.0-8.59","true","60","2.849999999999999","","",""
"2632.199999809265","3","confid","","","html-slider-response","520","469834","0.0-4.0-10.59-0.59","","","","Rate your confidence","1",""
"617","i","choice","left","e","experimental","527","472282","0.0-4.0-8.60","false","61","2.849999999999999","","",""
"2332.0999999046326","4","confid","","","html-slider-response","529","475132","0.0-4.0-10.60-0.60","","","","Rate your confidence","1",""
"239.60000038146973","i","choice","right","i","experimental","536","477168","0.0-4.0-8.61","true","62","2.9499999999999993","","",""
"2419.300000190735","5","confid","","","html-slider-response","538","480100","0.0-4.0-10.61-0.61","","","","Rate your confidence","1",""
"1367.7000002861023","i","choice","left","e","experimental","545","483273","0.0-4.0-8.62","false","63","2.9499999999999993","","",""
"6186.099999904633","1","confid","","","html-slider-response","547","489968","0.0-4.0-10.62-0.62","","","","Rate your confidence","1",""
"323.30000019073486","i","choice","right","i","experimental","554","492114","0.0-4.0-8.63","true","64","3.0499999999999994","","",""
"2869.2000002861023","4","confid","","","html-slider-response","556","495488","0.0-4.0-10.63-0.63","","","","Rate your confidence","1",""
"474","i","choice","left","e","experimental","563","497787","0.0-4.0-8.64","false","65","3.0499999999999994","","",""
"3949.4000000953674","1","confid","","","html-slider-response","565","502245","0.0-4.0-10.64-0.64","","","","Rate your confidence","1",""
"434.5","i","choice","right","i","experimental","572","504522","0.0-4.0-8.65","true","66","3.1499999999999995","","",""
"3468.199999809265","2","confid","","","html-slider-response","574","508509","0.0-4.0-10.65-0.65","","","","Rate your confidence","1",""
"410.1000003814697","e","choice","left","e","experimental","581","510753","0.0-4.0-8.66","true","67","3.1499999999999995","","",""
"2481","2","confid","","","html-slider-response","583","513742","0.0-4.0-10.66-0.66","","","","Rate your confidence","1",""
"376.40000009536743","i","choice","right","i","experimental","590","515928","0.0-4.0-8.67","true","68","3.0499999999999994","","",""
"4764.200000286102","5","confid","","","html-slider-response","592","521199","0.0-4.0-10.67-0.67","","","","Rate your confidence","1",""
"330.5","e","choice","right","i","experimental","600","591023","0.0-4.0-8.68","false","69","3.0499999999999994","","",""
"4043.7999997138977","2","confid","","","html-slider-response","602","595579","0.0-4.0-10.68-0.68","","","","Rate your confidence","1",""
"482.7000002861023","i","choice","left","e","experimental","609","597909","0.0-4.0-8.69","false","70","3.1499999999999995","","",""
"3526.699999809265","3","confid","","","html-slider-response","611","601944","0.0-4.0-10.69-0.69","","","","Rate your confidence","1",""
"297.80000019073486","e","choice","left","e","experimental","618","604057","0.0-4.0-8.70","true","71","3.2499999999999996","","",""
"2317.2000002861023","3","confid","","","html-slider-response","620","606889","0.0-4.0-10.70-0.70","","","","Rate your confidence","1",""
"266.6000003814697","e","choice","right","i","experimental","627","608985","0.0-4.0-8.71","false","72","3.2499999999999996","","",""
"2637.800000190735","4","confid","","","html-slider-response","629","612127","0.0-4.0-10.71-0.71","","","","Rate your confidence","1",""
"918.7999997138977","e","choice","left","e","experimental","636","614867","0.0-4.0-8.72","true","73","3.3499999999999996","","",""
"3105.5","3","confid","","","html-slider-response","638","618483","0.0-4.0-10.72-0.72","","","","Rate your confidence","1",""
"469.40000009536743","i","choice","right","i","experimental","645","620768","0.0-4.0-8.73","true","74","3.3499999999999996","","",""
"2840","3","confid","","","html-slider-response","647","624113","0.0-4.0-10.73-0.73","","","","Rate your confidence","1",""
"219","i","choice","right","i","experimental","654","626150","0.0-4.0-8.74","true","75","3.2499999999999996","","",""
"2787.5999999046326","5","confid","","","html-slider-response","656","629448","0.0-4.0-10.74-0.74","","","","Rate your confidence","1",""
"428.59999990463257","i","choice","left","e","experimental","663","631707","0.0-4.0-8.75","false","76","3.2499999999999996","","",""
"2748.2999997138977","3","confid","","","html-slider-response","665","634965","0.0-4.0-10.75-0.75","","","","Rate your confidence","1",""
"483.7999997138977","i","choice","right","i","experimental","672","637290","0.0-4.0-8.76","true","77","3.3499999999999996","","",""
"2766","2","confid","","","html-slider-response","674","640567","0.0-4.0-10.76-0.76","","","","Rate your confidence","1",""
"297.90000009536743","i","choice","left","e","experimental","681","642688","0.0-4.0-8.77","false","78","3.3499999999999996","","",""
"3142.5999999046326","2","confid","","","html-slider-response","683","646339","0.0-4.0-10.77-0.77","","","","Rate your confidence","1",""
"226.7999997138977","e","choice","left","e","experimental","690","648377","0.0-4.0-8.78","true","79","3.4499999999999997","","",""
"3474.300000190735","5","confid","","","html-slider-response","692","652363","0.0-4.0-10.78-0.78","","","","Rate your confidence","1",""
"334.5","i","choice","right","i","experimental","699","654514","0.0-4.0-8.79","true","80","3.4499999999999997","","",""
"1963.2999997138977","4","confid","","","html-slider-response","701","656986","0.0-4.0-10.79-0.79","","","","Rate your confidence","1",""
"853.8999996185303","e","choice","left","e","experimental","708","659671","0.0-4.0-8.80","true","81","3.3499999999999996","","",""
"6282.700000286102","3","confid","","","html-slider-response","710","666461","0.0-4.0-10.80-0.80","","","","Rate your confidence","1",""
"315.59999990463257","e","choice","right","i","experimental","717","668593","0.0-4.0-8.81","false","82","3.3499999999999996","","",""
"2662.699999809265","3","confid","","","html-slider-response","719","671764","0.0-4.0-10.81-0.81","","","","Rate your confidence","1",""
"576","i","choice","left","e","experimental","726","674165","0.0-4.0-8.82","false","83","3.4499999999999997","","",""
"2030.0999999046326","3","confid","","","html-slider-response","728","676705","0.0-4.0-10.82-0.82","","","","Rate your confidence","1",""
"528.5999999046326","e","choice","right","i","experimental","735","679086","0.0-4.0-8.83","false","84","3.55","","",""
"3615.9000000953674","2","confid","","","html-slider-response","737","683208","0.0-4.0-10.83-0.83","","","","Rate your confidence","1",""
"250.19999980926514","i","choice","right","i","experimental","744","685272","0.0-4.0-8.84","true","85","3.65","","",""
"3663.4000000953674","4","confid","","","html-slider-response","746","689440","0.0-4.0-10.84-0.84","","","","Rate your confidence","1",""
"421.40000009536743","e","choice","left","e","experimental","753","691660","0.0-4.0-8.85","true","86","3.65","","",""
"2536.7000002861023","3","confid","","","html-slider-response","755","694710","0.0-4.0-10.85-0.85","","","","Rate your confidence","1",""
"723.5999999046326","e","choice","left","e","experimental","762","697240","0.0-4.0-8.86","true","87","3.55","","",""
"2172.6000003814697","2","confid","","","html-slider-response","764","699923","0.0-4.0-10.86-0.86","","","","Rate your confidence","1",""
"674.3000001907349","i","choice","right","i","experimental","771","702429","0.0-4.0-8.87","true","88","3.55","","",""
"2462.9000000953674","3","confid","","","html-slider-response","773","705402","0.0-4.0-10.87-0.87","","","","Rate your confidence","1",""
"293.6000003814697","i","choice","right","i","experimental","780","707518","0.0-4.0-8.88","true","89","3.4499999999999997","","",""
"2198","4","confid","","","html-slider-response","782","710221","0.0-4.0-10.88-0.88","","","","Rate your confidence","1",""
"430","i","choice","left","e","experimental","789","712497","0.0-4.0-8.89","false","90","3.4499999999999997","","",""
"2222.300000190735","2","confid","","","html-slider-response","791","715228","0.0-4.0-10.89-0.89","","","","Rate your confidence","1",""
"145.30000019073486","i","choice","right","i","experimental","798","717185","0.0-4.0-8.90","true","91","3.55","","",""
"3036.5","4","confid","","","html-slider-response","800","720755","0.0-4.0-10.90-0.90","","","","Rate your confidence","1",""
"589.7000002861023","e","choice","left","e","experimental","807","723155","0.0-4.0-8.91","true","92","3.55","","",""
"4984.10000038147","3","confid","","","html-slider-response","809","728644","0.0-4.0-10.91-0.91","","","","Rate your confidence","1",""
"330.3999996185303","e","choice","left","e","experimental","816","730794","0.0-4.0-8.92","true","93","3.4499999999999997","","",""
"2042","6","confid","","","html-slider-response","818","733354","0.0-4.0-10.92-0.92","","","","Rate your confidence","1",""
"1079.5","i","choice","right","i","experimental","825","736256","0.0-4.0-8.93","true","94","3.4499999999999997","","",""
"2419.0999999046326","5","confid","","","html-slider-response","827","739185","0.0-4.0-10.93-0.93","","","","Rate your confidence","1",""
"629.3000001907349","e","choice","left","e","experimental","834","741627","0.0-4.0-8.94","true","95","3.3499999999999996","","",""
"3861.5999999046326","2","confid","","","html-slider-response","836","746008","0.0-4.0-10.94-0.94","","","","Rate your confidence","1",""
"520.1999998092651","i","choice","right","i","experimental","843","748348","0.0-4.0-8.95","true","96","3.3499999999999996","","",""
"2207.699999809265","3","confid","","","html-slider-response","845","751071","0.0-4.0-10.95-0.95","","","","Rate your confidence","1",""
"299","e","choice","left","e","experimental","852","753195","0.0-4.0-8.96","true","97","3.2499999999999996","","",""
"4269.800000190735","2","confid","","","html-slider-response","854","757976","0.0-4.0-10.96-0.96","","","","Rate your confidence","1",""
"315.2999997138977","e","choice","right","i","experimental","861","760122","0.0-4.0-8.97","false","98","3.2499999999999996","","",""
"4270.199999809265","3","confid","","","html-slider-response","863","764904","0.0-4.0-10.97-0.97","","","","Rate your confidence","1",""
"299","i","choice","right","i","experimental","870","767038","0.0-4.0-8.98","true","99","3.3499999999999996","","",""
"2263.0999999046326","3","confid","","","html-slider-response","872","769814","0.0-4.0-10.98-0.98","","","","Rate your confidence","1",""
"224.5","e","choice","left","e","experimental","879","771854","0.0-4.0-8.99","true","100","3.3499999999999996","","",""
"2298.2999997138977","2","confid","","","html-slider-response","881","774660","0.0-4.0-10.99-0.99","","","","Rate your confidence","1",""
"303.69999980926514","e","choice","left","e","experimental","888","776786","0.0-4.0-8.100","true","101","3.2499999999999996","","",""
"3059.9000000953674","3","confid","","","html-slider-response","890","780359","0.0-4.0-10.100-0.100","","","","Rate your confidence","1",""
"814.5999999046326","i","choice","right","i","experimental","897","782994","0.0-4.0-8.101","true","102","3.2499999999999996","","",""
"3073.3999996185303","3","confid","","","html-slider-response","899","786587","0.0-4.0-10.101-0.101","","","","Rate your confidence","1",""
"301.09999990463257","e","choice","left","e","experimental","906","788728","0.0-4.0-8.102","true","103","3.1499999999999995","","",""
"3593.5","3","confid","","","html-slider-response","908","792834","0.0-4.0-10.102-0.102","","","","Rate your confidence","1",""
"306.80000019073486","e","choice","right","i","experimental","915","794972","0.0-4.0-8.103","false","104","3.1499999999999995","","",""
"2520.9000000953674","4","confid","","","html-slider-response","917","798005","0.0-4.0-10.103-0.103","","","","Rate your confidence","1",""
"945.5","i","choice","right","i","experimental","924","800761","0.0-4.0-8.104","true","105","3.2499999999999996","","",""
"3113.2999997138977","3","confid","","","html-slider-response","926","804406","0.0-4.0-10.104-0.104","","","","Rate your confidence","1",""
"257.90000009536743","e","choice","left","e","experimental","933","806482","0.0-4.0-8.105","true","106","3.2499999999999996","","",""
"7037.5","4","confid","","","html-slider-response","935","814027","0.0-4.0-10.105-0.105","","","","Rate your confidence","1",""
"204","e","choice","left","e","experimental","942","816054","0.0-4.0-8.106","true","107","3.1499999999999995","","",""
"2054","3","confid","","","html-slider-response","944","818630","0.0-4.0-10.106-0.106","","","","Rate your confidence","1",""
"381","i","choice","right","i","experimental","951","820827","0.0-4.0-8.107","true","108","3.1499999999999995","","",""
"2863.2999997138977","3","confid","","","html-slider-response","953","824205","0.0-4.0-10.107-0.107","","","","Rate your confidence","1",""
"277.80000019073486","e","choice","right","i","experimental","960","826317","0.0-4.0-8.108","false","109","3.0499999999999994","","",""
"2227.5999999046326","3","confid","","","html-slider-response","962","829057","0.0-4.0-10.108-0.108","","","","Rate your confidence","1",""
"517.6000003814697","e","choice","left","e","experimental","969","831410","0.0-4.0-8.109","true","110","3.1499999999999995","","",""
"2497.5","3","confid","","","html-slider-response","971","834419","0.0-4.0-10.109-0.109","","","","Rate your confidence","1",""
"290.7000002861023","i","choice","right","i","experimental","979","842102","0.0-4.0-8.110","true","111","3.1499999999999995","","",""
"2604.0999999046326","4","confid","","","html-slider-response","981","845216","0.0-4.0-10.110-0.110","","","","Rate your confidence","1",""
"550.7000002861023","e","choice","left","e","experimental","988","847573","0.0-4.0-8.111","true","112","3.0499999999999994","","",""
"3227.199999809265","3","confid","","","html-slider-response","990","851308","0.0-4.0-10.111-0.111","","","","Rate your confidence","1",""
"393","e","choice","left","e","experimental","997","853540","0.0-4.0-8.112","true","113","3.0499999999999994","","",""
"2538","3","confid","","","html-slider-response","999","856586","0.0-4.0-10.112-0.112","","","","Rate your confidence","1",""
"596.6999998092651","i","choice","right","i","experimental","1006","859033","0.0-4.0-8.113","true","114","2.9499999999999993","","",""
"2460.5","3","confid","","","html-slider-response","1008","862003","0.0-4.0-10.113-0.113","","","","Rate your confidence","1",""
"382","i","choice","left","e","experimental","1015","864206","0.0-4.0-8.114","false","115","2.9499999999999993","","",""
"3396.300000190735","2","confid","","","html-slider-response","1017","868120","0.0-4.0-10.114-0.114","","","","Rate your confidence","1",""
"1175.5","i","choice","right","i","experimental","1024","871101","0.0-4.0-8.115","true","116","3.0499999999999994","","",""
"5289","1","confid","","","html-slider-response","1026","876898","0.0-4.0-10.115-0.115","","","","Rate your confidence","1",""
"595.7999997138977","i","choice","left","e","experimental","1033","879328","0.0-4.0-8.116","false","117","3.0499999999999994","","",""
"3025","2","confid","","","html-slider-response","1035","882873","0.0-4.0-10.116-0.116","","","","Rate your confidence","1",""
"171.09999990463257","i","choice","right","i","experimental","1042","884885","0.0-4.0-8.117","true","118","3.1499999999999995","","",""
"1998.0999999046326","5","confid","","","html-slider-response","1044","887393","0.0-4.0-10.117-0.117","","","","Rate your confidence","1",""
"615.2000002861023","e","choice","left","e","experimental","1051","889816","0.0-4.0-8.118","true","119","3.1499999999999995","","",""
"3256.800000190735","2","confid","","","html-slider-response","1053","893582","0.0-4.0-10.118-0.118","","","","Rate your confidence","1",""
"904.2999997138977","i","choice","right","i","experimental","1060","896317","0.0-4.0-8.119","true","120","3.0499999999999994","","",""
"5196","6","confid","","","html-slider-response","1062","902025","0.0-4.0-10.119-0.119","","","","Rate your confidence","1",""
"528.1999998092651","i","choice","right","i","experimental","1069","904374","0.0-4.0-8.120","true","121","3.0499999999999994","","",""
"2318.699999809265","3","confid","","","html-slider-response","1071","907199","0.0-4.0-10.120-0.120","","","","Rate your confidence","1",""
"303.69999980926514","e","choice","left","e","experimental","1078","909312","0.0-4.0-8.121","true","122","2.9499999999999993","","",""
"3104","3","confid","","","html-slider-response","1080","912920","0.0-4.0-10.121-0.121","","","","Rate your confidence","1",""
"117.10000038146973","i","choice","right","i","experimental","1087","914888","0.0-4.0-8.122","true","123","2.9499999999999993","","",""
"3529.8999996185303","6","confid","","","html-slider-response","1089","918936","0.0-4.0-10.122-0.122","","","","Rate your confidence","1",""
"805.8000001907349","e","choice","left","e","experimental","1096","921573","0.0-4.0-8.123","true","124","2.849999999999999","","",""
"4567.799999713898","2","confid","","","html-slider-response","1098","926656","0.0-4.0-10.123-0.123","","","","Rate your confidence","1",""
"592.8000001907349","e","choice","left","e","experimental","1105","929072","0.0-4.0-8.124","true","125","2.849999999999999","","",""
"3043","2","confid","","","html-slider-response","1107","932635","0.0-4.0-10.124-0.124","","","","Rate your confidence","1",""
"613.5999999046326","i","choice","right","i","experimental","1114","935074","0.0-4.0-8.125","true","126","2.749999999999999","","",""
"3781","2","confid","","","html-slider-response","1116","939367","0.0-4.0-10.125-0.125","","","","Rate your confidence","1",""
"651.6999998092651","e","choice","left","e","experimental","1123","941853","0.0-4.0-8.126","true","127","2.749999999999999","","",""
"8996","1","confid","","","html-slider-response","1125","951357","0.0-4.0-10.126-0.126","","","","Rate your confidence","1",""
"261.19999980926514","e","choice","right","i","experimental","1132","953461","0.0-4.0-8.127","false","128","2.649999999999999","","",""
"2300.0999999046326","3","confid","","","html-slider-response","1134","956269","0.0-4.0-10.127-0.127","","","","Rate your confidence","1",""
"93.09999990463257","i","choice","right","i","experimental","1141","958183","0.0-4.0-8.128","true","129","2.749999999999999","","",""
"4513.599999904633","4","confid","","","html-slider-response","1143","963215","0.0-4.0-10.128-0.128","","","","Rate your confidence","1",""
"126.80000019073486","e","choice","left","e","experimental","1150","965168","0.0-4.0-8.129","true","130","2.749999999999999","","",""
"3098.7000002861023","3","confid","","","html-slider-response","1152","968777","0.0-4.0-10.129-0.129","","","","Rate your confidence","1",""
"394.3999996185303","i","choice","right","i","experimental","1159","970967","0.0-4.0-8.130","true","131","2.649999999999999","","",""
"1840.4000000953674","3","confid","","","html-slider-response","1161","973317","0.0-4.0-10.130-0.130","","","","Rate your confidence","1",""
"733.6999998092651","i","choice","left","e","experimental","1168","975864","0.0-4.0-8.131","false","132","2.649999999999999","","",""
"2305.4000000953674","2","confid","","","html-slider-response","1170","978686","0.0-4.0-10.131-0.131","","","","Rate your confidence","1",""
"336.7999997138977","e","choice","left","e","experimental","1177","980847","0.0-4.0-8.132","true","133","2.749999999999999","","",""
"2682","3","confid","","","html-slider-response","1179","984042","0.0-4.0-10.132-0.132","","","","Rate your confidence","1",""
"536.3000001907349","i","choice","right","i","experimental","1186","986383","0.0-4.0-8.133","true","134","2.749999999999999","","",""
"5009.300000190735","3","confid","","","html-slider-response","1188","991911","0.0-4.0-10.133-0.133","","","","Rate your confidence","1",""
"143.7999997138977","i","choice","right","i","experimental","1195","993903","0.0-4.0-8.134","true","135","2.649999999999999","","",""
"2496.5","3","confid","","","html-slider-response","1197","996910","0.0-4.0-10.134-0.134","","","","Rate your confidence","1",""
"395.90000009536743","e","choice","left","e","experimental","1204","999133","0.0-4.0-8.135","true","136","2.649999999999999","","",""
"3514.2000002861023","4","confid","","","html-slider-response","1206","1003159","0.0-4.0-10.135-0.135","","","","Rate your confidence","1",""
"412.90000009536743","e","choice","left","e","experimental","1213","1005387","0.0-4.0-8.136","true","137","2.549999999999999","","",""
"5803.60000038147","2","confid","","","html-slider-response","1215","1011702","0.0-4.0-10.136-0.136","","","","Rate your confidence","1",""
"162.80000019073486","i","choice","right","i","experimental","1222","1013684","0.0-4.0-8.137","true","138","2.549999999999999","","",""
"2250.300000190735","2","confid","","","html-slider-response","1224","1016442","0.0-4.0-10.137-0.137","","","","Rate your confidence","1",""
"395.2999997138977","i","choice","right","i","experimental","1231","1018658","0.0-4.0-8.138","true","139","2.449999999999999","","",""
"2037.3999996185303","3","confid","","","html-slider-response","1233","1021203","0.0-4.0-10.138-0.138","","","","Rate your confidence","1",""
"319.09999990463257","e","choice","left","e","experimental","1240","1023351","0.0-4.0-8.139","true","140","2.449999999999999","","",""
"3311.9000000953674","3","confid","","","html-slider-response","1242","1027175","0.0-4.0-10.139-0.139","","","","Rate your confidence","1",""
"374.40000009536743","i","choice","right","i","experimental","1249","1029359","0.0-4.0-8.140","true","141","2.3499999999999988","","",""
"2204.6000003814697","2","confid","","","html-slider-response","1251","1032070","0.0-4.0-10.140-0.140","","","","Rate your confidence","1",""
"242.39999961853027","e","choice","left","e","experimental","1258","1034106","0.0-4.0-8.141","true","142","2.3499999999999988","","",""
"3039.300000190735","3","confid","","","html-slider-response","1260","1037658","0.0-4.0-10.141-0.141","","","","Rate your confidence","1",""
"302.90000009536743","i","choice","right","i","experimental","1267","1039794","0.0-4.0-8.142","true","143","2.2499999999999987","","",""
"2107","2","confid","","","html-slider-response","1269","1042412","0.0-4.0-10.142-0.142","","","","Rate your confidence","1",""
"570.1999998092651","i","choice","left","e","experimental","1276","1044797","0.0-4.0-8.143","false","144","2.2499999999999987","","",""
"1927.0999999046326","2","confid","","","html-slider-response","1278","1047245","0.0-4.0-10.143-0.143","","","","Rate your confidence","1",""
"767.3000001907349","i","choice","left","e","experimental","1285","1049816","0.0-4.0-8.144","false","145","2.3499999999999988","","",""
"2868.0999999046326","2","confid","","","html-slider-response","1287","1053194","0.0-4.0-10.144-0.144","","","","Rate your confidence","1",""
"590.1999998092651","e","choice","right","i","experimental","1294","1055610","0.0-4.0-8.145","false","146","2.449999999999999","","",""
"2819.300000190735","1","confid","","","html-slider-response","1296","1058941","0.0-4.0-10.145-0.145","","","","Rate your confidence","1",""
"574.8000001907349","i","choice","right","i","experimental","1303","1061359","0.0-4.0-8.146","true","147","2.549999999999999","","",""
"2052.699999809265","2","confid","","","html-slider-response","1305","1063923","0.0-4.0-10.146-0.146","","","","Rate your confidence","1",""
"357.3999996185303","i","choice","left","e","experimental","1312","1066089","0.0-4.0-8.147","false","148","2.549999999999999","","",""
"3139","3","confid","","","html-slider-response","1314","1069738","0.0-4.0-10.147-0.147","","","","Rate your confidence","1",""
"903.4000000953674","i","choice","left","e","experimental","1321","1072474","0.0-4.0-8.148","false","149","2.649999999999999","","",""
"2050.199999809265","2","confid","","","html-slider-response","1323","1075031","0.0-4.0-10.148-0.148","","","","Rate your confidence","1",""
"348.19999980926514","i","choice","right","i","experimental","1330","1077211","0.0-4.0-8.149","true","150","2.749999999999999","","",""
"3288","3","confid","","","html-slider-response","1332","1081009","0.0-4.0-10.149-0.149","","","","Rate your confidence","1",""
"309","i","choice","left","e","experimental","1339","1083143","0.0-4.0-8.150","false","151","2.749999999999999","","",""
"2332.2000002861023","2","confid","","","html-slider-response","1341","1085988","0.0-4.0-10.150-0.150","","","","Rate your confidence","1",""
"135.59999990463257","i","choice","right","i","experimental","1348","1087948","0.0-4.0-8.151","true","152","2.849999999999999","","",""
"2544.699999809265","3","confid","","","html-slider-response","1350","1091008","0.0-4.0-10.151-0.151","","","","Rate your confidence","1",""
"424.40000009536743","e","choice","left","e","experimental","1358","1149706","0.0-4.0-8.152","true","153","2.849999999999999","","",""
"8744.599999904633","3","confid","","","html-slider-response","1360","1158958","0.0-4.0-10.152-0.152","","","","Rate your confidence","1",""
"283.09999990463257","i","choice","right","i","experimental","1367","1161085","0.0-4.0-8.153","true","154","2.749999999999999","","",""
"2333.5","4","confid","","","html-slider-response","1369","1163924","0.0-4.0-10.153-0.153","","","","Rate your confidence","1",""
"431.19999980926514","i","choice","right","i","experimental","1376","1166182","0.0-4.0-8.154","true","155","2.749999999999999","","",""
"2842.3999996185303","3","confid","","","html-slider-response","1378","1169530","0.0-4.0-10.154-0.154","","","","Rate your confidence","1",""
"117.90000009536743","i","choice","left","e","experimental","1385","1171470","0.0-4.0-8.155","false","156","2.649999999999999","","",""
"9073.300000190735","4","confid","","","html-slider-response","1387","1181053","0.0-4.0-10.155-0.155","","","","Rate your confidence","1",""
"194.60000038146973","e","choice","right","i","experimental","1394","1183075","0.0-4.0-8.156","false","157","2.749999999999999","","",""
"4534.60000038147","2","confid","","","html-slider-response","1396","1188114","0.0-4.0-10.156-0.156","","","","Rate your confidence","1",""
"401.09999990463257","i","choice","left","e","experimental","1403","1190336","0.0-4.0-8.157","false","158","2.849999999999999","","",""
"2740","2","confid","","","html-slider-response","1405","1193595","0.0-4.0-10.157-0.157","","","","Rate your confidence","1",""
"135.60000038146973","e","choice","right","i","experimental","1412","1195547","0.0-4.0-8.158","false","159","2.9499999999999993","","",""
"2046.5","2","confid","","","html-slider-response","1414","1198105","0.0-4.0-10.158-0.158","","","","Rate your confidence","1",""
"396.6000003814697","e","choice","left","e","experimental","1421","1200325","0.0-4.0-8.159","true","160","3.0499999999999994","","",""
"2939.0999999046326","3","confid","","","html-slider-response","1423","1203771","0.0-4.0-10.159-0.159","","","","Rate your confidence","1",""
"536.5","e","choice","left","e","experimental","1430","1206122","0.0-4.0-8.160","true","161","3.0499999999999994","","",""
"3087.7999997138977","5","confid","","","html-slider-response","1432","1209736","0.0-4.0-10.160-0.160","","","","Rate your confidence","1",""
"280.5","e","choice","right","i","experimental","1439","1211837","0.0-4.0-8.161","false","162","2.9499999999999993","","",""
"4396.10000038147","3","confid","","","html-slider-response","1441","1216746","0.0-4.0-10.161-0.161","","","","Rate your confidence","1",""
"257.2999997138977","i","choice","right","i","experimental","1448","1218829","0.0-4.0-8.162","true","163","3.0499999999999994","","",""
"3229.300000190735","4","confid","","","html-slider-response","1450","1222564","0.0-4.0-10.162-0.162","","","","Rate your confidence","1",""
"39.59999990463257","e","choice","left","e","experimental","1457","1224418","0.0-4.0-8.163","true","164","3.0499999999999994","","",""
"3989.199999809265","5","confid","","","html-slider-response","1459","1228914","0.0-4.0-10.163-0.163","","","","Rate your confidence","1",""
"585.5999999046326","e","choice","right","i","experimental","1466","1231344","0.0-4.0-8.164","false","165","2.9499999999999993","","",""
"2992.2999997138977","2","confid","","","html-slider-response","1468","1234850","0.0-4.0-10.164-0.164","","","","Rate your confidence","1",""
"295.59999990463257","e","choice","left","e","experimental","1475","1236981","0.0-4.0-8.165","true","166","3.0499999999999994","","",""
"3498.4000000953674","3","confid","","","html-slider-response","1477","1240990","0.0-4.0-10.165-0.165","","","","Rate your confidence","1",""
"1047.7000002861023","i","choice","right","i","experimental","1484","1243855","0.0-4.0-8.166","true","167","3.0499999999999994","","",""
"2442","1","confid","","","html-slider-response","1486","1246805","0.0-4.0-10.166-0.166","","","","Rate your confidence","1",""
"442.69999980926514","e","choice","left","e","experimental","1493","1249071","0.0-4.0-8.167","true","168","2.9499999999999993","","",""
"2529.0999999046326","2","confid","","","html-slider-response","1495","1252115","0.0-4.0-10.167-0.167","","","","Rate your confidence","1",""
"491.3999996185303","e","choice","left","e","experimental","1502","1254430","0.0-4.0-8.168","true","169","2.9499999999999993","","",""
"2620.5","1","confid","","","html-slider-response","1504","1257556","0.0-4.0-10.168-0.168","","","","Rate your confidence","1",""
"465.2999997138977","i","choice","right","i","experimental","1511","1259836","0.0-4.0-8.169","true","170","2.849999999999999","","",""
"2106.4000000953674","3","confid","","","html-slider-response","1513","1262459","0.0-4.0-10.169-0.169","","","","Rate your confidence","1",""
"536.5","e","choice","left","e","experimental","1520","1264805","0.0-4.0-8.170","true","171","2.849999999999999","","",""
"3464","4","confid","","","html-slider-response","1522","1268775","0.0-4.0-10.170-0.170","","","","Rate your confidence","1",""
"368.1000003814697","e","choice","right","i","experimental","1529","1270950","0.0-4.0-8.171","false","172","2.749999999999999","","",""
"4355.900000095367","3","confid","","","html-slider-response","1531","1275820","0.0-4.0-10.171-0.171","","","","Rate your confidence","1",""
"717","e","choice","left","e","experimental","1538","1278348","0.0-4.0-8.172","true","173","2.849999999999999","","",""
"2406","2","confid","","","html-slider-response","1540","1281263","0.0-4.0-10.172-0.172","","","","Rate your confidence","1",""
"242.90000009536743","i","choice","right","i","experimental","1547","1283312","0.0-4.0-8.173","true","174","2.849999999999999","","",""
"4042.4000000953674","4","confid","","","html-slider-response","1549","1287867","0.0-4.0-10.173-0.173","","","","Rate your confidence","1",""
"285","e","choice","left","e","experimental","1556","1289987","0.0-4.0-8.174","true","175","2.749999999999999","","",""
"3077.9000000953674","3","confid","","","html-slider-response","1558","1293569","0.0-4.0-10.174-0.174","","","","Rate your confidence","1",""
"1.299999713897705","i","choice","right","i","experimental","1565","1295411","0.0-4.0-8.175","true","176","2.749999999999999","","",""
"2353.2999997138977","4","confid","","","html-slider-response","1567","1298274","0.0-4.0-10.175-0.175","","","","Rate your confidence","1",""
"649.3000001907349","i","choice","right","i","experimental","1574","1300743","0.0-4.0-8.176","true","177","2.649999999999999","","",""
"2677.2999997138977","5","confid","","","html-slider-response","1576","1303943","0.0-4.0-10.176-0.176","","","","Rate your confidence","1",""
"71.80000019073486","i","choice","left","e","experimental","1583","1305829","0.0-4.0-8.177","false","178","2.649999999999999","","",""
"2137.9000000953674","4","confid","","","html-slider-response","1585","1308480","0.0-4.0-10.177-0.177","","","","Rate your confidence","1",""
"213.69999980926514","e","choice","left","e","experimental","1592","1310521","0.0-4.0-8.178","true","179","2.749999999999999","","",""
"2336.199999809265","4","confid","","","html-slider-response","1594","1313368","0.0-4.0-10.178-0.178","","","","Rate your confidence","1",""
"623.6000003814697","e","choice","right","i","experimental","1601","1315834","0.0-4.0-8.179","false","180","2.749999999999999","","",""
"2282.800000190735","3","confid","","","html-slider-response","1603","1318623","0.0-4.0-10.179-0.179","","","","Rate your confidence","1",""
"77.5","i","choice","right","i","experimental","1610","1320528","0.0-4.0-8.180","true","181","2.849999999999999","","",""
"1880","4","confid","","","html-slider-response","1612","1322926","0.0-4.0-10.180-0.180","","","","Rate your confidence","1",""
"300.90000009536743","i","choice","left","e","experimental","1619","1325041","0.0-4.0-8.181","false","182","2.849999999999999","","",""
"2323.3999996185303","3","confid","","","html-slider-response","1621","1327873","0.0-4.0-10.181-0.181","","","","Rate your confidence","1",""
"104.90000009536743","e","choice","left","e","experimental","1628","1329773","0.0-4.0-8.182","true","183","2.9499999999999993","","",""
"2748.7999997138977","6","confid","","","html-slider-response","1630","1333035","0.0-4.0-10.182-0.182","","","","Rate your confidence","1",""
"184.5","i","choice","right","i","experimental","1637","1335035","0.0-4.0-8.183","true","184","2.9499999999999993","","",""
"2148.300000190735","3","confid","","","html-slider-response","1639","1337695","0.0-4.0-10.183-0.183","","","","Rate your confidence","1",""
"293.59999990463257","i","choice","right","i","experimental","1646","1339802","0.0-4.0-8.184","true","185","2.849999999999999","","",""
"2520.199999809265","2","confid","","","html-slider-response","1648","1342832","0.0-4.0-10.184-0.184","","","","Rate your confidence","1",""
"325","e","choice","left","e","experimental","1655","1344986","0.0-4.0-8.185","true","186","2.849999999999999","","",""
"2066.1000003814697","2","confid","","","html-slider-response","1657","1347561","0.0-4.0-10.185-0.185","","","","Rate your confidence","1",""
"208","e","choice","left","e","experimental","1664","1349613","0.0-4.0-8.186","true","187","2.749999999999999","","",""
"2868","1","confid","","","html-slider-response","1666","1352991","0.0-4.0-10.186-0.186","","","","Rate your confidence","1",""
"312.40000009536743","i","choice","right","i","experimental","1673","1355119","0.0-4.0-8.187","true","188","2.749999999999999","","",""
"2964.4000000953674","3","confid","","","html-slider-response","1675","1358595","0.0-4.0-10.187-0.187","","","","Rate your confidence","1",""
"103.09999990463257","i","choice","right","i","experimental","1682","1360505","0.0-4.0-8.188","true","189","2.649999999999999","","",""
"2079.5","3","confid","","","html-slider-response","1684","1363094","0.0-4.0-10.188-0.188","","","","Rate your confidence","1",""
"76.19999980926514","e","choice","left","e","experimental","1691","1364971","0.0-4.0-8.189","true","190","2.649999999999999","","",""
"2676.699999809265","1","confid","","","html-slider-response","1693","1368170","0.0-4.0-10.189-0.189","","","","Rate your confidence","1",""
"276.09999990463257","i","choice","right","i","experimental","1700","1370264","0.0-4.0-8.190","true","191","2.549999999999999","","",""
"3032.4000000953674","5","confid","","","html-slider-response","1702","1373801","0.0-4.0-10.190-0.190","","","","Rate your confidence","1",""
"399.7000002861023","i","choice","left","e","experimental","1709","1376026","0.0-4.0-8.191","false","192","2.549999999999999","","",""
"2577.699999809265","2","confid","","","html-slider-response","1711","1379113","0.0-4.0-10.191-0.191","","","","Rate your confidence","1",""
"464.5","i","choice","left","e","experimental","1718","1381413","0.0-4.0-8.192","false","193","2.649999999999999","","",""
"3623.6000003814697","2","confid","","","html-slider-response","1720","1385554","0.0-4.0-10.192-0.192","","","","Rate your confidence","1",""
"702.3000001907349","i","choice","right","i","experimental","1727","1388100","0.0-4.0-8.193","true","194","2.749999999999999","","",""
"5861.299999713898","4","confid","","","html-slider-response","1729","1394472","0.0-4.0-10.193-0.193","","","","Rate your confidence","1","24671"
