"rt","response","task","target_side","correct_response","trial_type","trial_index","time_elapsed","internal_node_id","correct","trial_number","n_dots","stimulus","slider_start","participant"
"609.5","e","choice","right","i","practice","10","68976","0.0-4.0-8.0","false","1","4.25","","",""
"33.400000005960464","e","choice","left","e","practice","18","71286","0.0-4.0-8.1","true","2","4.65","","",""
"3067.300000011921","i","choice","right","i","practice","26","76621","0.0-4.0-8.2","true","3","4.65","","",""
"667.2000000029802","e","choice","left","e","practice","34","79555","0.0-4.0-8.3","true","4","4.25","","",""
"481.20000000298023","i","choice","right","i","practice","42","82310","0.0-4.0-8.4","true","5","4.25","","",""
"269.79999999701977","e","choice","left","e","practice","50","84848","0.0-4.0-8.5","true","6","3.85","","",""
"1023","i","choice","right","i","practice","58","88139","0.0-4.0-8.6","true","7","3.85","","",""
"309.20000000298023","e","choice","left","e","practice","66","90716","0.0-4.0-8.7","true","8","3.65","","",""
"141.79999999701977","i","choice","right","i","practice","74","93125","0.0-4.0-8.8","true","9","3.65","","",""
"243.6000000089407","e","choice","left","e","practice","82","95646","0.0-4.0-8.9","true","10","3.4499999999999997","","",""
"268.20000000298023","e","choice","left","e","practice","90","98190","0.0-4.0-8.10","true","11","3.4499999999999997","","",""
"411.5","e","choice","right","i","practice","98","100871","0.0-4.0-8.11","false","12","3.3499999999999996","","",""
"105.29999999701977","i","choice","right","i","practice","106","103251","0.0-4.0-8.12","true","13","3.4499999999999997","","",""
"628.5","e","choice","left","e","practice","114","106156","0.0-4.0-8.13","true","14","3.4499999999999997","","",""
"264.20000000298023","i","choice","left","e","practice","122","108694","0.0-4.0-8.14","false","15","3.3499999999999996","","",""
"312.20000000298023","i","choice","right","i","practice","130","111273","0.0-4.0-8.15","true","16","3.4499999999999997","","",""
"247.19999998807907","e","choice","left","e","practice","138","113787","0.0-4.0-8.16","true","17","3.4499999999999997","","",""
"39","e","choice","right","i","practice","146","116097","0.0-4.0-8.17","false","18","3.3499999999999996","","",""
"28.200000002980232","e","choice","right","i","practice","154","118404","0.0-4.0-8.18","false","19","3.4499999999999997","","",""
"529.2999999970198","e","choice","left","e","practice","162","121198","0.0-4.0-8.19","true","20","3.55","","",""
"180","i","choice","right","i","practice","170","123661","0.0-4.0-8.20","true","21","3.55","","",""
"335","e","choice","left","e","practice","178","126272","0.0-4.0-8.21","true","22","3.4499999999999997","","",""
"97.30000001192093","e","choice","left","e","practice","186","128640","0.0-4.0-8.22","true","23","3.4499999999999997","","",""
"256.70000000298023","e","choice","right","i","practice","194","131164","0.0-4.0-8.23","false","24","3.3499999999999996","","",""
"440.1000000089407","i","choice","right","i","practice","202","133880","0.0-4.0-8.24","true","25","3.4499999999999997","","",""
"4720.29999999702","e","choice","left","e","practice","210","140876","0.0-4.0-8.25","true","26","3.4499999999999997","","",""
"453.59999999403954","e","choice","left","e","experimental","221","195003","0.0-4.0-8.26","true","27","3.3499999999999996","","",""
"2966.4000000059605","5","confid","","","html-slider-response","223","198471","0.0-4.0-10.26-0.26","","","","Rate your confidence","1",""
"588.4000000059605","i","choice","right","i","experimental","230","200825","0.0-4.0-8.27","true","28","3.3499999999999996","","",""
"4311.20000000298","4","confid","","","html-slider-response","232","205647","0.0-4.0-10.27-0.27","","","","Rate your confidence","1",""
"307.40000000596046","e","choice","left","e","experimental","239","207722","0.0-4.0-8.28","true","29","3.2499999999999996","","",""
"1622.7000000029802","5","confid","","","html-slider-response","241","209847","0.0-4.0-10.28-0.28","","","","Rate your confidence","1",""
"217.90000000596046","i","choice","right","i","experimental","248","211841","0.0-4.0-8.29","true","30","3.2499999999999996","","",""
"2519.5","4","confid","","","html-slider-response","250","214863","0.0-4.0-10.29-0.29","","","","Rate your confidence","1",""
"249.70000000298023","e","choice","left","e","experimental","257","216887","0.0-4.0-8.30","true","31","3.1499999999999995","","",""
"6504.600000008941","6","confid","","","html-slider-response","259","223894","0.0-4.0-10.30-0.30","","","","Rate your confidence","1",""
"439.79999999701977","i","choice","right","i","experimental","266","226109","0.0-4.0-8.31","true","32","3.1499999999999995","","",""
"2547.4000000059605","3","confid","","","html-slider-response","268","229159","0.0-4.0-10.31-0.31","","","","Rate your confidence","1",""
"240.40000000596046","e","choice","left","e","experimental","275","231166","0.0-4.0-8.32","true","33","3.0499999999999994","","",""
"2760.5999999940395","5","confid","","","html-slider-response","277","234438","0.0-4.0-10.32-0.32","","","","Rate your confidence","1",""
"105.5","e","choice","right","i","experimental","284","236312","0.0-4.0-8.33","false","34","3.0499999999999994","","",""
"2768.7000000029802","4","confid","","","html-slider-response","286","239583","0.0-4.0-10.33-0.33","","","","Rate your confidence","1",""
"453.8999999910593","e","choice","left","e","experimental","293","241804","0.0-4.0-8.34","true","35","3.1499999999999995","","",""
"1629.2999999970198","4","confid","","","html-slider-response","295","243935","0.0-4.0-10.34-0.34","","","","Rate your confidence","1",""
"233.20000000298023","i","choice","right","i","experimental","302","245936","0.0-4.0-8.35","true","36","3.1499999999999995","","",""
"3144.800000011921","3","confid","","","html-slider-response","304","249583","0.0-4.0-10.35-0.35","","","","Rate your confidence","1",""
"278.40000000596046","e","choice","right","i","experimental","311","251629","0.0-4.0-8.36","false","37","3.0499999999999994","","",""
"2340","4","confid","","","html-slider-response","313","254471","0.0-4.0-10.36-0.36","","","","Rate your confidence","1",""
"79.70000000298023","e","choice","left","e","experimental","320","256317","0.0-4.0-8.37","true","38","3.1499999999999995","","",""
"1507.2000000029802","4","confid","","","html-slider-response","322","258327","0.0-4.0-10.37-0.37","","","","Rate your confidence","1",""
"822.7999999970198","i","choice","right","i","experimental","329","260916","0.0-4.0-8.38","true","39","3.1499999999999995","","",""
"2236.7000000029802","4","confid","","","html-slider-response","331","263654","0.0-4.0-10.38-0.38","","","","Rate your confidence","1",""
"50.6000000089407","e","choice","left","e","experimental","338","265479","0.0-4.0-8.39","true","40","3.0499999999999994","","",""
"1951.9000000059605","4","confid","","","html-slider-response","340","267935","0.0-4.0-10.39-0.39","","","","Rate your confidence","1",""
"33.5","e","choice","left","e","experimental","347","269745","0.0-4.0-8.40","true","41","3.0499999999999994","","",""
"2255.2000000029802","4","confid","","","html-slider-response","349","272502","0.0-4.0-10.40-0.40","","","","Rate your confidence","1",""
"391.3999999910593","i","choice","right","i","experimental","356","274662","0.0-4.0-8.41","true","42","2.9499999999999993","","",""
"2202.5","4","confid","","","html-slider-response","358","277367","0.0-4.0-10.41-0.41","","","","Rate your confidence","1",""
"390.5","e","choice","left","e","experimental","365","279526","0.0-4.0-8.42","true","43","2.9499999999999993","","",""
"2241.5","5","confid","","","html-slider-response","367","282270","0.0-4.0-10.42-0.42","","","","Rate your confidence","1",""
"539.7999999970198","i","choice","right","i","experimental","374","284591","0.0-4.0-8.43","true","44","2.849999999999999","","",""
"1777.0999999940395","3","confid","","","html-slider-response","376","286871","0.0-4.0-10.43-0.43","","","","Rate your confidence","1",""
"331.5","e","choice","left","e","experimental","383","288978","0.0-4.0-8.44","true","45","2.849999999999999","","",""
"2437.5","5","confid","","","html-slider-response","385","291918","0.0-4.0-10.44-0.44","","","","Rate your confidence","1",""
"387.40000000596046","e","choice","right","i","experimental","392","294080","0.0-4.0-8.45","false","46","2.749999999999999","","",""
"2031.7000000029802","4","confid","","","html-slider-response","394","296615","0.0-4.0-10.45-0.45","","","","Rate your confidence","1",""
"91.79999999701977","e","choice","right","i","experimental","401","298472","0.0-4.0-8.46","false","47","2.849999999999999","","",""
"3465.5999999940395","5","confid","","","html-slider-response","403","302455","0.0-4.0-10.46-0.46","","","","Rate your confidence","1",""
"325.40000000596046","e","choice","left","e","experimental","410","304547","0.0-4.0-8.47","true","48","2.9499999999999993","","",""
"1373.8999999910593","3","confid","","","html-slider-response","412","306423","0.0-4.0-10.47-0.47","","","","Rate your confidence","1",""
"375.19999998807907","i","choice","right","i","experimental","419","308573","0.0-4.0-8.48","true","49","2.9499999999999993","","",""
"2786.7999999970198","5","confid","","","html-slider-response","421","311862","0.0-4.0-10.48-0.48","","","","Rate your confidence","1",""
"276.80000001192093","e","choice","left","e","experimental","428","313914","0.0-4.0-8.49","true","50","2.849999999999999","","",""
"2150.0999999940395","5","confid","","","html-slider-response","430","316566","0.0-4.0-10.49-0.49","","","","Rate your confidence","1",""
"594.9000000059605","i","choice","right","i","experimental","437","318926","0.0-4.0-8.50","true","51","2.849999999999999","","",""
"1913.3999999910593","6","confid","","","html-slider-response","439","321342","0.0-4.0-10.50-0.50","","","","Rate your confidence","1",""
"241.79999999701977","e","choice","left","e","experimental","446","323351","0.0-4.0-8.51","true","52","2.749999999999999","","",""
"2938.5999999940395","4","confid","","","html-slider-response","448","326791","0.0-4.0-10.51-0.51","","","","Rate your confidence","1",""
"412.59999999403954","i","choice","left","e","experimental","455","328979","0.0-4.0-8.52","false","53","2.749999999999999","","",""
"2525.800000011921","3","confid","","","html-slider-response","457","332006","0.0-4.0-10.52-0.52","","","","Rate your confidence","1",""
"279.69999998807907","i","choice","right","i","experimental","464","334065","0.0-4.0-8.53","true","54","2.849999999999999","","",""
"3856.0999999940395","1","confid","","","html-slider-response","466","338423","0.0-4.0-10.53-0.53","","","","Rate your confidence","1",""
"391.90000000596046","e","choice","right","i","experimental","473","340582","0.0-4.0-8.54","false","55","2.849999999999999","","",""
"2114.5","1","confid","","","html-slider-response","475","343198","0.0-4.0-10.54-0.54","","","","Rate your confidence","1",""
"347.29999999701977","e","choice","left","e","experimental","482","345313","0.0-4.0-8.55","true","56","2.9499999999999993","","",""
"2343.2999999970198","2","confid","","","html-slider-response","484","348166","0.0-4.0-10.55-0.55","","","","Rate your confidence","1",""
"576.5","e","choice","right","i","experimental","491","350509","0.0-4.0-8.56","false","57","2.9499999999999993","","",""
"2490.1000000089407","2","confid","","","html-slider-response","493","353502","0.0-4.0-10.56-0.56","","","","Rate your confidence","1",""
"560.8000000119209","e","choice","left","e","experimental","500","355830","0.0-4.0-8.57","true","58","3.0499999999999994","","",""
"2769.2999999970198","1","confid","","","html-slider-response","502","359102","0.0-4.0-10.57-0.57","","","","Rate your confidence","1",""
"111","i","choice","right","i","experimental","509","360989","0.0-4.0-8.58","true","59","3.0499999999999994","","",""
"3826.4000000059605","3","confid","","","html-slider-response","511","365319","0.0-4.0-10.58-0.58","","","","Rate your confidence","1",""
"649.2000000029802","e","choice","left","e","experimental","518","367743","0.0-4.0-8.59","true","60","2.9499999999999993","","",""
"2897.1000000089407","2","confid","","","html-slider-response","520","371142","0.0-4.0-10.59-0.59","","","","Rate your confidence","1",""
"372.8999999910593","e","choice","right","i","experimental","527","373289","0.0-4.0-8.60","false","61","2.9499999999999993","","",""
"2887.4000000059605","1","confid","","","html-slider-response","529","376679","0.0-4.0-10.60-0.60","","","","Rate your confidence","1",""
"588.2999999970198","e","choice","left","e","experimental","536","379035","0.0-4.0-8.61","true","62","3.0499999999999994","","",""
"2244.6000000089407","1","confid","","","html-slider-response","538","381782","0.0-4.0-10.61-0.61","","","","Rate your confidence","1",""
"1398.2999999970198","i","choice","left","e","experimental","545","384947","0.0-4.0-8.62","false","63","3.0499999999999994","","",""
"2860.2999999970198","2","confid","","","html-slider-response","547","388310","0.0-4.0-10.62-0.62","","","","Rate your confidence","1",""
"81.8999999910593","e","choice","right","i","experimental","554","390159","0.0-4.0-8.63","false","64","3.1499999999999995","","",""
"2801.7000000029802","2","confid","","","html-slider-response","556","393463","0.0-4.0-10.63-0.63","","","","Rate your confidence","1",""
"602.1999999880791","i","choice","left","e","experimental","563","395842","0.0-4.0-8.64","false","65","3.2499999999999996","","",""
"4077.2999999970198","2","confid","","","html-slider-response","565","400422","0.0-4.0-10.64-0.64","","","","Rate your confidence","1",""
"572.7000000029802","e","choice","right","i","experimental","572","402771","0.0-4.0-8.65","false","66","3.3499999999999996","","",""
"1837.4000000059605","1","confid","","","html-slider-response","574","405111","0.0-4.0-10.65-0.65","","","","Rate your confidence","1",""
"162.5","e","choice","left","e","experimental","581","407039","0.0-4.0-8.66","true","67","3.4499999999999997","","",""
"1809.5","1","confid","","","html-slider-response","583","409350","0.0-4.0-10.66-0.66","","","","Rate your confidence","1",""
"659.1000000089407","e","choice","right","i","experimental","590","411780","0.0-4.0-8.67","false","68","3.4499999999999997","","",""
"2507.7999999970198","2","confid","","","html-slider-response","592","414790","0.0-4.0-10.67-0.67","","","","Rate your confidence","1",""
"443.09999999403954","e","choice","left","e","experimental","600","428519","0.0-4.0-8.68","true","69","3.55","","",""
"2162.2000000029802","3","confid","","","html-slider-response","602","431183","0.0-4.0-10.68-0.68","","","","Rate your confidence","1",""
"539.4000000059605","i","choice","right","i","experimental","609","433487","0.0-4.0-8.69","true","70","3.55","","",""
"1769.5999999940395","2","confid","","","html-slider-response","611","435758","0.0-4.0-10.69-0.69","","","","Rate your confidence","1",""
"620.7000000029802","e","choice","left","e","experimental","618","438145","0.0-4.0-8.70","true","71","3.4499999999999997","","",""
"3251.9000000059605","1","confid","","","html-slider-response","620","441900","0.0-4.0-10.70-0.70","","","","Rate your confidence","1",""
"421.29999999701977","i","choice","right","i","experimental","627","444089","0.0-4.0-8.71","true","72","3.4499999999999997","","",""
"3914.5","2","confid","","","html-slider-response","629","448506","0.0-4.0-10.71-0.71","","","","Rate your confidence","1",""
"226.70000000298023","e","choice","left","e","experimental","636","450503","0.0-4.0-8.72","true","73","3.3499999999999996","","",""
"4692.600000008941","1","confid","","","html-slider-response","638","455698","0.0-4.0-10.72-0.72","","","","Rate your confidence","1",""
"510.1000000089407","e","choice","right","i","experimental","645","457986","0.0-4.0-8.73","false","74","3.3499999999999996","","",""
"9028","1","confid","","","html-slider-response","647","467518","0.0-4.0-10.73-0.73","","","","Rate your confidence","1",""
"1198","i","choice","left","e","experimental","654","470492","0.0-4.0-8.74","false","75","3.4499999999999997","","",""
"4405.70000000298","2","confid","","","html-slider-response","656","475401","0.0-4.0-10.74-0.74","","","","Rate your confidence","1",""
"3066.8999999910593","e","choice","right","i","experimental","663","480235","0.0-4.0-8.75","false","76","3.55","","",""
"4288.9000000059605","1","confid","","","html-slider-response","665","485025","0.0-4.0-10.75-0.75","","","","Rate your confidence","1",""
"1047.1000000089407","i","choice","right","i","experimental","672","487837","0.0-4.0-8.76","true","77","3.65","","",""
"3032.2000000029802","2","confid","","","html-slider-response","674","491372","0.0-4.0-10.76-0.76","","","","Rate your confidence","1",""
"1530.6000000089407","e","choice","left","e","experimental","681","494680","0.0-4.0-8.77","true","78","3.65","","",""
"4937.20000000298","1","confid","","","html-slider-response","683","500119","0.0-4.0-10.77-0.77","","","","Rate your confidence","1",""
"348.40000000596046","i","choice","right","i","experimental","690","502243","0.0-4.0-8.78","true","79","3.55","","",""
"3148.9000000059605","1","confid","","","html-slider-response","692","505894","0.0-4.0-10.78-0.78","","","","Rate your confidence","1",""
"626.3999999910593","i","choice","left","e","experimental","699","508297","0.0-4.0-8.79","false","80","3.55","","",""
"4171.4000000059605","1","confid","","","html-slider-response","701","512971","0.0-4.0-10.79-0.79","","","","Rate your confidence","1",""
"268.3999999910593","i","choice","left","e","experimental","708","515008","0.0-4.0-8.80","false","81","3.65","","",""
"3741.7999999970198","1","confid","","","html-slider-response","710","519267","0.0-4.0-10.80-0.80","","","","Rate your confidence","1",""
"273.19999998807907","e","choice","right","i","experimental","717","521307","0.0-4.0-8.81","false","82","3.75","","",""
"2887.0999999940395","1","confid","","","html-slider-response","719","524697","0.0-4.0-10.81-0.81","","","","Rate your confidence","1",""
"624","e","choice","left","e","experimental","726","527098","0.0-4.0-8.82","true","83","3.85","","",""
"4520.5","1","confid","","","html-slider-response","728","532120","0.0-4.0-10.82-0.82","","","","Rate your confidence","1",""
"727.5999999940395","i","choice","right","i","experimental","735","534622","0.0-4.0-8.83","true","84","3.85","","",""
"4012.5999999940395","1","confid","","","html-slider-response","737","539137","0.0-4.0-10.83-0.83","","","","Rate your confidence","1",""
"1214.2000000029802","i","choice","right","i","experimental","744","542130","0.0-4.0-8.84","true","85","3.75","","",""
"2798.5999999940395","1","confid","","","html-slider-response","746","545431","0.0-4.0-10.84-0.84","","","","Rate your confidence","1",""
"369.40000000596046","e","choice","left","e","experimental","753","547571","0.0-4.0-8.85","true","86","3.75","","",""
"3478.7000000029802","3","confid","","","html-slider-response","755","551552","0.0-4.0-10.85-0.85","","","","Rate your confidence","1",""
"490.20000000298023","e","choice","left","e","experimental","762","553809","0.0-4.0-8.86","true","87","3.65","","",""
"2804.300000011921","4","confid","","","html-slider-response","764","557115","0.0-4.0-10.86-0.86","","","","Rate your confidence","1",""
"629.7000000029802","i","choice","right","i","experimental","771","559512","0.0-4.0-8.87","true","88","3.65","","",""
"2856.2999999970198","3","confid","","","html-slider-response","773","562870","0.0-4.0-10.87-0.87","","","","Rate your confidence","1",""
"577.2999999970198","e","choice","left","e","experimental","780","565215","0.0-4.0-8.88","true","89","3.55","","",""
"5326.29999999702","3","confid","","","html-slider-response","782","571044","0.0-4.0-10.88-0.88","","","","Rate your confidence","1",""
"609.9000000059605","i","choice","right","i","experimental","789","573430","0.0-4.0-8.89","true","90","3.55","","",""
"4523.5999999940395","3","confid","","","html-slider-response","791","578456","0.0-4.0-10.89-0.89","","","","Rate your confidence","1",""
"1397.5","e","choice","right","i","experimental","798","581617","0.0-4.0-8.90","false","91","3.4499999999999997","","",""
"3771.3999999910593","2","confid","","","html-slider-response","800","585899","0.0-4.0-10.90-0.90","","","","Rate your confidence","1",""
"687.4000000059605","e","choice","left","e","experimental","807","588353","0.0-4.0-8.91","true","92","3.55","","",""
"5046.0999999940395","2","confid","","","html-slider-response","809","593902","0.0-4.0-10.91-0.91","","","","Rate your confidence","1",""
"512.7999999970198","e","choice","left","e","experimental","816","596181","0.0-4.0-8.92","true","93","3.55","","",""
"4854.70000000298","1","confid","","","html-slider-response","818","601537","0.0-4.0-10.92-0.92","","","","Rate your confidence","1",""
"665","i","choice","right","i","experimental","825","603972","0.0-4.0-8.93","true","94","3.4499999999999997","","",""
"3224.2000000029802","2","confid","","","html-slider-response","827","607698","0.0-4.0-10.93-0.93","","","","Rate your confidence","1",""
"925.8000000119209","i","choice","right","i","experimental","834","610400","0.0-4.0-8.94","true","95","3.4499999999999997","","",""
"3322.199999988079","3","confid","","","html-slider-response","836","614225","0.0-4.0-10.94-0.94","","","","Rate your confidence","1",""
"49.29999999701977","e","choice","left","e","experimental","843","616041","0.0-4.0-8.95","true","96","3.3499999999999996","","",""
"3509.3999999910593","1","confid","","","html-slider-response","845","620052","0.0-4.0-10.95-0.95","","","","Rate your confidence","1",""
"685.9000000059605","e","choice","left","e","experimental","852","622506","0.0-4.0-8.96","true","97","3.3499999999999996","","",""
"5787.600000008941","1","confid","","","html-slider-response","854","628806","0.0-4.0-10.96-0.96","","","","Rate your confidence","1",""
"1419.8999999910593","i","choice","right","i","experimental","861","631992","0.0-4.0-8.97","true","98","3.2499999999999996","","",""
"4371.70000000298","1","confid","","","html-slider-response","863","636867","0.0-4.0-10.97-0.97","","","","Rate your confidence","1",""
"846.2000000029802","e","choice","left","e","experimental","870","639482","0.0-4.0-8.98","true","99","3.2499999999999996","","",""
"3054","1","confid","","","html-slider-response","872","643038","0.0-4.0-10.98-0.98","","","","Rate your confidence","1",""
"366.29999999701977","i","choice","right","i","experimental","879","645181","0.0-4.0-8.99","true","100","3.1499999999999995","","",""
"2842.6000000089407","2","confid","","","html-slider-response","881","648526","0.0-4.0-10.99-0.99","","","","Rate your confidence","1",""
"3644.2000000029802","e","choice","right","i","experimental","888","653946","0.0-4.0-8.100","false","101","3.1499999999999995","","",""
"1574.2999999970198","1","confid","","","html-slider-response","890","656022","0.0-4.0-10.100-0.100","","","","Rate your confidence","1",""
"572","e","choice","left","e","experimental","897","658361","0.0-4.0-8.101","true","102","3.2499999999999996","","",""
"2471.5","1","confid","","","html-slider-response","899","661334","0.0-4.0-10.101-0.101","","","","Rate your confidence","1",""
"276.90000000596046","i","choice","right","i","experimental","906","663378","0.0-4.0-8.102","true","103","3.2499999999999996","","",""
"2645.5","2","confid","","","html-slider-response","908","666526","0.0-4.0-10.102-0.102","","","","Rate your confidence","1",""
"1156.9000000059605","e","choice","left","e","experimental","915","669447","0.0-4.0-8.103","true","104","3.1499999999999995","","",""
"1873.699999988079","1","confid","","","html-slider-response","917","671822","0.0-4.0-10.103-0.103","","","","Rate your confidence","1",""
"3337.7000000029802","e","choice","left","e","experimental","924","676942","0.0-4.0-8.104","true","105","3.1499999999999995","","",""
"13026.20000000298","1","confid","","","html-slider-response","926","690470","0.0-4.0-10.104-0.104","","","","Rate your confidence","1",""
"565","e","choice","right","i","experimental","933","692812","0.0-4.0-8.105","false","106","3.0499999999999994","","",""
"1547.5","1","confid","","","html-slider-response","935","694862","0.0-4.0-10.105-0.105","","","","Rate your confidence","1",""
"380.29999999701977","e","choice","left","e","experimental","942","697009","0.0-4.0-8.106","true","107","3.1499999999999995","","",""
"1747.5","1","confid","","","html-slider-response","944","699269","0.0-4.0-10.106-0.106","","","","Rate your confidence","1",""
"453.29999999701977","i","choice","right","i","experimental","951","701490","0.0-4.0-8.107","true","108","3.1499999999999995","","",""
"2581.4000000059605","1","confid","","","html-slider-response","953","704574","0.0-4.0-10.107-0.107","","","","Rate your confidence","1",""
"549.5","i","choice","right","i","experimental","960","706893","0.0-4.0-8.108","true","109","3.0499999999999994","","",""
"1667.0999999940395","2","confid","","","html-slider-response","962","709062","0.0-4.0-10.108-0.108","","","","Rate your confidence","1",""
"3359.6000000089407","e","choice","left","e","experimental","969","714188","0.0-4.0-8.109","true","110","3.0499999999999994","","",""
"2260.0999999940395","1","confid","","","html-slider-response","971","716950","0.0-4.0-10.109-0.109","","","","Rate your confidence","1",""
"392.40000000596046","e","choice","left","e","experimental","979","779899","0.0-4.0-8.110","true","111","2.9499999999999993","","",""
"2235.2999999970198","3","confid","","","html-slider-response","981","782637","0.0-4.0-10.110-0.110","","","","Rate your confidence","1",""
"378","i","choice","right","i","experimental","988","784794","0.0-4.0-8.111","true","112","2.9499999999999993","","",""
"2525.2999999970198","2","confid","","","html-slider-response","990","787821","0.0-4.0-10.111-0.111","","","","Rate your confidence","1",""
"335.5","e","choice","right","i","experimental","997","789923","0.0-4.0-8.112","false","113","2.849999999999999","","",""
"2147.7000000029802","2","confid","","","html-slider-response","999","792573","0.0-4.0-10.112-0.112","","","","Rate your confidence","1",""
"395.30000001192093","i","choice","left","e","experimental","1006","794737","0.0-4.0-8.113","false","114","2.9499999999999993","","",""
"1766","1","confid","","","html-slider-response","1008","797005","0.0-4.0-10.113-0.113","","","","Rate your confidence","1",""
"489.90000000596046","e","choice","right","i","experimental","1015","799273","0.0-4.0-8.114","false","115","3.0499999999999994","","",""
"2158.5","1","confid","","","html-slider-response","1017","801933","0.0-4.0-10.114-0.114","","","","Rate your confidence","1",""
"256.1000000089407","e","choice","left","e","experimental","1024","803956","0.0-4.0-8.115","true","116","3.1499999999999995","","",""
"1491.4000000059605","1","confid","","","html-slider-response","1026","805950","0.0-4.0-10.115-0.115","","","","Rate your confidence","1",""
"579.5","i","choice","right","i","experimental","1033","808296","0.0-4.0-8.116","true","117","3.1499999999999995","","",""
"1655","1","confid","","","html-slider-response","1035","810453","0.0-4.0-10.116-0.116","","","","Rate your confidence","1",""
"372.70000000298023","e","choice","left","e","experimental","1042","812593","0.0-4.0-8.117","true","118","3.0499999999999994","","",""
"2461.4000000059605","1","confid","","","html-slider-response","1044","815557","0.0-4.0-10.117-0.117","","","","Rate your confidence","1",""
"317.5","i","choice","right","i","experimental","1051","817641","0.0-4.0-8.118","true","119","3.0499999999999994","","",""
"1310.199999988079","1","confid","","","html-slider-response","1053","819453","0.0-4.0-10.118-0.118","","","","Rate your confidence","1",""
"433.29999999701977","e","choice","left","e","experimental","1060","821666","0.0-4.0-8.119","true","120","2.9499999999999993","","",""
"3196","3","confid","","","html-slider-response","1062","825365","0.0-4.0-10.119-0.119","","","","Rate your confidence","1",""
"479.59999999403954","e","choice","left","e","experimental","1069","827612","0.0-4.0-8.120","true","121","2.9499999999999993","","",""
"2307.2999999970198","2","confid","","","html-slider-response","1071","830422","0.0-4.0-10.120-0.120","","","","Rate your confidence","1",""
"548.7000000029802","i","choice","right","i","experimental","1078","832736","0.0-4.0-8.121","true","122","2.849999999999999","","",""
"1982.5999999940395","2","confid","","","html-slider-response","1080","835221","0.0-4.0-10.121-0.121","","","","Rate your confidence","1",""
"589.9000000059605","i","choice","right","i","experimental","1087","837580","0.0-4.0-8.122","true","123","2.849999999999999","","",""
"3179.3999999910593","3","confid","","","html-slider-response","1089","841261","0.0-4.0-10.122-0.122","","","","Rate your confidence","1",""
"275.59999999403954","e","choice","left","e","experimental","1096","843311","0.0-4.0-8.123","true","124","2.749999999999999","","",""
"3208","2","confid","","","html-slider-response","1098","847021","0.0-4.0-10.123-0.123","","","","Rate your confidence","1",""
"770","i","choice","right","i","experimental","1105","849559","0.0-4.0-8.124","true","125","2.749999999999999","","",""
"1895.7999999970198","2","confid","","","html-slider-response","1107","851957","0.0-4.0-10.124-0.124","","","","Rate your confidence","1",""
"269.5","e","choice","left","e","experimental","1114","854004","0.0-4.0-8.125","true","126","2.649999999999999","","",""
"1698.2999999970198","3","confid","","","html-slider-response","1116","856205","0.0-4.0-10.125-0.125","","","","Rate your confidence","1",""
"282.70000000298023","e","choice","left","e","experimental","1123","858254","0.0-4.0-8.126","true","127","2.649999999999999","","",""
"2488.0999999940395","1","confid","","","html-slider-response","1125","861245","0.0-4.0-10.126-0.126","","","","Rate your confidence","1",""
"496.90000000596046","i","choice","right","i","experimental","1132","863509","0.0-4.0-8.127","true","128","2.549999999999999","","",""
"3104.3999999910593","1","confid","","","html-slider-response","1134","867116","0.0-4.0-10.127-0.127","","","","Rate your confidence","1",""
"69.29999999701977","e","choice","left","e","experimental","1141","868954","0.0-4.0-8.128","true","129","2.549999999999999","","",""
"2027.1000000089407","2","confid","","","html-slider-response","1143","871485","0.0-4.0-10.128-0.128","","","","Rate your confidence","1",""
"152.20000000298023","i","choice","right","i","experimental","1150","873404","0.0-4.0-8.129","true","130","2.449999999999999","","",""
"2905.2000000029802","3","confid","","","html-slider-response","1152","876813","0.0-4.0-10.129-0.129","","","","Rate your confidence","1",""
"81.90000000596046","e","choice","right","i","experimental","1159","878663","0.0-4.0-8.130","false","131","2.449999999999999","","",""
"1583.1000000089407","1","confid","","","html-slider-response","1161","880748","0.0-4.0-10.130-0.130","","","","Rate your confidence","1",""
"309","e","choice","left","e","experimental","1168","882841","0.0-4.0-8.131","true","132","2.549999999999999","","",""
"1428.9000000059605","2","confid","","","html-slider-response","1170","884773","0.0-4.0-10.131-0.131","","","","Rate your confidence","1",""
"127.70000000298023","i","choice","right","i","experimental","1177","886676","0.0-4.0-8.132","true","133","2.549999999999999","","",""
"1770.7000000029802","2","confid","","","html-slider-response","1179","888949","0.0-4.0-10.132-0.132","","","","Rate your confidence","1",""
"183.09999999403954","e","choice","left","e","experimental","1186","890899","0.0-4.0-8.133","true","134","2.449999999999999","","",""
"1547.8999999910593","2","confid","","","html-slider-response","1188","892949","0.0-4.0-10.133-0.133","","","","Rate your confidence","1",""
"114.79999999701977","i","choice","right","i","experimental","1195","894831","0.0-4.0-8.134","true","135","2.449999999999999","","",""
"2176.5","3","confid","","","html-slider-response","1197","897510","0.0-4.0-10.134-0.134","","","","Rate your confidence","1",""
"93.59999999403954","e","choice","left","e","experimental","1204","899380","0.0-4.0-8.135","true","136","2.3499999999999988","","",""
"1410.1000000089407","1","confid","","","html-slider-response","1206","901294","0.0-4.0-10.135-0.135","","","","Rate your confidence","1",""
"108.8999999910593","i","choice","right","i","experimental","1213","903182","0.0-4.0-8.136","true","137","2.3499999999999988","","",""
"1249.5","2","confid","","","html-slider-response","1215","904933","0.0-4.0-10.136-0.136","","","","Rate your confidence","1",""
"194.6000000089407","e","choice","left","e","experimental","1222","906895","0.0-4.0-8.137","true","138","2.2499999999999987","","",""
"2399.7999999970198","5","confid","","","html-slider-response","1224","909797","0.0-4.0-10.137-0.137","","","","Rate your confidence","1",""
"288.19999998807907","i","choice","right","i","experimental","1231","911852","0.0-4.0-8.138","true","139","2.2499999999999987","","",""
"3820.7000000029802","4","confid","","","html-slider-response","1233","916174","0.0-4.0-10.138-0.138","","","","Rate your confidence","1",""
"48.20000000298023","e","choice","left","e","experimental","1240","917997","0.0-4.0-8.139","true","140","2.1499999999999986","","",""
"2242","1","confid","","","html-slider-response","1242","920742","0.0-4.0-10.139-0.139","","","","Rate your confidence","1",""
"342.70000000298023","i","choice","right","i","experimental","1249","922871","0.0-4.0-8.140","true","141","2.1499999999999986","","",""
"2223.7999999970198","3","confid","","","html-slider-response","1251","925597","0.0-4.0-10.140-0.140","","","","Rate your confidence","1",""
"356.5","e","choice","left","e","experimental","1258","927730","0.0-4.0-8.141","true","142","2.0499999999999985","","",""
"1998.2000000029802","2","confid","","","html-slider-response","1260","930230","0.0-4.0-10.141-0.141","","","","Rate your confidence","1",""
"510.40000000596046","e","choice","right","i","experimental","1267","932510","0.0-4.0-8.142","false","143","2.0499999999999985","","",""
"2273.8999999910593","1","confid","","","html-slider-response","1269","935285","0.0-4.0-10.142-0.142","","","","Rate your confidence","1",""
"126.90000000596046","e","choice","left","e","experimental","1276","937181","0.0-4.0-8.143","true","144","2.1499999999999986","","",""
"1690.3999999910593","2","confid","","","html-slider-response","1278","939374","0.0-4.0-10.143-0.143","","","","Rate your confidence","1",""
"294.20000000298023","e","choice","left","e","experimental","1285","941447","0.0-4.0-8.144","true","145","2.1499999999999986","","",""
"1502.8999999910593","2","confid","","","html-slider-response","1287","943453","0.0-4.0-10.144-0.144","","","","Rate your confidence","1",""
"465.70000000298023","e","choice","right","i","experimental","1294","945695","0.0-4.0-8.145","false","146","2.0499999999999985","","",""
"1680.0999999940395","3","confid","","","html-slider-response","1296","947877","0.0-4.0-10.145-0.145","","","","Rate your confidence","1",""
"244.8999999910593","e","choice","right","i","experimental","1303","949889","0.0-4.0-8.146","false","147","2.1499999999999986","","",""
"2486.300000011921","2","confid","","","html-slider-response","1305","952879","0.0-4.0-10.146-0.146","","","","Rate your confidence","1",""
"301.5","e","choice","left","e","experimental","1312","954949","0.0-4.0-8.147","true","148","2.2499999999999987","","",""
"1746.4000000059605","2","confid","","","html-slider-response","1314","957197","0.0-4.0-10.147-0.147","","","","Rate your confidence","1",""
"25.100000008940697","i","choice","right","i","experimental","1321","958989","0.0-4.0-8.148","true","149","2.2499999999999987","","",""
"1602.5","2","confid","","","html-slider-response","1323","961094","0.0-4.0-10.148-0.148","","","","Rate your confidence","1",""
"239.79999999701977","e","choice","left","e","experimental","1330","963097","0.0-4.0-8.149","true","150","2.1499999999999986","","",""
"1663.2000000029802","4","confid","","","html-slider-response","1332","965262","0.0-4.0-10.149-0.149","","","","Rate your confidence","1",""
"263.8999999910593","i","choice","right","i","experimental","1339","967300","0.0-4.0-8.150","true","151","2.1499999999999986","","",""
"1747.2999999970198","3","confid","","","html-slider-response","1341","969550","0.0-4.0-10.150-0.150","","","","Rate your confidence","1",""
"392.29999999701977","e","choice","left","e","experimental","1348","971720","0.0-4.0-8.151","true","152","2.0499999999999985","","",""
"1623.5","3","confid","","","html-slider-response","1350","973846","0.0-4.0-10.151-0.151","","","","Rate your confidence","1",""
"235.8999999910593","e","choice","left","e","experimental","1358","977640","0.0-4.0-8.152","true","153","2.0499999999999985","","",""
"2375.3999999910593","3","confid","","","html-slider-response","1360","980517","0.0-4.0-10.152-0.152","","","","Rate your confidence","1",""
"236.70000000298023","e","choice","right","i","experimental","1367","982522","0.0-4.0-8.153","false","154","1.9499999999999984","","",""
"1821.7999999970198","2","confid","","","html-slider-response","1369","984847","0.0-4.0-10.153-0.153","","","","Rate your confidence","1",""
"221","e","choice","right","i","experimental","1376","986844","0.0-4.0-8.154","false","155","2.0499999999999985","","",""
"1676.0999999940395","1","confid","","","html-slider-response","1378","989023","0.0-4.0-10.154-0.154","","","","Rate your confidence","1",""
"103.70000000298023","e","choice","left","e","experimental","1385","990898","0.0-4.0-8.155","true","156","2.1499999999999986","","",""
"1332.8999999910593","2","confid","","","html-slider-response","1387","992733","0.0-4.0-10.155-0.155","","","","Rate your confidence","1",""
"168.6000000089407","e","choice","left","e","experimental","1394","994671","0.0-4.0-8.156","true","157","2.1499999999999986","","",""
"1448.5999999940395","3","confid","","","html-slider-response","1396","996622","0.0-4.0-10.156-0.156","","","","Rate your confidence","1",""
"98.3999999910593","i","choice","right","i","experimental","1403","998490","0.0-4.0-8.157","true","158","2.0499999999999985","","",""
"2694.0999999940395","3","confid","","","html-slider-response","1405","1001686","0.0-4.0-10.157-0.157","","","","Rate your confidence","1",""
"249.79999999701977","e","choice","left","e","experimental","1412","1003702","0.0-4.0-8.158","true","159","2.0499999999999985","","",""
"2304.3999999910593","1","confid","","","html-slider-response","1414","1006509","0.0-4.0-10.158-0.158","","","","Rate your confidence","1",""
"389.90000000596046","e","choice","right","i","experimental","1421","1008677","0.0-4.0-8.159","false","160","1.9499999999999984","","",""
"2625.4000000059605","1","confid","","","html-slider-response","1423","1011805","0.0-4.0-10.159-0.159","","","","Rate your confidence","1",""
"111.79999999701977","e","choice","left","e","experimental","1430","1013694","0.0-4.0-8.160","true","161","2.0499999999999985","","",""
"4850","3","confid","","","html-slider-response","1432","1019045","0.0-4.0-10.160-0.160","","","","Rate your confidence","1",""
"248.30000001192093","e","choice","right","i","experimental","1439","1021061","0.0-4.0-8.161","false","162","2.0499999999999985","","",""
"1216.7000000029802","2","confid","","","html-slider-response","1441","1022781","0.0-4.0-10.161-0.161","","","","Rate your confidence","1",""
"441.29999999701977","e","choice","left","e","experimental","1448","1024990","0.0-4.0-8.162","true","163","2.1499999999999986","","",""
"1536.7999999970198","2","confid","","","html-slider-response","1450","1027029","0.0-4.0-10.162-0.162","","","","Rate your confidence","1",""
"259.80000001192093","i","choice","right","i","experimental","1457","1029065","0.0-4.0-8.163","true","164","2.1499999999999986","","",""
"1269.2999999970198","3","confid","","","html-slider-response","1459","1030837","0.0-4.0-10.163-0.163","","","","Rate your confidence","1",""
"186.8999999910593","e","choice","left","e","experimental","1466","1032810","0.0-4.0-8.164","true","165","2.0499999999999985","","",""
"1532.2999999970198","2","confid","","","html-slider-response","1468","1034844","0.0-4.0-10.164-0.164","","","","Rate your confidence","1",""
"262.59999999403954","e","choice","right","i","experimental","1475","1036881","0.0-4.0-8.165","false","166","2.0499999999999985","","",""
"2853.7999999970198","3","confid","","","html-slider-response","1477","1040237","0.0-4.0-10.165-0.165","","","","Rate your confidence","1",""
"14.199999988079071","e","choice","left","e","experimental","1484","1042020","0.0-4.0-8.166","true","167","2.1499999999999986","","",""
"1162.2000000029802","3","confid","","","html-slider-response","1486","1043693","0.0-4.0-10.166-0.166","","","","Rate your confidence","1",""
"225.1000000089407","i","choice","right","i","experimental","1493","1045685","0.0-4.0-8.167","true","168","2.1499999999999986","","",""
"2640.7999999970198","4","confid","","","html-slider-response","1495","1048829","0.0-4.0-10.167-0.167","","","","Rate your confidence","1",""
"205.79999999701977","e","choice","left","e","experimental","1502","1050810","0.0-4.0-8.168","true","169","2.0499999999999985","","",""
"1509","3","confid","","","html-slider-response","1504","1052821","0.0-4.0-10.168-0.168","","","","Rate your confidence","1",""
"348.5","i","choice","right","i","experimental","1511","1054946","0.0-4.0-8.169","true","170","2.0499999999999985","","",""
"1373.2000000029802","2","confid","","","html-slider-response","1513","1056821","0.0-4.0-10.169-0.169","","","","Rate your confidence","1",""
"255.20000000298023","i","choice","right","i","experimental","1520","1058843","0.0-4.0-8.170","true","171","1.9499999999999984","","",""
"1002","3","confid","","","html-slider-response","1522","1060349","0.0-4.0-10.170-0.170","","","","Rate your confidence","1",""
"51.8999999910593","e","choice","left","e","experimental","1529","1062165","0.0-4.0-8.171","true","172","1.9499999999999984","","",""
"1967.9000000059605","2","confid","","","html-slider-response","1531","1064636","0.0-4.0-10.171-0.171","","","","Rate your confidence","1",""
"14.5","e","choice","left","e","experimental","1538","1066427","0.0-4.0-8.172","true","173","1.8499999999999983","","",""
"1715.1000000089407","2","confid","","","html-slider-response","1540","1068645","0.0-4.0-10.172-0.172","","","","Rate your confidence","1",""
"0.10000000894069672","i","choice","right","i","experimental","1547","1070420","0.0-4.0-8.173","true","174","1.8499999999999983","","",""
"1529.5","3","confid","","","html-slider-response","1549","1072452","0.0-4.0-10.173-0.173","","","","Rate your confidence","1",""
"21","e","choice","left","e","experimental","1556","1074247","0.0-4.0-8.174","true","175","1.7499999999999982","","",""
"1743.699999988079","1","confid","","","html-slider-response","1558","1076493","0.0-4.0-10.174-0.174","","","","Rate your confidence","1",""
"11","i","choice","right","i","experimental","1565","1078270","0.0-4.0-8.175","true","176","1.7499999999999982","","",""
"1831.8999999910593","3","confid","","","html-slider-response","1567","1080606","0.0-4.0-10.175-0.175","","","","Rate your confidence","1",""
"221.20000000298023","i","choice","right","i","experimental","1574","1082595","0.0-4.0-8.176","true","177","1.6499999999999981","","",""
"2060.2999999970198","2","confid","","","html-slider-response","1576","1085157","0.0-4.0-10.176-0.176","","","","Rate your confidence","1",""
"312","e","choice","left","e","experimental","1583","1087244","0.0-4.0-8.177","true","178","1.6499999999999981","","",""
"1866.9000000059605","1","confid","","","html-slider-response","1585","1089614","0.0-4.0-10.177-0.177","","","","Rate your confidence","1",""
"38.5","i","choice","right","i","experimental","1592","1091421","0.0-4.0-8.178","true","179","1.549999999999998","","",""
"1970.2999999970198","2","confid","","","html-slider-response","1594","1093893","0.0-4.0-10.178-0.178","","","","Rate your confidence","1",""
"270","i","choice","left","e","experimental","1601","1095937","0.0-4.0-8.179","false","180","1.549999999999998","","",""
"2261.1000000089407","3","confid","","","html-slider-response","1603","1098701","0.0-4.0-10.179-0.179","","","","Rate your confidence","1",""
"69.69999998807907","e","choice","left","e","experimental","1610","1100547","0.0-4.0-8.180","true","181","1.6499999999999981","","",""
"1244.5","2","confid","","","html-slider-response","1612","1102294","0.0-4.0-10.180-0.180","","","","Rate your confidence","1",""
"32.599999994039536","i","choice","right","i","experimental","1619","1104096","0.0-4.0-8.181","true","182","1.6499999999999981","","",""
"3007.6000000089407","2","confid","","","html-slider-response","1621","1107605","0.0-4.0-10.181-0.181","","","","Rate your confidence","1",""
"304.1000000089407","i","choice","right","i","experimental","1628","1109679","0.0-4.0-8.182","true","183","1.549999999999998","","",""
"4504.79999999702","4","confid","","","html-slider-response","1630","1114685","0.0-4.0-10.182-0.182","","","","Rate your confidence","1",""
"330.1000000089407","e","choice","left","e","experimental","1637","1116784","0.0-4.0-8.183","true","184","1.549999999999998","","",""
"1535.9000000059605","3","confid","","","html-slider-response","1639","1118822","0.0-4.0-10.183-0.183","","","","Rate your confidence","1",""
"118.09999999403954","i","choice","right","i","experimental","1646","1120718","0.0-4.0-8.184","true","185","1.449999999999998","","",""
"2296.7000000029802","4","confid","","","html-slider-response","1648","1123517","0.0-4.0-10.184-0.184","","","","Rate your confidence","1",""
"103.90000000596046","e","choice","left","e","experimental","1655","1125410","0.0-4.0-8.185","true","186","1.449999999999998","","",""
"1532.199999988079","2","confid","","","html-slider-response","1657","1127446","0.0-4.0-10.185-0.185","","","","Rate your confidence","1",""
"919.2000000029802","e","choice","left","e","experimental","1664","1130131","0.0-4.0-8.186","true","187","1.3499999999999979","","",""
"1547","3","confid","","","html-slider-response","1666","1132182","0.0-4.0-10.186-0.186","","","","Rate your confidence","1",""
"262.3999999910593","i","choice","right","i","experimental","1673","1134221","0.0-4.0-8.187","true","188","1.3499999999999979","","",""
"1273.199999988079","4","confid","","","html-slider-response","1675","1135997","0.0-4.0-10.187-0.187","","","","Rate your confidence","1",""
"711.2999999970198","e","choice","left","e","experimental","1682","1138476","0.0-4.0-8.188","true","189","1.2499999999999978","","",""
"1715.7999999970198","2","confid","","","html-slider-response","1684","1140694","0.0-4.0-10.188-0.188","","","","Rate your confidence","1",""
"47.70000000298023","i","choice","right","i","experimental","1691","1142509","0.0-4.0-8.189","true","190","1.2499999999999978","","",""
"1897.8999999910593","4","confid","","","html-slider-response","1693","1144910","0.0-4.0-10.189-0.189","","","","Rate your confidence","1",""
"1072.7000000029802","i","choice","left","e","experimental","1700","1147752","0.0-4.0-8.190","false","191","1.1499999999999977","","",""
"2455.199999988079","1","confid","","","html-slider-response","1702","1150709","0.0-4.0-10.190-0.190","","","","Rate your confidence","1",""
"384","e","choice","right","i","experimental","1709","1152882","0.0-4.0-8.191","false","192","1.2499999999999978","","",""
"2421.5","3","confid","","","html-slider-response","1711","1155805","0.0-4.0-10.191-0.191","","","","Rate your confidence","1",""
"184.6000000089407","i","choice","right","i","experimental","1718","1157767","0.0-4.0-8.192","true","193","1.3499999999999979","","",""
"1296.2000000029802","3","confid","","","html-slider-response","1720","1159566","0.0-4.0-10.192-0.192","","","","Rate your confidence","1",""
"595.8999999910593","e","choice","left","e","experimental","1727","1161937","0.0-4.0-8.193","true","194","1.3499999999999979","","",""
"1446.5","2","confid","","","html-slider-response","1729","1163885","0.0-4.0-10.193-0.193","","","","Rate your confidence","1","40157"
