"rt","response","task","target_side","correct_response","trial_type","trial_index","time_elapsed","internal_node_id","correct","trial_number","n_dots","stimulus","slider_start","participant"
"1102","i","choice","right","i","practice","10","71597","0.0-4.0-8.0","true","1","4.25","","",""
"438.99999999998545","e","choice","left","e","practice","18","74319","0.0-4.0-8.1","true","2","4.25","","",""
"594","i","choice","right","i","practice","26","77195","0.0-4.0-8.2","true","3","3.85","","",""
"257","e","choice","left","e","practice","34","79738","0.0-4.0-8.3","true","4","3.85","","",""
"526.0000000000146","e","choice","right","i","practice","42","82550","0.0-4.0-8.4","false","5","3.45","","",""
"356.9999999999709","e","choice","left","e","practice","50","85194","0.0-4.0-8.5","true","6","3.85","","",""
"1316.999999999971","i","choice","right","i","practice","58","88797","0.0-4.0-8.6","true","7","3.85","","",""
"470","e","choice","left","e","practice","66","91551","0.0-4.0-8.7","true","8","3.65","","",""
"613","i","choice","right","i","practice","74","94454","0.0-4.0-8.8","true","9","3.65","","",""
"1090","e","choice","left","e","practice","82","97832","0.0-4.0-8.9","true","10","3.4499999999999997","","",""
"434","e","choice","left","e","practice","90","100547","0.0-4.0-8.10","true","11","3.4499999999999997","","",""
"412.0000000000291","e","choice","right","i","practice","98","103240","0.0-4.0-8.11","false","12","3.3499999999999996","","",""
"614","e","choice","left","e","practice","106","106139","0.0-4.0-8.12","true","13","3.4499999999999997","","",""
"1190","e","choice","right","i","practice","114","109614","0.0-4.0-8.13","false","14","3.4499999999999997","","",""
"209.9999999999709","i","choice","right","i","practice","122","112106","0.0-4.0-8.14","true","15","3.55","","",""
"858.0000000000291","e","choice","left","e","practice","130","115246","0.0-4.0-8.15","true","16","3.55","","",""
"710","e","choice","left","e","practice","138","118238","0.0-4.0-8.16","true","17","3.4499999999999997","","",""
"1152","e","choice","right","i","practice","146","121670","0.0-4.0-8.17","false","18","3.4499999999999997","","",""
"383","e","choice","left","e","practice","154","124337","0.0-4.0-8.18","true","19","3.55","","",""
"458","e","choice","right","i","practice","162","127080","0.0-4.0-8.19","false","20","3.55","","",""
"758","i","choice","right","i","practice","170","130117","0.0-4.0-8.20","true","21","3.65","","",""
"626","e","choice","left","e","practice","178","133027","0.0-4.0-8.21","true","22","3.65","","",""
"560","i","choice","right","i","practice","186","135871","0.0-4.0-8.22","true","23","3.55","","",""
"647","i","choice","left","e","practice","194","138797","0.0-4.0-8.23","false","24","3.55","","",""
"1012.9999999999709","e","choice","left","e","practice","202","142097","0.0-4.0-8.24","true","25","3.65","","",""
"588","i","choice","right","i","practice","210","144969","0.0-4.0-8.25","true","26","3.65","","",""
"882","i","choice","right","i","experimental","221","171396","0.0-4.0-8.26","true","27","3.55","","",""
"6121","3","confid","","","html-slider-response","223","178023","0.0-4.0-10.26-0.26","","","","Rate your confidence","1",""
"451","e","choice","left","e","experimental","230","180256","0.0-4.0-8.27","true","28","3.55","","",""
"5108","3","confid","","","html-slider-response","232","185869","0.0-4.0-10.27-0.27","","","","Rate your confidence","1",""
"944.0000000000291","e","choice","left","e","experimental","239","188592","0.0-4.0-8.28","true","29","3.4499999999999997","","",""
"2070","4","confid","","","html-slider-response","241","191167","0.0-4.0-10.28-0.28","","","","Rate your confidence","1",""
"975","e","choice","right","i","experimental","248","193924","0.0-4.0-8.29","false","30","3.4499999999999997","","",""
"4429","3","confid","","","html-slider-response","250","198857","0.0-4.0-10.29-0.29","","","","Rate your confidence","1",""
"1061","i","choice","left","e","experimental","257","201700","0.0-4.0-8.30","false","31","3.55","","",""
"3147.999999999971","3","confid","","","html-slider-response","259","205352","0.0-4.0-10.30-0.30","","","","Rate your confidence","1",""
"1877","e","choice","right","i","experimental","266","209010","0.0-4.0-8.31","false","32","3.65","","",""
"4105","3","confid","","","html-slider-response","268","213620","0.0-4.0-10.31-0.31","","","","Rate your confidence","1",""
"1071","e","choice","left","e","experimental","275","216473","0.0-4.0-8.32","true","33","3.75","","",""
"2273","4","confid","","","html-slider-response","277","219253","0.0-4.0-10.32-0.32","","","","Rate your confidence","1",""
"1617","i","choice","right","i","experimental","284","222648","0.0-4.0-8.33","true","34","3.75","","",""
"3217.999999999942","3","confid","","","html-slider-response","286","226371","0.0-4.0-10.33-0.33","","","","Rate your confidence","1",""
"1024","i","choice","right","i","experimental","293","229171","0.0-4.0-8.34","true","35","3.65","","",""
"2251.000000000058","4","confid","","","html-slider-response","295","231927","0.0-4.0-10.34-0.34","","","","Rate your confidence","1",""
"899","e","choice","left","e","experimental","302","234607","0.0-4.0-8.35","true","36","3.65","","",""
"2463","4","confid","","","html-slider-response","304","237576","0.0-4.0-10.35-0.35","","","","Rate your confidence","1",""
"1991","e","choice","left","e","experimental","311","241348","0.0-4.0-8.36","true","37","3.55","","",""
"2021","4","confid","","","html-slider-response","313","243874","0.0-4.0-10.36-0.36","","","","Rate your confidence","1",""
"1146.0000000000582","i","choice","right","i","experimental","320","246802","0.0-4.0-8.37","true","38","3.55","","",""
"1755","3","confid","","","html-slider-response","322","249061","0.0-4.0-10.37-0.37","","","","Rate your confidence","1",""
"1000","e","choice","left","e","experimental","329","251845","0.0-4.0-8.38","true","39","3.4499999999999997","","",""
"2019","4","confid","","","html-slider-response","331","254368","0.0-4.0-10.38-0.38","","","","Rate your confidence","1",""
"912","i","choice","right","i","experimental","338","257059","0.0-4.0-8.39","true","40","3.4499999999999997","","",""
"1950","4","confid","","","html-slider-response","340","259518","0.0-4.0-10.39-0.39","","","","Rate your confidence","1",""
"1704.9999999999418","e","choice","left","e","experimental","347","263005","0.0-4.0-8.40","true","41","3.3499999999999996","","",""
"4913","4","confid","","","html-slider-response","349","268423","0.0-4.0-10.40-0.40","","","","Rate your confidence","1",""
"788","e","choice","right","i","experimental","356","270993","0.0-4.0-8.41","false","42","3.3499999999999996","","",""
"2064","3","confid","","","html-slider-response","358","273562","0.0-4.0-10.41-0.41","","","","Rate your confidence","1",""
"1085","i","choice","right","i","experimental","365","276428","0.0-4.0-8.42","true","43","3.4499999999999997","","",""
"1799","3","confid","","","html-slider-response","367","278732","0.0-4.0-10.42-0.42","","","","Rate your confidence","1",""
"817","e","choice","left","e","experimental","374","281327","0.0-4.0-8.43","true","44","3.4499999999999997","","",""
"4796","4","confid","","","html-slider-response","376","286628","0.0-4.0-10.43-0.43","","","","Rate your confidence","1",""
"1219","e","choice","right","i","experimental","383","289629","0.0-4.0-8.44","false","45","3.3499999999999996","","",""
"3842","3","confid","","","html-slider-response","385","293975","0.0-4.0-10.44-0.44","","","","Rate your confidence","1",""
"833.0000000000582","e","choice","left","e","experimental","392","296590","0.0-4.0-8.45","true","46","3.4499999999999997","","",""
"2403","3","confid","","","html-slider-response","394","299502","0.0-4.0-10.45-0.45","","","","Rate your confidence","1",""
"6137","e","choice","left","e","experimental","401","307422","0.0-4.0-8.46","true","47","3.4499999999999997","","",""
"4802","3","confid","","","html-slider-response","403","312728","0.0-4.0-10.46-0.46","","","","Rate your confidence","1",""
"1031","i","choice","right","i","experimental","410","315539","0.0-4.0-8.47","true","48","3.3499999999999996","","",""
"2491","4","confid","","","html-slider-response","412","318534","0.0-4.0-10.47-0.47","","","","Rate your confidence","1",""
"769","e","choice","left","e","experimental","419","321081","0.0-4.0-8.48","true","49","3.3499999999999996","","",""
"1904","4","confid","","","html-slider-response","421","323488","0.0-4.0-10.48-0.48","","","","Rate your confidence","1",""
"1093","i","choice","right","i","experimental","428","326364","0.0-4.0-8.49","true","50","3.2499999999999996","","",""
"10235","3","confid","","","html-slider-response","430","337104","0.0-4.0-10.49-0.49","","","","Rate your confidence","1",""
"881","e","choice","left","e","experimental","437","339764","0.0-4.0-8.50","true","51","3.2499999999999996","","",""
"2028","4","confid","","","html-slider-response","439","342297","0.0-4.0-10.50-0.50","","","","Rate your confidence","1",""
"712","e","choice","right","i","experimental","446","344791","0.0-4.0-8.51","false","52","3.1499999999999995","","",""
"3208","4","confid","","","html-slider-response","448","348506","0.0-4.0-10.51-0.51","","","","Rate your confidence","1",""
"767","e","choice","left","e","experimental","455","351054","0.0-4.0-8.52","true","53","3.2499999999999996","","",""
"3225","4","confid","","","html-slider-response","457","354783","0.0-4.0-10.52-0.52","","","","Rate your confidence","1",""
"993","i","choice","right","i","experimental","464","357558","0.0-4.0-8.53","true","54","3.2499999999999996","","",""
"2027","3","confid","","","html-slider-response","466","360094","0.0-4.0-10.53-0.53","","","","Rate your confidence","1",""
"1243.9999999999418","e","choice","right","i","experimental","473","363115","0.0-4.0-8.54","false","55","3.1499999999999995","","",""
"3439","3","confid","","","html-slider-response","475","367059","0.0-4.0-10.54-0.54","","","","Rate your confidence","1",""
"802","e","choice","left","e","experimental","482","369642","0.0-4.0-8.55","true","56","3.2499999999999996","","",""
"2155","3","confid","","","html-slider-response","484","372302","0.0-4.0-10.55-0.55","","","","Rate your confidence","1",""
"1063","e","choice","left","e","experimental","491","375146","0.0-4.0-8.56","true","57","3.2499999999999996","","",""
"2130.000000000058","3","confid","","","html-slider-response","493","377783","0.0-4.0-10.56-0.56","","","","Rate your confidence","1",""
"1240","i","choice","right","i","experimental","500","380804","0.0-4.0-8.57","true","58","3.1499999999999995","","",""
"2049.000000000058","3","confid","","","html-slider-response","502","383358","0.0-4.0-10.57-0.57","","","","Rate your confidence","1",""
"963.0000000000582","e","choice","left","e","experimental","509","386104","0.0-4.0-8.58","true","59","3.1499999999999995","","",""
"3401","3","confid","","","html-slider-response","511","390010","0.0-4.0-10.58-0.58","","","","Rate your confidence","1",""
"1280.0000000000582","e","choice","right","i","experimental","518","393072","0.0-4.0-8.59","false","60","3.0499999999999994","","",""
"2068","3","confid","","","html-slider-response","520","395645","0.0-4.0-10.59-0.59","","","","Rate your confidence","1",""
"860","i","choice","right","i","experimental","527","398285","0.0-4.0-8.60","true","61","3.1499999999999995","","",""
"2489","3","confid","","","html-slider-response","529","401279","0.0-4.0-10.60-0.60","","","","Rate your confidence","1",""
"876","e","choice","left","e","experimental","536","403936","0.0-4.0-8.61","true","62","3.1499999999999995","","",""
"2263.000000000058","3","confid","","","html-slider-response","538","406702","0.0-4.0-10.61-0.61","","","","Rate your confidence","1",""
"975","e","choice","left","e","experimental","545","409456","0.0-4.0-8.62","true","63","3.0499999999999994","","",""
"1735","3","confid","","","html-slider-response","547","411698","0.0-4.0-10.62-0.62","","","","Rate your confidence","1",""
"809","i","choice","right","i","experimental","554","414293","0.0-4.0-8.63","true","64","3.0499999999999994","","",""
"1976.0000000000582","3","confid","","","html-slider-response","556","416774","0.0-4.0-10.63-0.63","","","","Rate your confidence","1",""
"1265.9999999999418","e","choice","right","i","experimental","563","419819","0.0-4.0-8.64","false","65","2.9499999999999993","","",""
"1904","3","confid","","","html-slider-response","565","422229","0.0-4.0-10.64-0.64","","","","Rate your confidence","1",""
"1192.0000000000582","i","choice","left","e","experimental","572","425202","0.0-4.0-8.65","false","66","3.0499999999999994","","",""
"2509","3","confid","","","html-slider-response","574","428217","0.0-4.0-10.65-0.65","","","","Rate your confidence","1",""
"689","i","choice","right","i","experimental","581","430688","0.0-4.0-8.66","true","67","3.1499999999999995","","",""
"2410","3","confid","","","html-slider-response","583","433602","0.0-4.0-10.66-0.66","","","","Rate your confidence","1",""
"809","e","choice","left","e","experimental","590","436196","0.0-4.0-8.67","true","68","3.1499999999999995","","",""
"5670.999999999942","3","confid","","","html-slider-response","592","442371","0.0-4.0-10.67-0.67","","","","Rate your confidence","1",""
"890.0000000001164","e","choice","left","e","experimental","600","734071","0.0-4.0-8.68","true","69","3.0499999999999994","","",""
"2360","4","confid","","","html-slider-response","602","736935","0.0-4.0-10.68-0.68","","","","Rate your confidence","1",""
"625","e","choice","right","i","experimental","609","739345","0.0-4.0-8.69","false","70","3.0499999999999994","","",""
"2489.9999999998836","3","confid","","","html-slider-response","611","742339","0.0-4.0-10.69-0.69","","","","Rate your confidence","1",""
"979","i","choice","right","i","experimental","618","745101","0.0-4.0-8.70","true","71","3.1499999999999995","","",""
"2482","3","confid","","","html-slider-response","620","748087","0.0-4.0-10.70-0.70","","","","Rate your confidence","1",""
"841","e","choice","left","e","experimental","627","750708","0.0-4.0-8.71","true","72","3.1499999999999995","","",""
"2068","3","confid","","","html-slider-response","629","753281","0.0-4.0-10.71-0.71","","","","Rate your confidence","1",""
"2513","i","choice","right","i","experimental","636","757574","0.0-4.0-8.72","true","73","3.0499999999999994","","",""
"2990","3","confid","","","html-slider-response","638","761068","0.0-4.0-10.72-0.72","","","","Rate your confidence","1",""
"890","e","choice","left","e","experimental","645","763738","0.0-4.0-8.73","true","74","3.0499999999999994","","",""
"2500","3","confid","","","html-slider-response","647","766742","0.0-4.0-10.73-0.73","","","","Rate your confidence","1",""
"1813.9999999998836","i","choice","left","e","experimental","654","770334","0.0-4.0-8.74","false","75","2.9499999999999993","","",""
"2002","3","confid","","","html-slider-response","656","772840","0.0-4.0-10.74-0.74","","","","Rate your confidence","1",""
"552","e","choice","right","i","experimental","663","775171","0.0-4.0-8.75","false","76","3.0499999999999994","","",""
"2977","4","confid","","","html-slider-response","665","778653","0.0-4.0-10.75-0.75","","","","Rate your confidence","1",""
"446","e","choice","left","e","experimental","672","780882","0.0-4.0-8.76","true","77","3.1499999999999995","","",""
"2181","4","confid","","","html-slider-response","674","783567","0.0-4.0-10.76-0.76","","","","Rate your confidence","1",""
"425","e","choice","right","i","experimental","681","785775","0.0-4.0-8.77","false","78","3.1499999999999995","","",""
"2022","4","confid","","","html-slider-response","683","788303","0.0-4.0-10.77-0.77","","","","Rate your confidence","1",""
"2384","i","choice","left","e","experimental","690","792465","0.0-4.0-8.78","false","79","3.2499999999999996","","",""
"3379","3","confid","","","html-slider-response","692","796348","0.0-4.0-10.78-0.78","","","","Rate your confidence","1",""
"685.0000000001164","e","choice","right","i","experimental","699","798812","0.0-4.0-8.79","false","80","3.3499999999999996","","",""
"1929.9999999998836","3","confid","","","html-slider-response","701","801247","0.0-4.0-10.79-0.79","","","","Rate your confidence","1",""
"607","e","choice","left","e","experimental","708","803636","0.0-4.0-8.80","true","81","3.4499999999999997","","",""
"2053","3","confid","","","html-slider-response","710","806192","0.0-4.0-10.80-0.80","","","","Rate your confidence","1",""
"1826","i","choice","right","i","experimental","717","809799","0.0-4.0-8.81","true","82","3.4499999999999997","","",""
"1817","3","confid","","","html-slider-response","719","812121","0.0-4.0-10.81-0.81","","","","Rate your confidence","1",""
"983","e","choice","left","e","experimental","726","814885","0.0-4.0-8.82","true","83","3.3499999999999996","","",""
"1548","3","confid","","","html-slider-response","728","816937","0.0-4.0-10.82-0.82","","","","Rate your confidence","1",""
"2206","i","choice","right","i","experimental","735","820926","0.0-4.0-8.83","true","84","3.3499999999999996","","",""
"2454","2","confid","","","html-slider-response","737","823884","0.0-4.0-10.83-0.83","","","","Rate your confidence","1",""
"846","e","choice","left","e","experimental","744","826510","0.0-4.0-8.84","true","85","3.2499999999999996","","",""
"1834","3","confid","","","html-slider-response","746","828792","0.0-4.0-10.84-0.84","","","","Rate your confidence","1",""
"1422","e","choice","right","i","experimental","753","831993","0.0-4.0-8.85","false","86","3.2499999999999996","","",""
"2489.0000000001164","2","confid","","","html-slider-response","755","834986","0.0-4.0-10.85-0.85","","","","Rate your confidence","1",""
"856","e","choice","left","e","experimental","762","837625","0.0-4.0-8.86","true","87","3.3499999999999996","","",""
"2854","2","confid","","","html-slider-response","764","840983","0.0-4.0-10.86-0.86","","","","Rate your confidence","1",""
"1703","i","choice","right","i","experimental","771","844469","0.0-4.0-8.87","true","88","3.3499999999999996","","",""
"2502","3","confid","","","html-slider-response","773","847475","0.0-4.0-10.87-0.87","","","","Rate your confidence","1",""
"1179","i","choice","right","i","experimental","780","850436","0.0-4.0-8.88","true","89","3.2499999999999996","","",""
"1990","2","confid","","","html-slider-response","782","852929","0.0-4.0-10.88-0.88","","","","Rate your confidence","1",""
"641.9999999998836","e","choice","left","e","experimental","789","855354","0.0-4.0-8.89","true","90","3.2499999999999996","","",""
"1863","3","confid","","","html-slider-response","791","857722","0.0-4.0-10.89-0.89","","","","Rate your confidence","1",""
"561.9999999998836","e","choice","left","e","experimental","798","860066","0.0-4.0-8.90","true","91","3.1499999999999995","","",""
"1841","3","confid","","","html-slider-response","800","862411","0.0-4.0-10.90-0.90","","","","Rate your confidence","1",""
"740","e","choice","right","i","experimental","807","864933","0.0-4.0-8.91","false","92","3.1499999999999995","","",""
"2031","3","confid","","","html-slider-response","809","867469","0.0-4.0-10.91-0.91","","","","Rate your confidence","1",""
"628","e","choice","left","e","experimental","816","869877","0.0-4.0-8.92","true","93","3.2499999999999996","","",""
"1748.9999999998836","3","confid","","","html-slider-response","818","872132","0.0-4.0-10.92-0.92","","","","Rate your confidence","1",""
"804","e","choice","right","i","experimental","825","874717","0.0-4.0-8.93","false","94","3.2499999999999996","","",""
"1901","3","confid","","","html-slider-response","827","877122","0.0-4.0-10.93-0.93","","","","Rate your confidence","1",""
"803","i","choice","right","i","experimental","834","879707","0.0-4.0-8.94","true","95","3.3499999999999996","","",""
"1736","3","confid","","","html-slider-response","836","881948","0.0-4.0-10.94-0.94","","","","Rate your confidence","1",""
"927.0000000001164","e","choice","left","e","experimental","843","884656","0.0-4.0-8.95","true","96","3.3499999999999996","","",""
"1812.9999999998836","3","confid","","","html-slider-response","845","886974","0.0-4.0-10.95-0.95","","","","Rate your confidence","1",""
"1063","e","choice","right","i","experimental","852","889820","0.0-4.0-8.96","false","97","3.2499999999999996","","",""
"1652.9999999998836","3","confid","","","html-slider-response","854","891977","0.0-4.0-10.96-0.96","","","","Rate your confidence","1",""
"665.9999999998836","e","choice","left","e","experimental","861","894428","0.0-4.0-8.97","true","98","3.3499999999999996","","",""
"1807","3","confid","","","html-slider-response","863","896739","0.0-4.0-10.97-0.97","","","","Rate your confidence","1",""
"3549","i","choice","right","i","experimental","870","902070","0.0-4.0-8.98","true","99","3.3499999999999996","","",""
"3707","1","confid","","","html-slider-response","872","906282","0.0-4.0-10.98-0.98","","","","Rate your confidence","1",""
"605","e","choice","left","e","experimental","879","908667","0.0-4.0-8.99","true","100","3.2499999999999996","","",""
"2148","3","confid","","","html-slider-response","881","911319","0.0-4.0-10.99-0.99","","","","Rate your confidence","1",""
"483.0000000001164","e","choice","left","e","experimental","888","913583","0.0-4.0-8.100","true","101","3.2499999999999996","","",""
"1642.9999999998836","3","confid","","","html-slider-response","890","915730","0.0-4.0-10.100-0.100","","","","Rate your confidence","1",""
"1646.0000000001164","i","choice","right","i","experimental","897","919159","0.0-4.0-8.101","true","102","3.1499999999999995","","",""
"2804","2","confid","","","html-slider-response","899","922467","0.0-4.0-10.101-0.101","","","","Rate your confidence","1",""
"2042.9999999998836","i","choice","right","i","experimental","906","926293","0.0-4.0-8.102","true","103","3.1499999999999995","","",""
"1727","3","confid","","","html-slider-response","908","928522","0.0-4.0-10.102-0.102","","","","Rate your confidence","1",""
"1171.0000000001164","e","choice","left","e","experimental","915","931476","0.0-4.0-8.103","true","104","3.0499999999999994","","",""
"2574.9999999998836","2","confid","","","html-slider-response","917","934556","0.0-4.0-10.103-0.103","","","","Rate your confidence","1",""
"623","e","choice","left","e","experimental","924","936964","0.0-4.0-8.104","true","105","3.0499999999999994","","",""
"2546.0000000001164","4","confid","","","html-slider-response","926","940014","0.0-4.0-10.104-0.104","","","","Rate your confidence","1",""
"725.0000000001164","i","choice","right","i","experimental","933","942523","0.0-4.0-8.105","true","106","2.9499999999999993","","",""
"1675","3","confid","","","html-slider-response","935","944702","0.0-4.0-10.105-0.105","","","","Rate your confidence","1",""
"480","e","choice","left","e","experimental","942","946967","0.0-4.0-8.106","true","107","2.9499999999999993","","",""
"2119","3","confid","","","html-slider-response","944","949591","0.0-4.0-10.106-0.106","","","","Rate your confidence","1",""
"578.9999999998836","i","choice","right","i","experimental","951","951952","0.0-4.0-8.107","true","108","2.849999999999999","","",""
"8492.000000000116","3","confid","","","html-slider-response","953","960950","0.0-4.0-10.107-0.107","","","","Rate your confidence","1",""
"481","e","choice","left","e","experimental","960","963213","0.0-4.0-8.108","true","109","2.849999999999999","","",""
"1750","3","confid","","","html-slider-response","962","965469","0.0-4.0-10.108-0.108","","","","Rate your confidence","1",""
"386","i","choice","right","i","experimental","969","967636","0.0-4.0-8.109","true","110","2.749999999999999","","",""
"1596","3","confid","","","html-slider-response","971","969737","0.0-4.0-10.109-0.109","","","","Rate your confidence","1",""
"945","i","choice","right","i","experimental","979","1068558","0.0-4.0-8.110","true","111","2.749999999999999","","",""
"4101","2","confid","","","html-slider-response","981","1073164","0.0-4.0-10.110-0.110","","","","Rate your confidence","1",""
"891.9999999997672","e","choice","left","e","experimental","988","1075842","0.0-4.0-8.111","true","112","2.649999999999999","","",""
"1666","3","confid","","","html-slider-response","990","1078013","0.0-4.0-10.111-0.111","","","","Rate your confidence","1",""
"142","e","choice","left","e","experimental","997","1079938","0.0-4.0-8.112","true","113","2.649999999999999","","",""
"2251","3","confid","","","html-slider-response","999","1082694","0.0-4.0-10.112-0.112","","","","Rate your confidence","1",""
"1016","i","choice","right","i","experimental","1006","1085498","0.0-4.0-8.113","true","114","2.549999999999999","","",""
"2782.000000000233","3","confid","","","html-slider-response","1008","1088787","0.0-4.0-10.113-0.113","","","","Rate your confidence","1",""
"1054","e","choice","right","i","experimental","1015","1091625","0.0-4.0-8.114","false","115","2.549999999999999","","",""
"2160","3","confid","","","html-slider-response","1017","1094289","0.0-4.0-10.114-0.114","","","","Rate your confidence","1",""
"515","e","choice","left","e","experimental","1024","1096587","0.0-4.0-8.115","true","116","2.649999999999999","","",""
"2071","3","confid","","","html-slider-response","1026","1099162","0.0-4.0-10.115-0.115","","","","Rate your confidence","1",""
"746","e","choice","left","e","experimental","1033","1101693","0.0-4.0-8.116","true","117","2.649999999999999","","",""
"14347.999999999767","3","confid","","","html-slider-response","1035","1116547","0.0-4.0-10.116-0.116","","","","Rate your confidence","1",""
"511","i","choice","right","i","experimental","1042","1118842","0.0-4.0-8.117","true","118","2.549999999999999","","",""
"1961","3","confid","","","html-slider-response","1044","1121309","0.0-4.0-10.117-0.117","","","","Rate your confidence","1",""
"923","e","choice","left","e","experimental","1051","1124016","0.0-4.0-8.118","true","119","2.549999999999999","","",""
"1719","3","confid","","","html-slider-response","1053","1126238","0.0-4.0-10.118-0.118","","","","Rate your confidence","1",""
"762","i","choice","right","i","experimental","1060","1128785","0.0-4.0-8.119","true","120","2.449999999999999","","",""
"2895","3","confid","","","html-slider-response","1062","1132186","0.0-4.0-10.119-0.119","","","","Rate your confidence","1",""
"922","e","choice","right","i","experimental","1069","1134893","0.0-4.0-8.120","false","121","2.449999999999999","","",""
"1675.9999999997672","3","confid","","","html-slider-response","1071","1137074","0.0-4.0-10.120-0.120","","","","Rate your confidence","1",""
"495.99999999976717","e","choice","left","e","experimental","1078","1139356","0.0-4.0-8.121","true","122","2.549999999999999","","",""
"2759.999999999767","3","confid","","","html-slider-response","1080","1142620","0.0-4.0-10.121-0.121","","","","Rate your confidence","1",""
"1245.0000000002328","e","choice","left","e","experimental","1087","1145648","0.0-4.0-8.122","true","123","2.549999999999999","","",""
"2417.000000000233","3","confid","","","html-slider-response","1089","1148571","0.0-4.0-10.122-0.122","","","","Rate your confidence","1",""
"741","i","choice","right","i","experimental","1096","1151096","0.0-4.0-8.123","true","124","2.449999999999999","","",""
"1865","3","confid","","","html-slider-response","1098","1153465","0.0-4.0-10.123-0.123","","","","Rate your confidence","1",""
"684","e","choice","right","i","experimental","1105","1155915","0.0-4.0-8.124","false","125","2.449999999999999","","",""
"1976","3","confid","","","html-slider-response","1107","1158393","0.0-4.0-10.124-0.124","","","","Rate your confidence","1",""
"766","i","choice","left","e","experimental","1114","1160921","0.0-4.0-8.125","false","126","2.549999999999999","","",""
"2178","3","confid","","","html-slider-response","1116","1163603","0.0-4.0-10.125-0.125","","","","Rate your confidence","1",""
"1169","e","choice","right","i","experimental","1123","1166552","0.0-4.0-8.126","false","127","2.649999999999999","","",""
"3345","2","confid","","","html-slider-response","1125","1170402","0.0-4.0-10.126-0.126","","","","Rate your confidence","1",""
"697","e","choice","left","e","experimental","1132","1172885","0.0-4.0-8.127","true","128","2.749999999999999","","",""
"2403","2","confid","","","html-slider-response","1134","1175793","0.0-4.0-10.127-0.127","","","","Rate your confidence","1",""
"414.99999999976717","e","choice","left","e","experimental","1141","1177994","0.0-4.0-8.128","true","129","2.749999999999999","","",""
"3036","2","confid","","","html-slider-response","1143","1181534","0.0-4.0-10.128-0.128","","","","Rate your confidence","1",""
"678","i","choice","right","i","experimental","1150","1183994","0.0-4.0-8.129","true","130","2.649999999999999","","",""
"4250","2","confid","","","html-slider-response","1152","1188754","0.0-4.0-10.129-0.129","","","","Rate your confidence","1",""
"520","i","choice","right","i","experimental","1159","1191056","0.0-4.0-8.130","true","131","2.649999999999999","","",""
"1937","3","confid","","","html-slider-response","1161","1193498","0.0-4.0-10.130-0.130","","","","Rate your confidence","1",""
"1010","e","choice","left","e","experimental","1168","1196291","0.0-4.0-8.131","true","132","2.549999999999999","","",""
"2684","3","confid","","","html-slider-response","1170","1199481","0.0-4.0-10.131-0.131","","","","Rate your confidence","1",""
"631","e","choice","right","i","experimental","1177","1201895","0.0-4.0-8.132","false","133","2.549999999999999","","",""
"2387","3","confid","","","html-slider-response","1179","1204787","0.0-4.0-10.132-0.132","","","","Rate your confidence","1",""
"760","i","choice","left","e","experimental","1186","1207333","0.0-4.0-8.133","false","134","2.649999999999999","","",""
"2792","3","confid","","","html-slider-response","1188","1210631","0.0-4.0-10.133-0.133","","","","Rate your confidence","1",""
"2447","i","choice","right","i","experimental","1195","1214860","0.0-4.0-8.134","true","135","2.749999999999999","","",""
"2560","1","confid","","","html-slider-response","1197","1217926","0.0-4.0-10.134-0.134","","","","Rate your confidence","1",""
"672","e","choice","left","e","experimental","1204","1220381","0.0-4.0-8.135","true","136","2.749999999999999","","",""
"2366","2","confid","","","html-slider-response","1206","1223252","0.0-4.0-10.135-0.135","","","","Rate your confidence","1",""
"597.9999999997672","i","choice","left","e","experimental","1213","1225635","0.0-4.0-8.136","false","137","2.649999999999999","","",""
"1970","2","confid","","","html-slider-response","1215","1228109","0.0-4.0-10.136-0.136","","","","Rate your confidence","1",""
"1383.9999999997672","e","choice","right","i","experimental","1222","1231277","0.0-4.0-8.137","false","138","2.749999999999999","","",""
"2030","2","confid","","","html-slider-response","1224","1233811","0.0-4.0-10.137-0.137","","","","Rate your confidence","1",""
"1346.9999999997672","i","choice","right","i","experimental","1231","1236941","0.0-4.0-8.138","true","139","2.849999999999999","","",""
"2822","2","confid","","","html-slider-response","1233","1240269","0.0-4.0-10.138-0.138","","","","Rate your confidence","1",""
"1425","i","choice","left","e","experimental","1240","1243477","0.0-4.0-8.139","false","140","2.849999999999999","","",""
"1820","2","confid","","","html-slider-response","1242","1245802","0.0-4.0-10.139-0.139","","","","Rate your confidence","1",""
"517","e","choice","right","i","experimental","1249","1248101","0.0-4.0-8.140","false","141","2.9499999999999993","","",""
"1932","3","confid","","","html-slider-response","1251","1250538","0.0-4.0-10.140-0.140","","","","Rate your confidence","1",""
"555.9999999997672","e","choice","left","e","experimental","1258","1252881","0.0-4.0-8.141","true","142","3.0499999999999994","","",""
"1749","3","confid","","","html-slider-response","1260","1255137","0.0-4.0-10.141-0.141","","","","Rate your confidence","1",""
"1019","i","choice","right","i","experimental","1267","1257940","0.0-4.0-8.142","true","143","3.0499999999999994","","",""
"1837","3","confid","","","html-slider-response","1269","1260284","0.0-4.0-10.142-0.142","","","","Rate your confidence","1",""
"541","e","choice","left","e","experimental","1276","1262611","0.0-4.0-8.143","true","144","2.9499999999999993","","",""
"2294.000000000233","3","confid","","","html-slider-response","1278","1265409","0.0-4.0-10.143-0.143","","","","Rate your confidence","1",""
"733","e","choice","right","i","experimental","1285","1267930","0.0-4.0-8.144","false","145","2.9499999999999993","","",""
"1782.0000000002328","2","confid","","","html-slider-response","1287","1270217","0.0-4.0-10.144-0.144","","","","Rate your confidence","1",""
"726","e","choice","left","e","experimental","1294","1272726","0.0-4.0-8.145","true","146","3.0499999999999994","","",""
"2635","3","confid","","","html-slider-response","1296","1275867","0.0-4.0-10.145-0.145","","","","Rate your confidence","1",""
"367","i","choice","right","i","experimental","1303","1278019","0.0-4.0-8.146","true","147","3.0499999999999994","","",""
"3074","4","confid","","","html-slider-response","1305","1281598","0.0-4.0-10.146-0.146","","","","Rate your confidence","1",""
"855","e","choice","left","e","experimental","1312","1284239","0.0-4.0-8.147","true","148","2.9499999999999993","","",""
"3484","3","confid","","","html-slider-response","1314","1288227","0.0-4.0-10.147-0.147","","","","Rate your confidence","1",""
"584","i","choice","right","i","experimental","1321","1290593","0.0-4.0-8.148","true","149","2.9499999999999993","","",""
"1527","3","confid","","","html-slider-response","1323","1292625","0.0-4.0-10.148-0.148","","","","Rate your confidence","1",""
"334","i","choice","left","e","experimental","1330","1294744","0.0-4.0-8.149","false","150","2.849999999999999","","",""
"1694","3","confid","","","html-slider-response","1332","1296943","0.0-4.0-10.149-0.149","","","","Rate your confidence","1",""
"743.9999999997672","i","choice","left","e","experimental","1339","1299470","0.0-4.0-8.150","false","151","2.9499999999999993","","",""
"1610","3","confid","","","html-slider-response","1341","1301584","0.0-4.0-10.150-0.150","","","","Rate your confidence","1",""
"1002","i","choice","right","i","experimental","1348","1304370","0.0-4.0-8.151","true","152","3.0499999999999994","","",""
"2864","3","confid","","","html-slider-response","1350","1307738","0.0-4.0-10.151-0.151","","","","Rate your confidence","1",""
"1336","e","choice","left","e","experimental","1358","1345135","0.0-4.0-8.152","true","153","3.0499999999999994","","",""
"2956","1","confid","","","html-slider-response","1360","1348597","0.0-4.0-10.152-0.152","","","","Rate your confidence","1",""
"410.00000000023283","i","choice","right","i","experimental","1367","1350789","0.0-4.0-8.153","true","154","2.9499999999999993","","",""
"1937","3","confid","","","html-slider-response","1369","1353230","0.0-4.0-10.153-0.153","","","","Rate your confidence","1",""
"396","i","choice","right","i","experimental","1376","1355411","0.0-4.0-8.154","true","155","2.9499999999999993","","",""
"3032","3","confid","","","html-slider-response","1378","1358947","0.0-4.0-10.154-0.154","","","","Rate your confidence","1",""
"492.99999999976717","i","choice","left","e","experimental","1385","1361224","0.0-4.0-8.155","false","156","2.849999999999999","","",""
"3868.999999999767","3","confid","","","html-slider-response","1387","1365600","0.0-4.0-10.155-0.155","","","","Rate your confidence","1",""
"3503","e","choice","left","e","experimental","1394","1370885","0.0-4.0-8.156","true","157","2.9499999999999993","","",""
"1951","1","confid","","","html-slider-response","1396","1373342","0.0-4.0-10.156-0.156","","","","Rate your confidence","1",""
"380","i","choice","right","i","experimental","1403","1375508","0.0-4.0-8.157","true","158","2.9499999999999993","","",""
"1645","3","confid","","","html-slider-response","1405","1377658","0.0-4.0-10.157-0.157","","","","Rate your confidence","1",""
"307","i","choice","right","i","experimental","1412","1379749","0.0-4.0-8.158","true","159","2.849999999999999","","",""
"1882","3","confid","","","html-slider-response","1414","1382136","0.0-4.0-10.158-0.158","","","","Rate your confidence","1",""
"352","i","choice","left","e","experimental","1421","1384269","0.0-4.0-8.159","false","160","2.849999999999999","","",""
"1706.0000000002328","3","confid","","","html-slider-response","1423","1386479","0.0-4.0-10.159-0.159","","","","Rate your confidence","1",""
"409.00000000023283","i","choice","right","i","experimental","1430","1388672","0.0-4.0-8.160","true","161","2.9499999999999993","","",""
"2969","3","confid","","","html-slider-response","1432","1392147","0.0-4.0-10.160-0.160","","","","Rate your confidence","1",""
"1841","i","choice","left","e","experimental","1439","1395773","0.0-4.0-8.161","false","162","2.9499999999999993","","",""
"1853.9999999997672","3","confid","","","html-slider-response","1441","1398131","0.0-4.0-10.161-0.161","","","","Rate your confidence","1",""
"736","e","choice","left","e","experimental","1448","1400653","0.0-4.0-8.162","true","163","3.0499999999999994","","",""
"1556","3","confid","","","html-slider-response","1450","1402713","0.0-4.0-10.162-0.162","","","","Rate your confidence","1",""
"416.99999999976717","i","choice","right","i","experimental","1457","1404914","0.0-4.0-8.163","true","164","3.0499999999999994","","",""
"4804.999999999767","3","confid","","","html-slider-response","1459","1410225","0.0-4.0-10.163-0.163","","","","Rate your confidence","1",""
"813","i","choice","left","e","experimental","1466","1412824","0.0-4.0-8.164","false","165","2.9499999999999993","","",""
"1744.0000000002328","3","confid","","","html-slider-response","1468","1415074","0.0-4.0-10.164-0.164","","","","Rate your confidence","1",""
"327","i","choice","right","i","experimental","1475","1417185","0.0-4.0-8.165","true","166","3.0499999999999994","","",""
"2492","3","confid","","","html-slider-response","1477","1420182","0.0-4.0-10.165-0.165","","","","Rate your confidence","1",""
"764.0000000002328","e","choice","left","e","experimental","1484","1422727","0.0-4.0-8.166","true","167","3.0499999999999994","","",""
"1668.0000000002328","3","confid","","","html-slider-response","1486","1424900","0.0-4.0-10.166-0.166","","","","Rate your confidence","1",""
"885","e","choice","right","i","experimental","1493","1427572","0.0-4.0-8.167","false","168","2.9499999999999993","","",""
"2903","2","confid","","","html-slider-response","1495","1430980","0.0-4.0-10.167-0.167","","","","Rate your confidence","1",""
"477.99999999976717","e","choice","left","e","experimental","1502","1433244","0.0-4.0-8.168","true","169","3.0499999999999994","","",""
"2670.000000000233","4","confid","","","html-slider-response","1504","1436420","0.0-4.0-10.168-0.168","","","","Rate your confidence","1",""
"1521","i","choice","right","i","experimental","1511","1439732","0.0-4.0-8.169","true","170","3.0499999999999994","","",""
"1725.9999999997672","3","confid","","","html-slider-response","1513","1441962","0.0-4.0-10.169-0.169","","","","Rate your confidence","1",""
"1553","e","choice","right","i","experimental","1520","1445299","0.0-4.0-8.170","false","171","2.9499999999999993","","",""
"1926.9999999997672","2","confid","","","html-slider-response","1522","1447729","0.0-4.0-10.170-0.170","","","","Rate your confidence","1",""
"447.99999999976717","e","choice","left","e","experimental","1529","1449963","0.0-4.0-8.171","true","172","3.0499999999999994","","",""
"2762","3","confid","","","html-slider-response","1531","1453231","0.0-4.0-10.171-0.171","","","","Rate your confidence","1",""
"456","e","choice","left","e","experimental","1538","1455473","0.0-4.0-8.172","true","173","3.0499999999999994","","",""
"2823","3","confid","","","html-slider-response","1540","1458799","0.0-4.0-10.172-0.172","","","","Rate your confidence","1",""
"533","e","choice","right","i","experimental","1547","1461118","0.0-4.0-8.173","false","174","2.9499999999999993","","",""
"1864","3","confid","","","html-slider-response","1549","1463487","0.0-4.0-10.173-0.173","","","","Rate your confidence","1",""
"600.9999999997672","e","choice","right","i","experimental","1556","1465873","0.0-4.0-8.174","false","175","3.0499999999999994","","",""
"1780.9999999997672","3","confid","","","html-slider-response","1558","1468160","0.0-4.0-10.174-0.174","","","","Rate your confidence","1",""
"573","e","choice","left","e","experimental","1565","1470520","0.0-4.0-8.175","true","176","3.1499999999999995","","",""
"1596","3","confid","","","html-slider-response","1567","1472621","0.0-4.0-10.175-0.175","","","","Rate your confidence","1",""
"1030","e","choice","left","e","experimental","1574","1475435","0.0-4.0-8.176","true","177","3.1499999999999995","","",""
"1756","2","confid","","","html-slider-response","1576","1477696","0.0-4.0-10.176-0.176","","","","Rate your confidence","1",""
"2058.000000000233","e","choice","right","i","experimental","1583","1481540","0.0-4.0-8.177","false","178","3.0499999999999994","","",""
"1992","2","confid","","","html-slider-response","1585","1484036","0.0-4.0-10.177-0.177","","","","Rate your confidence","1",""
"1410","e","choice","left","e","experimental","1592","1487232","0.0-4.0-8.178","true","179","3.1499999999999995","","",""
"1900.0000000002328","2","confid","","","html-slider-response","1594","1489636","0.0-4.0-10.178-0.178","","","","Rate your confidence","1",""
"756","i","choice","right","i","experimental","1601","1492177","0.0-4.0-8.179","true","180","3.1499999999999995","","",""
"1859.0000000002328","2","confid","","","html-slider-response","1603","1494541","0.0-4.0-10.179-0.179","","","","Rate your confidence","1",""
"763.0000000002328","e","choice","right","i","experimental","1610","1497088","0.0-4.0-8.180","false","181","3.0499999999999994","","",""
"1587","2","confid","","","html-slider-response","1612","1499180","0.0-4.0-10.180-0.180","","","","Rate your confidence","1",""
"881","e","choice","left","e","experimental","1619","1501846","0.0-4.0-8.181","true","182","3.1499999999999995","","",""
"1710","2","confid","","","html-slider-response","1621","1504060","0.0-4.0-10.181-0.181","","","","Rate your confidence","1",""
"1208","e","choice","right","i","experimental","1628","1507051","0.0-4.0-8.182","false","183","3.1499999999999995","","",""
"1949","2","confid","","","html-slider-response","1630","1509505","0.0-4.0-10.182-0.182","","","","Rate your confidence","1",""
"753.9999999997672","e","choice","left","e","experimental","1637","1512043","0.0-4.0-8.183","true","184","3.2499999999999996","","",""
"2929","2","confid","","","html-slider-response","1639","1515477","0.0-4.0-10.183-0.183","","","","Rate your confidence","1",""
"733","e","choice","left","e","experimental","1646","1517997","0.0-4.0-8.184","true","185","3.2499999999999996","","",""
"2027.0000000002328","2","confid","","","html-slider-response","1648","1520529","0.0-4.0-10.184-0.184","","","","Rate your confidence","1",""
"944.0000000002328","e","choice","right","i","experimental","1655","1523259","0.0-4.0-8.185","false","186","3.1499999999999995","","",""
"3848","2","confid","","","html-slider-response","1657","1527612","0.0-4.0-10.185-0.185","","","","Rate your confidence","1",""
"700","i","choice","right","i","experimental","1664","1530098","0.0-4.0-8.186","true","187","3.2499999999999996","","",""
"2451","2","confid","","","html-slider-response","1666","1533052","0.0-4.0-10.186-0.186","","","","Rate your confidence","1",""
"7769","i","choice","left","e","experimental","1673","1542606","0.0-4.0-8.187","false","188","3.2499999999999996","","",""
"2953","1","confid","","","html-slider-response","1675","1546064","0.0-4.0-10.187-0.187","","","","Rate your confidence","1",""
"745","e","choice","left","e","experimental","1682","1548593","0.0-4.0-8.188","true","189","3.3499999999999996","","",""
"5827","2","confid","","","html-slider-response","1684","1554924","0.0-4.0-10.188-0.188","","","","Rate your confidence","1",""
"550.9999999997672","e","choice","right","i","experimental","1691","1557260","0.0-4.0-8.189","false","190","3.3499999999999996","","",""
"1419","2","confid","","","html-slider-response","1693","1559184","0.0-4.0-10.189-0.189","","","","Rate your confidence","1",""
"709","i","choice","right","i","experimental","1700","1561677","0.0-4.0-8.190","true","191","3.4499999999999997","","",""
"2397","2","confid","","","html-slider-response","1702","1564579","0.0-4.0-10.190-0.190","","","","Rate your confidence","1",""
"1016","i","choice","left","e","experimental","1709","1567379","0.0-4.0-8.191","false","192","3.4499999999999997","","",""
"2151.000000000233","2","confid","","","html-slider-response","1711","1570036","0.0-4.0-10.191-0.191","","","","Rate your confidence","1",""
"587","e","choice","left","e","experimental","1718","1572406","0.0-4.0-8.192","true","193","3.55","","",""
"1806.9999999997672","3","confid","","","html-slider-response","1720","1574717","0.0-4.0-10.192-0.192","","","","Rate your confidence","1",""
"1325","i","choice","right","i","experimental","1727","1577828","0.0-4.0-8.193","true","194","3.55","","",""
"1560.9999999997672","2","confid","","","html-slider-response","1729","1579894","0.0-4.0-10.193-0.193","","","","Rate your confidence","1","76076"
