"rt","response","task","target_side","correct_response","trial_type","trial_index","time_elapsed","internal_node_id","correct","trial_number","n_dots","stimulus","slider_start","participant"
"819.1000000000931","e","choice","left","e","practice","10","98272","0.0-4.0-8.0","true","1","4.25","","",""
"517.3999999999069","i","choice","right","i","practice","18","101119","0.0-4.0-8.1","true","2","4.25","","",""
"697.2000000001863","e","choice","left","e","practice","26","104104","0.0-4.0-8.2","true","3","3.85","","",""
"1060","i","choice","right","i","practice","34","107461","0.0-4.0-8.3","true","4","3.85","","",""
"579.2000000001863","i","choice","right","i","practice","42","110349","0.0-4.0-8.4","true","5","3.45","","",""
"343.3000000002794","e","choice","left","e","practice","50","112982","0.0-4.0-8.5","true","6","3.45","","",""
"281.70000000018626","i","choice","right","i","practice","58","115577","0.0-4.0-8.6","true","7","3.25","","",""
"316.89999999990687","e","choice","left","e","practice","66","118221","0.0-4.0-8.7","true","8","3.25","","",""
"778.2999999998137","i","choice","left","e","practice","74","121290","0.0-4.0-8.8","false","9","3.05","","",""
"348.60000000009313","i","choice","right","i","practice","82","123926","0.0-4.0-8.9","true","10","3.25","","",""
"310.89999999990687","e","choice","left","e","practice","90","126528","0.0-4.0-8.10","true","11","3.25","","",""
"500.70000000018626","i","choice","right","i","practice","98","129344","0.0-4.0-8.11","true","12","3.15","","",""
"462.3000000002794","i","choice","right","i","practice","106","132093","0.0-4.0-8.12","true","13","3.15","","",""
"565.1000000000931","e","choice","left","e","practice","114","134943","0.0-4.0-8.13","true","14","3.05","","",""
"271.70000000018626","e","choice","right","i","practice","122","137526","0.0-4.0-8.14","false","15","3.05","","",""
"259.10000000009313","e","choice","left","e","practice","130","140067","0.0-4.0-8.15","true","16","3.15","","",""
"692.7999999998137","e","choice","right","i","practice","138","143075","0.0-4.0-8.16","false","17","3.15","","",""
"354.3000000002794","i","choice","left","e","practice","146","145741","0.0-4.0-8.17","false","18","3.25","","",""
"453.59999999962747","i","choice","right","i","practice","154","148482","0.0-4.0-8.18","true","19","3.35","","",""
"409.10000000009313","e","choice","left","e","practice","162","151174","0.0-4.0-8.19","true","20","3.35","","",""
"923.8999999999069","e","choice","right","i","practice","170","154384","0.0-4.0-8.20","false","21","3.25","","",""
"645.7999999998137","e","choice","left","e","practice","178","157315","0.0-4.0-8.21","true","22","3.35","","",""
"371.60000000009313","i","choice","right","i","practice","186","159972","0.0-4.0-8.22","true","23","3.35","","",""
"1392","e","choice","left","e","practice","194","163686","0.0-4.0-8.23","true","24","3.25","","",""
"681.5","e","choice","left","e","practice","202","166682","0.0-4.0-8.24","true","25","3.25","","",""
"438.6999999997206","e","choice","right","i","practice","210","169429","0.0-4.0-8.25","false","26","3.15","","",""
"446.89999999990687","e","choice","left","e","experimental","221","197322","0.0-4.0-8.26","true","27","3.25","","",""
"6423.199999999721","4","confid","","","html-slider-response","223","204250","0.0-4.0-10.26-0.26","","","","Rate your confidence","1",""
"369.39999999990687","i","choice","right","i","experimental","230","206409","0.0-4.0-8.27","true","28","3.25","","",""
"3922.2999999998137","4","confid","","","html-slider-response","232","210839","0.0-4.0-10.27-0.27","","","","Rate your confidence","1",""
"1762.8999999999069","i","choice","right","i","experimental","239","214417","0.0-4.0-8.28","true","29","3.15","","",""
"3240.4000000003725","2","confid","","","html-slider-response","241","218164","0.0-4.0-10.28-0.28","","","","Rate your confidence","1",""
"1088.8000000002794","e","choice","left","e","experimental","248","221040","0.0-4.0-8.29","true","30","3.15","","",""
"3491","2","confid","","","html-slider-response","250","225040","0.0-4.0-10.29-0.29","","","","Rate your confidence","1",""
"278","e","choice","left","e","experimental","257","227144","0.0-4.0-8.30","true","31","3.05","","",""
"2559.5","3","confid","","","html-slider-response","259","230209","0.0-4.0-10.30-0.30","","","","Rate your confidence","1",""
"1708","e","choice","right","i","experimental","266","233702","0.0-4.0-8.31","false","32","3.05","","",""
"1922.5","1","confid","","","html-slider-response","268","236156","0.0-4.0-10.31-0.31","","","","Rate your confidence","1",""
"2479.2999999998137","e","choice","right","i","experimental","275","240425","0.0-4.0-8.32","false","33","3.15","","",""
"3364.5","1","confid","","","html-slider-response","277","244296","0.0-4.0-10.32-0.32","","","","Rate your confidence","1",""
"886.5","e","choice","left","e","experimental","284","247000","0.0-4.0-8.33","true","34","3.25","","",""
"2077.5999999996275","1","confid","","","html-slider-response","286","249583","0.0-4.0-10.33-0.33","","","","Rate your confidence","1",""
"30","i","choice","right","i","experimental","293","251428","0.0-4.0-8.34","true","35","3.25","","",""
"3869.8000000002794","3","confid","","","html-slider-response","295","255804","0.0-4.0-10.34-0.34","","","","Rate your confidence","1",""
"672.8999999999069","e","choice","left","e","experimental","302","258263","0.0-4.0-8.35","true","36","3.15","","",""
"2293.7000000001863","3","confid","","","html-slider-response","304","261071","0.0-4.0-10.35-0.35","","","","Rate your confidence","1",""
"268.70000000018626","e","choice","left","e","experimental","311","263116","0.0-4.0-8.36","true","37","3.15","","",""
"4431.199999999721","4","confid","","","html-slider-response","313","268052","0.0-4.0-10.36-0.36","","","","Rate your confidence","1",""
"958.7000000001863","e","choice","right","i","experimental","320","270834","0.0-4.0-8.37","false","38","3.05","","",""
"2572.399999999907","2","confid","","","html-slider-response","322","273918","0.0-4.0-10.37-0.37","","","","Rate your confidence","1",""
"289.60000000009313","i","choice","right","i","experimental","329","276020","0.0-4.0-8.38","true","39","3.15","","",""
"3224.3000000002794","3","confid","","","html-slider-response","331","279749","0.0-4.0-10.38-0.38","","","","Rate your confidence","1",""
"483","i","choice","left","e","experimental","338","282021","0.0-4.0-8.39","false","40","3.15","","",""
"3250.4000000003725","2","confid","","","html-slider-response","340","285778","0.0-4.0-10.39-0.39","","","","Rate your confidence","1",""
"559.3999999999069","e","choice","left","e","experimental","347","288129","0.0-4.0-8.40","true","41","3.25","","",""
"2651.3000000002794","1","confid","","","html-slider-response","349","291289","0.0-4.0-10.40-0.40","","","","Rate your confidence","1",""
"401","i","choice","right","i","experimental","356","293504","0.0-4.0-8.41","true","42","3.25","","",""
"3230.1999999997206","2","confid","","","html-slider-response","358","297242","0.0-4.0-10.41-0.41","","","","Rate your confidence","1",""
"662.5","i","choice","left","e","experimental","365","299695","0.0-4.0-8.42","false","43","3.15","","",""
"3305.6999999997206","2","confid","","","html-slider-response","367","303530","0.0-4.0-10.42-0.42","","","","Rate your confidence","1",""
"251.5","e","choice","right","i","experimental","374","305576","0.0-4.0-8.43","false","44","3.25","","",""
"2904.5","3","confid","","","html-slider-response","376","308987","0.0-4.0-10.43-0.43","","","","Rate your confidence","1",""
"366.3000000002794","e","choice","right","i","experimental","383","311167","0.0-4.0-8.44","false","45","3.35","","",""
"2368.2999999998137","2","confid","","","html-slider-response","385","314042","0.0-4.0-10.44-0.44","","","","Rate your confidence","1",""
"305.5","e","choice","left","e","experimental","392","316137","0.0-4.0-8.45","true","46","3.45","","",""
"2764.2999999998137","5","confid","","","html-slider-response","394","319408","0.0-4.0-10.45-0.45","","","","Rate your confidence","1",""
"205.89999999990687","i","choice","right","i","experimental","401","321403","0.0-4.0-8.46","true","47","3.45","","",""
"3081.600000000093","6","confid","","","html-slider-response","403","325021","0.0-4.0-10.46-0.46","","","","Rate your confidence","1",""
"218.1999999997206","e","choice","left","e","experimental","410","327029","0.0-4.0-8.47","true","48","3.35","","",""
"3220.7999999998137","4","confid","","","html-slider-response","412","330756","0.0-4.0-10.47-0.47","","","","Rate your confidence","1",""
"869.8999999999069","i","choice","right","i","experimental","419","333413","0.0-4.0-8.48","true","49","3.35","","",""
"3540.7999999998137","2","confid","","","html-slider-response","421","337462","0.0-4.0-10.48-0.48","","","","Rate your confidence","1",""
"102.40000000037253","e","choice","left","e","experimental","428","339383","0.0-4.0-8.49","true","50","3.25","","",""
"3031.7000000001863","5","confid","","","html-slider-response","430","342919","0.0-4.0-10.49-0.49","","","","Rate your confidence","1",""
"1022.6000000000931","i","choice","left","e","experimental","437","345730","0.0-4.0-8.50","false","51","3.25","","",""
"3348.5","2","confid","","","html-slider-response","439","349584","0.0-4.0-10.50-0.50","","","","Rate your confidence","1",""
"1402","e","choice","right","i","experimental","446","352796","0.0-4.0-8.51","false","52","3.35","","",""
"4947.399999999907","3","confid","","","html-slider-response","448","358249","0.0-4.0-10.51-0.51","","","","Rate your confidence","1",""
"368.20000000018626","e","choice","left","e","experimental","455","360405","0.0-4.0-8.52","true","53","3.45","","",""
"3127.5","3","confid","","","html-slider-response","457","364041","0.0-4.0-10.52-0.52","","","","Rate your confidence","1",""
"521.1000000000931","i","choice","right","i","experimental","464","366355","0.0-4.0-8.53","true","54","3.45","","",""
"3377.100000000093","3","confid","","","html-slider-response","466","370239","0.0-4.0-10.53-0.53","","","","Rate your confidence","1",""
"207.39999999990687","e","choice","left","e","experimental","473","372260","0.0-4.0-8.54","true","55","3.35","","",""
"2259.5","4","confid","","","html-slider-response","475","375025","0.0-4.0-10.54-0.54","","","","Rate your confidence","1",""
"504.60000000009313","i","choice","right","i","experimental","482","377320","0.0-4.0-8.55","true","56","3.35","","",""
"3354.2999999998137","3","confid","","","html-slider-response","484","381181","0.0-4.0-10.55-0.55","","","","Rate your confidence","1",""
"379.1999999997206","i","choice","right","i","experimental","491","383349","0.0-4.0-8.56","true","57","3.25","","",""
"4751.199999999721","3","confid","","","html-slider-response","493","388606","0.0-4.0-10.56-0.56","","","","Rate your confidence","1",""
"134.39999999990687","e","choice","left","e","experimental","500","390558","0.0-4.0-8.57","true","58","3.25","","",""
"3033.2000000001863","6","confid","","","html-slider-response","502","394098","0.0-4.0-10.57-0.57","","","","Rate your confidence","1",""
"266.5","e","choice","left","e","experimental","509","396152","0.0-4.0-8.58","true","59","3.15","","",""
"3282.5","5","confid","","","html-slider-response","511","399939","0.0-4.0-10.58-0.58","","","","Rate your confidence","1",""
"232.10000000009313","i","choice","right","i","experimental","518","401960","0.0-4.0-8.59","true","60","3.15","","",""
"3850","5","confid","","","html-slider-response","520","406317","0.0-4.0-10.59-0.59","","","","Rate your confidence","1",""
"588.1000000000931","i","choice","right","i","experimental","527","408716","0.0-4.0-8.60","true","61","3.05","","",""
"2437","3","confid","","","html-slider-response","529","411659","0.0-4.0-10.60-0.60","","","","Rate your confidence","1",""
"210.60000000009313","e","choice","left","e","experimental","536","413658","0.0-4.0-8.61","true","62","3.05","","",""
"3015.399999999907","5","confid","","","html-slider-response","538","417196","0.0-4.0-10.61-0.61","","","","Rate your confidence","1",""
"633","e","choice","right","i","experimental","545","419619","0.0-4.0-8.62","false","63","2.9499999999999997","","",""
"3560.8000000002794","2","confid","","","html-slider-response","547","423687","0.0-4.0-10.62-0.62","","","","Rate your confidence","1",""
"328.89999999990687","e","choice","left","e","experimental","554","425810","0.0-4.0-8.63","true","64","3.05","","",""
"2438.600000000093","2","confid","","","html-slider-response","556","428754","0.0-4.0-10.63-0.63","","","","Rate your confidence","1",""
"104.10000000009313","i","choice","right","i","experimental","563","430647","0.0-4.0-8.64","true","65","3.05","","",""
"3359.2000000001863","5","confid","","","html-slider-response","565","434515","0.0-4.0-10.64-0.64","","","","Rate your confidence","1",""
"850.8999999999069","i","choice","left","e","experimental","572","437176","0.0-4.0-8.65","false","66","2.9499999999999997","","",""
"3155.100000000093","2","confid","","","html-slider-response","574","440838","0.0-4.0-10.65-0.65","","","","Rate your confidence","1",""
"501.6999999997206","i","choice","left","e","experimental","581","443130","0.0-4.0-8.66","false","67","3.05","","",""
"2551.600000000093","4","confid","","","html-slider-response","583","446186","0.0-4.0-10.66-0.66","","","","Rate your confidence","1",""
"186.8000000002794","i","choice","right","i","experimental","590","448161","0.0-4.0-8.67","true","68","3.15","","",""
"1982.6999999997206","4","confid","","","html-slider-response","592","450650","0.0-4.0-10.67-0.67","","","","Rate your confidence","1",""
"488.59999999962747","i","choice","right","i","experimental","600","606231","0.0-4.0-8.68","true","69","3.15","","",""
"4983.5","3","confid","","","html-slider-response","602","611722","0.0-4.0-10.68-0.68","","","","Rate your confidence","1",""
"275.89999999990687","e","choice","left","e","experimental","609","613812","0.0-4.0-8.69","true","70","3.05","","",""
"4435","4","confid","","","html-slider-response","611","618753","0.0-4.0-10.69-0.69","","","","Rate your confidence","1",""
"129.8000000002794","i","choice","right","i","experimental","618","620673","0.0-4.0-8.70","true","71","3.05","","",""
"3389.899999999907","2","confid","","","html-slider-response","620","624572","0.0-4.0-10.70-0.70","","","","Rate your confidence","1",""
"107.29999999981374","i","choice","left","e","experimental","627","626469","0.0-4.0-8.71","false","72","2.9499999999999997","","",""
"2596.8000000002794","4","confid","","","html-slider-response","629","629572","0.0-4.0-10.71-0.71","","","","Rate your confidence","1",""
"341.89999999990687","e","choice","left","e","experimental","636","631703","0.0-4.0-8.72","true","73","3.05","","",""
"2579","2","confid","","","html-slider-response","638","634789","0.0-4.0-10.72-0.72","","","","Rate your confidence","1",""
"192","e","choice","right","i","experimental","645","636778","0.0-4.0-8.73","false","74","3.05","","",""
"2055","1","confid","","","html-slider-response","647","639340","0.0-4.0-10.73-0.73","","","","Rate your confidence","1",""
"326.20000000018626","e","choice","right","i","experimental","654","641483","0.0-4.0-8.74","false","75","3.15","","",""
"2767.899999999907","1","confid","","","html-slider-response","656","644759","0.0-4.0-10.74-0.74","","","","Rate your confidence","1",""
"761","i","choice","left","e","experimental","663","647346","0.0-4.0-8.75","false","76","3.25","","",""
"2996.2999999998137","4","confid","","","html-slider-response","665","650849","0.0-4.0-10.75-0.75","","","","Rate your confidence","1",""
"402.89999999990687","i","choice","right","i","experimental","672","653071","0.0-4.0-8.76","true","77","3.35","","",""
"2313.100000000093","3","confid","","","html-slider-response","674","655893","0.0-4.0-10.76-0.76","","","","Rate your confidence","1",""
"38.700000000186265","e","choice","left","e","experimental","681","657721","0.0-4.0-8.77","true","78","3.35","","",""
"2990.8000000002794","6","confid","","","html-slider-response","683","661218","0.0-4.0-10.77-0.77","","","","Rate your confidence","1",""
"280.79999999981374","i","choice","right","i","experimental","690","663290","0.0-4.0-8.78","true","79","3.25","","",""
"3174","6","confid","","","html-slider-response","692","666972","0.0-4.0-10.78-0.78","","","","Rate your confidence","1",""
"277.60000000009313","i","choice","left","e","experimental","699","669044","0.0-4.0-8.79","false","80","3.25","","",""
"3110.1999999997206","2","confid","","","html-slider-response","701","672661","0.0-4.0-10.79-0.79","","","","Rate your confidence","1",""
"195.29999999981374","e","choice","left","e","experimental","708","674670","0.0-4.0-8.80","true","81","3.35","","",""
"2132.7000000001863","4","confid","","","html-slider-response","710","677311","0.0-4.0-10.80-0.80","","","","Rate your confidence","1",""
"2404.7999999998137","i","choice","right","i","experimental","717","681545","0.0-4.0-8.81","true","82","3.35","","",""
"2533.7000000001863","1","confid","","","html-slider-response","719","684585","0.0-4.0-10.81-0.81","","","","Rate your confidence","1",""
"212.10000000009313","i","choice","right","i","experimental","726","686591","0.0-4.0-8.82","true","83","3.25","","",""
"3193.2999999998137","3","confid","","","html-slider-response","728","690291","0.0-4.0-10.82-0.82","","","","Rate your confidence","1",""
"411.60000000009313","e","choice","left","e","experimental","735","692498","0.0-4.0-8.83","true","84","3.25","","",""
"3054.7000000001863","5","confid","","","html-slider-response","737","696059","0.0-4.0-10.83-0.83","","","","Rate your confidence","1",""
"294.60000000009313","e","choice","left","e","experimental","744","698169","0.0-4.0-8.84","true","85","3.15","","",""
"4644.700000000186","2","confid","","","html-slider-response","746","703319","0.0-4.0-10.84-0.84","","","","Rate your confidence","1",""
"666.1999999997206","i","choice","right","i","experimental","753","705804","0.0-4.0-8.85","true","86","3.15","","",""
"4101.899999999907","5","confid","","","html-slider-response","755","710413","0.0-4.0-10.85-0.85","","","","Rate your confidence","1",""
"1257.5","i","choice","right","i","experimental","762","713465","0.0-4.0-8.86","true","87","3.05","","",""
"2378.6999999997206","3","confid","","","html-slider-response","764","716352","0.0-4.0-10.86-0.86","","","","Rate your confidence","1",""
"66.59999999962747","e","choice","left","e","experimental","771","718211","0.0-4.0-8.87","true","88","3.05","","",""
"2336.7999999998137","3","confid","","","html-slider-response","773","721054","0.0-4.0-10.87-0.87","","","","Rate your confidence","1",""
"756.8999999999069","i","choice","right","i","experimental","780","723607","0.0-4.0-8.88","true","89","2.9499999999999997","","",""
"2950.4000000003725","3","confid","","","html-slider-response","782","727066","0.0-4.0-10.88-0.88","","","","Rate your confidence","1",""
"4141.899999999907","i","choice","left","e","experimental","789","733035","0.0-4.0-8.89","false","90","2.9499999999999997","","",""
"4543.800000000279","2","confid","","","html-slider-response","791","738087","0.0-4.0-10.89-0.89","","","","Rate your confidence","1",""
"1441","e","choice","right","i","experimental","798","741315","0.0-4.0-8.90","false","91","3.05","","",""
"2119.399999999907","1","confid","","","html-slider-response","800","743942","0.0-4.0-10.90-0.90","","","","Rate your confidence","1",""
"174.1999999997206","e","choice","left","e","experimental","807","745908","0.0-4.0-8.91","true","92","3.15","","",""
"2506.7000000001863","4","confid","","","html-slider-response","809","748919","0.0-4.0-10.91-0.91","","","","Rate your confidence","1",""
"232.60000000009313","i","choice","right","i","experimental","816","750950","0.0-4.0-8.92","true","93","3.15","","",""
"5649.199999999721","4","confid","","","html-slider-response","818","757103","0.0-4.0-10.92-0.92","","","","Rate your confidence","1",""
"216.90000000037253","i","choice","left","e","experimental","825","759141","0.0-4.0-8.93","false","94","3.05","","",""
"2892.6999999997206","4","confid","","","html-slider-response","827","762542","0.0-4.0-10.93-0.93","","","","Rate your confidence","1",""
"195.10000000009313","i","choice","right","i","experimental","834","764557","0.0-4.0-8.94","true","95","3.15","","",""
"2753.2999999998137","3","confid","","","html-slider-response","836","767816","0.0-4.0-10.94-0.94","","","","Rate your confidence","1",""
"2045.6000000000931","i","choice","left","e","experimental","843","771652","0.0-4.0-8.95","false","96","3.15","","",""
"2360.8000000002794","2","confid","","","html-slider-response","845","774519","0.0-4.0-10.95-0.95","","","","Rate your confidence","1",""
"214.20000000018626","i","choice","right","i","experimental","852","776519","0.0-4.0-8.96","true","97","3.25","","",""
"3019.4000000003725","5","confid","","","html-slider-response","854","780044","0.0-4.0-10.96-0.96","","","","Rate your confidence","1",""
"52.6999999997206","e","choice","left","e","experimental","861","781898","0.0-4.0-8.97","true","98","3.25","","",""
"3980.100000000093","4","confid","","","html-slider-response","863","786385","0.0-4.0-10.97-0.97","","","","Rate your confidence","1",""
"270.60000000009313","i","choice","right","i","experimental","870","788474","0.0-4.0-8.98","true","99","3.15","","",""
"2867.3000000002794","3","confid","","","html-slider-response","872","791849","0.0-4.0-10.98-0.98","","","","Rate your confidence","1",""
"196.90000000037253","e","choice","left","e","experimental","879","793866","0.0-4.0-8.99","true","100","3.15","","",""
"3665.7999999998137","5","confid","","","html-slider-response","881","798038","0.0-4.0-10.99-0.99","","","","Rate your confidence","1",""
"165.39999999990687","e","choice","left","e","experimental","888","800019","0.0-4.0-8.100","true","101","3.05","","",""
"4121.5","5","confid","","","html-slider-response","890","804647","0.0-4.0-10.100-0.100","","","","Rate your confidence","1",""
"164.39999999990687","i","choice","right","i","experimental","897","806608","0.0-4.0-8.101","true","102","3.05","","",""
"3205.399999999907","5","confid","","","html-slider-response","899","810320","0.0-4.0-10.101-0.101","","","","Rate your confidence","1",""
"351.20000000018626","e","choice","left","e","experimental","906","812466","0.0-4.0-8.102","true","103","2.9499999999999997","","",""
"2400.100000000093","4","confid","","","html-slider-response","908","815375","0.0-4.0-10.102-0.102","","","","Rate your confidence","1",""
"197","e","choice","right","i","experimental","915","817391","0.0-4.0-8.103","false","104","2.9499999999999997","","",""
"2002.2000000001863","4","confid","","","html-slider-response","917","819899","0.0-4.0-10.103-0.103","","","","Rate your confidence","1",""
"213.90000000037253","i","choice","right","i","experimental","924","821901","0.0-4.0-8.104","true","105","3.05","","",""
"2874.399999999907","3","confid","","","html-slider-response","926","825283","0.0-4.0-10.104-0.104","","","","Rate your confidence","1",""
"290.39999999990687","i","choice","left","e","experimental","933","827366","0.0-4.0-8.105","false","106","3.05","","",""
"3310.100000000093","3","confid","","","html-slider-response","935","831183","0.0-4.0-10.105-0.105","","","","Rate your confidence","1",""
"354.70000000018626","i","choice","right","i","experimental","942","833329","0.0-4.0-8.106","true","107","3.15","","",""
"3498.2000000001863","3","confid","","","html-slider-response","944","837333","0.0-4.0-10.106-0.106","","","","Rate your confidence","1",""
"608.2000000001863","i","choice","left","e","experimental","951","839768","0.0-4.0-8.107","false","108","3.15","","",""
"2686.7000000001863","3","confid","","","html-slider-response","953","842961","0.0-4.0-10.107-0.107","","","","Rate your confidence","1",""
"641.1000000000931","i","choice","left","e","experimental","960","845416","0.0-4.0-8.108","false","109","3.25","","",""
"2488.399999999907","3","confid","","","html-slider-response","962","848410","0.0-4.0-10.108-0.108","","","","Rate your confidence","1",""
"299.89999999990687","i","choice","right","i","experimental","969","850500","0.0-4.0-8.109","true","110","3.35","","",""
"2810.8000000002794","4","confid","","","html-slider-response","971","853829","0.0-4.0-10.109-0.109","","","","Rate your confidence","1",""
"368.5","e","choice","left","e","experimental","979","857627","0.0-4.0-8.110","true","111","3.35","","",""
"2562.899999999907","3","confid","","","html-slider-response","981","860696","0.0-4.0-10.110-0.110","","","","Rate your confidence","1",""
"231.79999999981374","i","choice","right","i","experimental","988","862714","0.0-4.0-8.111","true","112","3.25","","",""
"2391.1999999997206","5","confid","","","html-slider-response","990","865615","0.0-4.0-10.111-0.111","","","","Rate your confidence","1",""
"427.6999999997206","i","choice","right","i","experimental","997","867866","0.0-4.0-8.112","true","113","3.25","","",""
"2252.899999999907","6","confid","","","html-slider-response","999","870626","0.0-4.0-10.112-0.112","","","","Rate your confidence","1",""
"311.70000000018626","i","choice","left","e","experimental","1006","872731","0.0-4.0-8.113","false","114","3.15","","",""
"2402.7000000001863","6","confid","","","html-slider-response","1008","875639","0.0-4.0-10.113-0.113","","","","Rate your confidence","1",""
"2120.0999999996275","e","choice","left","e","experimental","1015","879554","0.0-4.0-8.114","true","115","3.25","","",""
"2690.3000000002794","2","confid","","","html-slider-response","1017","882756","0.0-4.0-10.114-0.114","","","","Rate your confidence","1",""
"246.10000000009313","i","choice","right","i","experimental","1024","884820","0.0-4.0-8.115","true","116","3.25","","",""
"2714.1999999997206","5","confid","","","html-slider-response","1026","888040","0.0-4.0-10.115-0.115","","","","Rate your confidence","1",""
"273","e","choice","left","e","experimental","1033","890112","0.0-4.0-8.116","true","117","3.15","","",""
"1869.0999999996275","4","confid","","","html-slider-response","1035","892489","0.0-4.0-10.116-0.116","","","","Rate your confidence","1",""
"458.39999999990687","e","choice","right","i","experimental","1042","894742","0.0-4.0-8.117","false","118","3.15","","",""
"2555.5","3","confid","","","html-slider-response","1044","897804","0.0-4.0-10.117-0.117","","","","Rate your confidence","1",""
"611.5","i","choice","right","i","experimental","1051","900204","0.0-4.0-8.118","true","119","3.25","","",""
"2917.2999999998137","4","confid","","","html-slider-response","1053","903628","0.0-4.0-10.118-0.118","","","","Rate your confidence","1",""
"283.1999999997206","e","choice","left","e","experimental","1060","905704","0.0-4.0-8.119","true","120","3.25","","",""
"3984.1999999997206","4","confid","","","html-slider-response","1062","910194","0.0-4.0-10.119-0.119","","","","Rate your confidence","1",""
"342.70000000018626","e","choice","right","i","experimental","1069","912358","0.0-4.0-8.120","false","121","3.15","","",""
"3349","2","confid","","","html-slider-response","1071","916214","0.0-4.0-10.120-0.120","","","","Rate your confidence","1",""
"141.70000000018626","e","choice","left","e","experimental","1078","918176","0.0-4.0-8.121","true","122","3.25","","",""
"3331.8000000002794","4","confid","","","html-slider-response","1080","922018","0.0-4.0-10.121-0.121","","","","Rate your confidence","1",""
"222.89999999990687","e","choice","left","e","experimental","1087","924030","0.0-4.0-8.122","true","123","3.25","","",""
"2008.8999999999069","5","confid","","","html-slider-response","1089","926547","0.0-4.0-10.122-0.122","","","","Rate your confidence","1",""
"961.6999999997206","e","choice","right","i","experimental","1096","929302","0.0-4.0-8.123","false","124","3.15","","",""
"2937.7999999998137","4","confid","","","html-slider-response","1098","932747","0.0-4.0-10.123-0.123","","","","Rate your confidence","1",""
"1726.1999999997206","e","choice","left","e","experimental","1105","936284","0.0-4.0-8.124","true","125","3.25","","",""
"2951.9000000003725","1","confid","","","html-slider-response","1107","939742","0.0-4.0-10.124-0.124","","","","Rate your confidence","1",""
"261.8000000002794","e","choice","right","i","experimental","1114","941796","0.0-4.0-8.125","false","126","3.25","","",""
"2330.5","3","confid","","","html-slider-response","1116","944635","0.0-4.0-10.125-0.125","","","","Rate your confidence","1",""
"569.3000000002794","e","choice","left","e","experimental","1123","946995","0.0-4.0-8.126","true","127","3.35","","",""
"1608.5","4","confid","","","html-slider-response","1125","949113","0.0-4.0-10.126-0.126","","","","Rate your confidence","1",""
"1651.1000000000931","e","choice","right","i","experimental","1132","952562","0.0-4.0-8.127","false","128","3.35","","",""
"4034.100000000093","2","confid","","","html-slider-response","1134","957103","0.0-4.0-10.127-0.127","","","","Rate your confidence","1",""
"65.60000000009313","i","choice","left","e","experimental","1141","958966","0.0-4.0-8.128","false","129","3.45","","",""
"4856.899999999907","4","confid","","","html-slider-response","1143","964330","0.0-4.0-10.128-0.128","","","","Rate your confidence","1",""
"247","i","choice","right","i","experimental","1150","966402","0.0-4.0-8.129","true","130","3.5500000000000003","","",""
"2341.5999999996275","4","confid","","","html-slider-response","1152","969249","0.0-4.0-10.129-0.129","","","","Rate your confidence","1",""
"181.8000000002794","e","choice","left","e","experimental","1159","971226","0.0-4.0-8.130","true","131","3.5500000000000003","","",""
"1996.2999999998137","6","confid","","","html-slider-response","1161","973757","0.0-4.0-10.130-0.130","","","","Rate your confidence","1",""
"122.20000000018626","e","choice","right","i","experimental","1168","975674","0.0-4.0-8.131","false","132","3.45","","",""
"2159.7999999998137","5","confid","","","html-slider-response","1170","978339","0.0-4.0-10.131-0.131","","","","Rate your confidence","1",""
"280.60000000009313","e","choice","right","i","experimental","1177","980439","0.0-4.0-8.132","false","133","3.5500000000000003","","",""
"2532","4","confid","","","html-slider-response","1179","983476","0.0-4.0-10.132-0.132","","","","Rate your confidence","1",""
"267.3000000002794","e","choice","left","e","experimental","1186","985571","0.0-4.0-8.133","true","134","3.6500000000000004","","",""
"1933.6999999997206","4","confid","","","html-slider-response","1188","988013","0.0-4.0-10.133-0.133","","","","Rate your confidence","1",""
"393.60000000009313","e","choice","left","e","experimental","1195","990199","0.0-4.0-8.134","true","135","3.6500000000000004","","",""
"1894","4","confid","","","html-slider-response","1197","992598","0.0-4.0-10.134-0.134","","","","Rate your confidence","1",""
"391.89999999990687","i","choice","right","i","experimental","1204","994784","0.0-4.0-8.135","true","136","3.5500000000000003","","",""
"2248.1999999997206","3","confid","","","html-slider-response","1206","997540","0.0-4.0-10.135-0.135","","","","Rate your confidence","1",""
"534.9000000003725","e","choice","right","i","experimental","1213","999865","0.0-4.0-8.136","false","137","3.5500000000000003","","",""
"3127.1999999997206","2","confid","","","html-slider-response","1215","1003500","0.0-4.0-10.136-0.136","","","","Rate your confidence","1",""
"350.29999999981374","i","choice","left","e","experimental","1222","1005663","0.0-4.0-8.137","false","138","3.6500000000000004","","",""
"2336.1999999997206","3","confid","","","html-slider-response","1224","1008505","0.0-4.0-10.137-0.137","","","","Rate your confidence","1",""
"762.8999999999069","i","choice","left","e","experimental","1231","1011087","0.0-4.0-8.138","false","139","3.7500000000000004","","",""
"2825.100000000093","3","confid","","","html-slider-response","1233","1014418","0.0-4.0-10.138-0.138","","","","Rate your confidence","1",""
"382.39999999990687","e","choice","right","i","experimental","1240","1016620","0.0-4.0-8.139","false","140","3.8500000000000005","","",""
"1854.7999999998137","4","confid","","","html-slider-response","1242","1018980","0.0-4.0-10.139-0.139","","","","Rate your confidence","1",""
"270","i","choice","left","e","experimental","1249","1021046","0.0-4.0-8.140","false","141","3.9500000000000006","","",""
"2546.5999999996275","2","confid","","","html-slider-response","1251","1024098","0.0-4.0-10.140-0.140","","","","Rate your confidence","1",""
"214.5","i","choice","right","i","experimental","1258","1026101","0.0-4.0-8.141","true","142","4.050000000000001","","",""
"2031.1000000000931","5","confid","","","html-slider-response","1260","1028638","0.0-4.0-10.141-0.141","","","","Rate your confidence","1",""
"241","i","choice","right","i","experimental","1267","1030702","0.0-4.0-8.142","true","143","4.050000000000001","","",""
"1664.2000000001863","6","confid","","","html-slider-response","1269","1032876","0.0-4.0-10.142-0.142","","","","Rate your confidence","1",""
"193.39999999990687","e","choice","left","e","experimental","1276","1034883","0.0-4.0-8.143","true","144","3.9500000000000006","","",""
"1770.6999999997206","6","confid","","","html-slider-response","1278","1037161","0.0-4.0-10.143-0.143","","","","Rate your confidence","1",""
"316.09999999962747","e","choice","left","e","experimental","1285","1039308","0.0-4.0-8.144","true","145","3.9500000000000006","","",""
"1858.3000000002794","4","confid","","","html-slider-response","1287","1041674","0.0-4.0-10.144-0.144","","","","Rate your confidence","1",""
"1029.7999999998137","e","choice","right","i","experimental","1294","1044501","0.0-4.0-8.145","false","146","3.8500000000000005","","",""
"1872.6000000000931","3","confid","","","html-slider-response","1296","1046880","0.0-4.0-10.145-0.145","","","","Rate your confidence","1",""
"117.20000000018626","e","choice","left","e","experimental","1303","1048798","0.0-4.0-8.146","true","147","3.9500000000000006","","",""
"2813.399999999907","5","confid","","","html-slider-response","1305","1052118","0.0-4.0-10.146-0.146","","","","Rate your confidence","1",""
"104.89999999990687","i","choice","right","i","experimental","1312","1054014","0.0-4.0-8.147","true","148","3.9500000000000006","","",""
"2814.2000000001863","6","confid","","","html-slider-response","1314","1057334","0.0-4.0-10.147-0.147","","","","Rate your confidence","1",""
"5.900000000372529","e","choice","left","e","experimental","1321","1059159","0.0-4.0-8.148","true","149","3.8500000000000005","","",""
"2263.899999999907","6","confid","","","html-slider-response","1323","1061930","0.0-4.0-10.148-0.148","","","","Rate your confidence","1",""
"283","e","choice","right","i","experimental","1330","1064006","0.0-4.0-8.149","false","150","3.8500000000000005","","",""
"1922.3999999999069","5","confid","","","html-slider-response","1332","1066434","0.0-4.0-10.149-0.149","","","","Rate your confidence","1",""
"44.799999999813735","e","choice","left","e","experimental","1339","1068265","0.0-4.0-8.150","true","151","3.9500000000000006","","",""
"3872.600000000093","6","confid","","","html-slider-response","1341","1072644","0.0-4.0-10.150-0.150","","","","Rate your confidence","1",""
"117.39999999990687","i","choice","right","i","experimental","1348","1074554","0.0-4.0-8.151","true","152","3.9500000000000006","","",""
"1883.3000000002794","6","confid","","","html-slider-response","1350","1076947","0.0-4.0-10.151-0.151","","","","Rate your confidence","1",""
"425.6000000005588","i","choice","right","i","experimental","1358","1428619","0.0-4.0-8.152","true","153","3.8500000000000005","","",""
"3292.600000000559","4","confid","","","html-slider-response","1360","1432418","0.0-4.0-10.152-0.152","","","","Rate your confidence","1",""
"169.5","e","choice","left","e","experimental","1367","1434385","0.0-4.0-8.153","true","154","3.8500000000000005","","",""
"2639.399999999441","5","confid","","","html-slider-response","1369","1437530","0.0-4.0-10.153-0.153","","","","Rate your confidence","1",""
"18.799999999813735","e","choice","left","e","experimental","1376","1439365","0.0-4.0-8.154","true","155","3.7500000000000004","","",""
"2135.800000000745","3","confid","","","html-slider-response","1378","1442006","0.0-4.0-10.154-0.154","","","","Rate your confidence","1",""
"141","i","choice","right","i","experimental","1385","1443943","0.0-4.0-8.155","true","156","3.7500000000000004","","",""
"3268.600000000559","4","confid","","","html-slider-response","1387","1447718","0.0-4.0-10.155-0.155","","","","Rate your confidence","1",""
"177.3999999994412","e","choice","left","e","experimental","1394","1449692","0.0-4.0-8.156","true","157","3.6500000000000004","","",""
"3908.5","3","confid","","","html-slider-response","1396","1454108","0.0-4.0-10.156-0.156","","","","Rate your confidence","1",""
"118.90000000037253","e","choice","right","i","experimental","1403","1456018","0.0-4.0-8.157","false","158","3.6500000000000004","","",""
"2080.7999999998137","3","confid","","","html-slider-response","1405","1458607","0.0-4.0-10.157-0.157","","","","Rate your confidence","1",""
"244.79999999981374","i","choice","left","e","experimental","1412","1460646","0.0-4.0-8.158","false","159","3.7500000000000004","","",""
"2644.2999999998137","2","confid","","","html-slider-response","1414","1463799","0.0-4.0-10.158-0.158","","","","Rate your confidence","1",""
"286.70000000018626","i","choice","right","i","experimental","1421","1465908","0.0-4.0-8.159","true","160","3.8500000000000005","","",""
"3669.9000000003725","6","confid","","","html-slider-response","1423","1470085","0.0-4.0-10.159-0.159","","","","Rate your confidence","1",""
"10","e","choice","left","e","experimental","1430","1471913","0.0-4.0-8.160","true","161","3.8500000000000005","","",""
"2418.4000000003725","3","confid","","","html-slider-response","1432","1474839","0.0-4.0-10.160-0.160","","","","Rate your confidence","1",""
"153.3999999994412","i","choice","right","i","experimental","1439","1476791","0.0-4.0-8.161","true","162","3.7500000000000004","","",""
"2043.5","5","confid","","","html-slider-response","1441","1479344","0.0-4.0-10.161-0.161","","","","Rate your confidence","1",""
"42.799999999813735","i","choice","right","i","experimental","1448","1481186","0.0-4.0-8.162","true","163","3.7500000000000004","","",""
"2700.0999999996275","5","confid","","","html-slider-response","1450","1484393","0.0-4.0-10.162-0.162","","","","Rate your confidence","1",""
"184.29999999981374","e","choice","left","e","experimental","1457","1486373","0.0-4.0-8.163","true","164","3.6500000000000004","","",""
"3933.5","6","confid","","","html-slider-response","1459","1490815","0.0-4.0-10.163-0.163","","","","Rate your confidence","1",""
"100.59999999962747","e","choice","right","i","experimental","1466","1492760","0.0-4.0-8.164","false","165","3.6500000000000004","","",""
"2761.399999999441","3","confid","","","html-slider-response","1468","1496028","0.0-4.0-10.164-0.164","","","","Rate your confidence","1",""
"378.29999999981374","e","choice","left","e","experimental","1475","1498200","0.0-4.0-8.165","true","166","3.7500000000000004","","",""
"5090.699999999255","4","confid","","","html-slider-response","1477","1503816","0.0-4.0-10.165-0.165","","","","Rate your confidence","1",""
"87.40000000037253","i","choice","right","i","experimental","1484","1505700","0.0-4.0-8.166","true","167","3.7500000000000004","","",""
"3022.899999999441","5","confid","","","html-slider-response","1486","1509231","0.0-4.0-10.166-0.166","","","","Rate your confidence","1",""
"135.5","i","choice","left","e","experimental","1493","1511196","0.0-4.0-8.167","false","168","3.6500000000000004","","",""
"4188.299999999814","3","confid","","","html-slider-response","1495","1515890","0.0-4.0-10.167-0.167","","","","Rate your confidence","1",""
"189.19999999925494","e","choice","left","e","experimental","1502","1517876","0.0-4.0-8.168","true","169","3.7500000000000004","","",""
"2000.7999999998137","6","confid","","","html-slider-response","1504","1520385","0.0-4.0-10.168-0.168","","","","Rate your confidence","1",""
"316.40000000037253","e","choice","right","i","experimental","1511","1522496","0.0-4.0-8.169","false","170","3.7500000000000004","","",""
"2538.5999999996275","4","confid","","","html-slider-response","1513","1525541","0.0-4.0-10.169-0.169","","","","Rate your confidence","1",""
"152.59999999962747","i","choice","right","i","experimental","1520","1527521","0.0-4.0-8.170","true","171","3.8500000000000005","","",""
"3184.7999999998137","6","confid","","","html-slider-response","1522","1531214","0.0-4.0-10.170-0.170","","","","Rate your confidence","1",""
"266.40000000037253","e","choice","left","e","experimental","1529","1533302","0.0-4.0-8.171","true","172","3.8500000000000005","","",""
"4114.9000000003725","4","confid","","","html-slider-response","1531","1537923","0.0-4.0-10.171-0.171","","","","Rate your confidence","1",""
"23.299999999813735","e","choice","left","e","experimental","1538","1539774","0.0-4.0-8.172","true","173","3.7500000000000004","","",""
"2250.0999999996275","6","confid","","","html-slider-response","1540","1542531","0.0-4.0-10.172-0.172","","","","Rate your confidence","1",""
"165.8999999994412","i","choice","right","i","experimental","1547","1544490","0.0-4.0-8.173","true","174","3.7500000000000004","","",""
"2263.2000000001863","5","confid","","","html-slider-response","1549","1547261","0.0-4.0-10.173-0.173","","","","Rate your confidence","1",""
"66.70000000018626","e","choice","left","e","experimental","1556","1549116","0.0-4.0-8.174","true","175","3.6500000000000004","","",""
"3156.800000000745","4","confid","","","html-slider-response","1558","1552781","0.0-4.0-10.174-0.174","","","","Rate your confidence","1",""
"532.4000000003725","i","choice","right","i","experimental","1565","1555137","0.0-4.0-8.175","true","176","3.6500000000000004","","",""
"2666","3","confid","","","html-slider-response","1567","1558311","0.0-4.0-10.175-0.175","","","","Rate your confidence","1",""
"141","i","choice","right","i","experimental","1574","1560245","0.0-4.0-8.176","true","177","3.5500000000000003","","",""
"3695.2999999998137","2","confid","","","html-slider-response","1576","1564447","0.0-4.0-10.176-0.176","","","","Rate your confidence","1",""
"360.90000000037253","e","choice","left","e","experimental","1583","1566600","0.0-4.0-8.177","true","178","3.5500000000000003","","",""
"2550.2999999998137","2","confid","","","html-slider-response","1585","1569658","0.0-4.0-10.177-0.177","","","","Rate your confidence","1",""
"386.09999999962747","e","choice","left","e","experimental","1592","1571837","0.0-4.0-8.178","true","179","3.45","","",""
"2323.100000000559","4","confid","","","html-slider-response","1594","1574668","0.0-4.0-10.178-0.178","","","","Rate your confidence","1",""
"75","i","choice","right","i","experimental","1601","1576541","0.0-4.0-8.179","true","180","3.45","","",""
"2871.100000000559","5","confid","","","html-slider-response","1603","1579919","0.0-4.0-10.179-0.179","","","","Rate your confidence","1",""
"50.59999999962747","e","choice","left","e","experimental","1610","1581783","0.0-4.0-8.180","true","181","3.35","","",""
"3250.2999999998137","6","confid","","","html-slider-response","1612","1585544","0.0-4.0-10.180-0.180","","","","Rate your confidence","1",""
"346.09999999962747","i","choice","right","i","experimental","1619","1587718","0.0-4.0-8.181","true","182","3.35","","",""
"1984","4","confid","","","html-slider-response","1621","1590209","0.0-4.0-10.181-0.181","","","","Rate your confidence","1",""
"18.799999999813735","i","choice","right","i","experimental","1628","1592025","0.0-4.0-8.182","true","183","3.25","","",""
"2581.9000000003725","6","confid","","","html-slider-response","1630","1595113","0.0-4.0-10.182-0.182","","","","Rate your confidence","1",""
"310.70000000018626","e","choice","left","e","experimental","1637","1597227","0.0-4.0-8.183","true","184","3.25","","",""
"1902.3999999994412","5","confid","","","html-slider-response","1639","1599636","0.0-4.0-10.183-0.183","","","","Rate your confidence","1",""
"88","i","choice","right","i","experimental","1646","1601520","0.0-4.0-8.184","true","185","3.15","","",""
"3277.7999999998137","6","confid","","","html-slider-response","1648","1605308","0.0-4.0-10.184-0.184","","","","Rate your confidence","1",""
"174.79999999981374","e","choice","left","e","experimental","1655","1607280","0.0-4.0-8.185","true","186","3.15","","",""
"2010.8999999994412","6","confid","","","html-slider-response","1657","1609797","0.0-4.0-10.185-0.185","","","","Rate your confidence","1",""
"551.8000000007451","i","choice","left","e","experimental","1664","1612180","0.0-4.0-8.186","false","187","3.05","","",""
"4448.600000000559","3","confid","","","html-slider-response","1666","1617135","0.0-4.0-10.186-0.186","","","","Rate your confidence","1",""
"297.79999999981374","i","choice","right","i","experimental","1673","1619253","0.0-4.0-8.187","true","188","3.15","","",""
"2189.100000000559","3","confid","","","html-slider-response","1675","1621952","0.0-4.0-10.187-0.187","","","","Rate your confidence","1",""
"1.400000000372529","i","choice","left","e","experimental","1682","1623752","0.0-4.0-8.188","false","189","3.15","","",""
"2405.5","5","confid","","","html-slider-response","1684","1626664","0.0-4.0-10.188-0.188","","","","Rate your confidence","1",""
"153.09999999962747","i","choice","right","i","experimental","1691","1628618","0.0-4.0-8.189","true","190","3.25","","",""
"2081","6","confid","","","html-slider-response","1693","1631208","0.0-4.0-10.189-0.189","","","","Rate your confidence","1",""
"15.700000000186265","e","choice","left","e","experimental","1700","1633050","0.0-4.0-8.190","true","191","3.25","","",""
"4440","4","confid","","","html-slider-response","1702","1637996","0.0-4.0-10.190-0.190","","","","Rate your confidence","1",""
"151.70000000018626","e","choice","right","i","experimental","1709","1639965","0.0-4.0-8.191","false","192","3.15","","",""
"2213.600000000559","2","confid","","","html-slider-response","1711","1642685","0.0-4.0-10.191-0.191","","","","Rate your confidence","1",""
"58.799999999813735","i","choice","right","i","experimental","1718","1644539","0.0-4.0-8.192","true","193","3.25","","",""
"2437","6","confid","","","html-slider-response","1720","1647482","0.0-4.0-10.192-0.192","","","","Rate your confidence","1",""
"32.40000000037253","e","choice","left","e","experimental","1727","1649309","0.0-4.0-8.193","true","194","3.25","","",""
"2975.0999999996275","6","confid","","","html-slider-response","1729","1652791","0.0-4.0-10.193-0.193","","","","Rate your confidence","1","48575"
