"rt","response","task","target_side","correct_response","trial_type","trial_index","time_elapsed","internal_node_id","correct","trial_number","n_dots","stimulus","slider_start","participant"
"361","e","choice","right","i","practice","10","94766","0.0-4.0-8.0","false","1","4.25","","",""
"3943","e","choice","left","e","practice","18","100984","0.0-4.0-8.1","true","2","4.65","","",""
"440","i","choice","right","i","practice","26","103700","0.0-4.0-8.2","true","3","4.65","","",""
"227","i","choice","left","e","practice","34","106206","0.0-4.0-8.3","false","4","4.25","","",""
"989","e","choice","left","e","practice","42","109473","0.0-4.0-8.4","true","5","4.65","","",""
"449","i","choice","right","i","practice","50","112200","0.0-4.0-8.5","true","6","4.65","","",""
"427","i","choice","right","i","practice","58","114905","0.0-4.0-8.6","true","7","4.45","","",""
"400.9999999999709","e","choice","left","e","practice","66","117584","0.0-4.0-8.7","true","8","4.45","","",""
"473","i","choice","left","e","practice","74","120333","0.0-4.0-8.8","false","9","4.25","","",""
"435","i","choice","right","i","practice","82","123044","0.0-4.0-8.9","true","10","4.45","","",""
"579","i","choice","right","i","practice","90","125900","0.0-4.0-8.10","true","11","4.45","","",""
"631.9999999999709","e","choice","left","e","practice","98","128809","0.0-4.0-8.11","true","12","4.3500000000000005","","",""
"247","e","choice","left","e","practice","106","131334","0.0-4.0-8.12","true","13","4.3500000000000005","","",""
"448","i","choice","right","i","practice","114","134059","0.0-4.0-8.13","true","14","4.250000000000001","","",""
"337","i","choice","right","i","practice","122","136672","0.0-4.0-8.14","true","15","4.250000000000001","","",""
"377.0000000000291","e","choice","left","e","practice","130","139327","0.0-4.0-8.15","true","16","4.150000000000001","","",""
"343","i","choice","right","i","practice","138","141947","0.0-4.0-8.16","true","17","4.150000000000001","","",""
"350","e","choice","left","e","practice","146","144573","0.0-4.0-8.17","true","18","4.050000000000002","","",""
"26","i","choice","right","i","practice","154","146874","0.0-4.0-8.18","true","19","4.050000000000002","","",""
"460","e","choice","left","e","practice","162","149617","0.0-4.0-8.19","true","20","3.9500000000000015","","",""
"44","i","choice","right","i","practice","170","151936","0.0-4.0-8.20","true","21","3.9500000000000015","","",""
"397.0000000000291","e","choice","left","e","practice","178","154607","0.0-4.0-8.21","true","22","3.8500000000000014","","",""
"574","e","choice","left","e","practice","186","157458","0.0-4.0-8.22","true","23","3.8500000000000014","","",""
"396.9999999999709","i","choice","right","i","practice","194","160135","0.0-4.0-8.23","true","24","3.7500000000000013","","",""
"501.9999999999709","e","choice","left","e","practice","202","162911","0.0-4.0-8.24","true","25","3.7500000000000013","","",""
"620","e","choice","right","i","practice","210","165807","0.0-4.0-8.25","false","26","3.6500000000000012","","",""
"512","i","choice","right","i","experimental","221","219325","0.0-4.0-8.26","true","27","3.7500000000000013","","",""
"4020","5","confid","","","html-slider-response","223","223848","0.0-4.0-10.26-0.26","","","","Rate your confidence","1",""
"419","e","choice","left","e","experimental","230","226042","0.0-4.0-8.27","true","28","3.7500000000000013","","",""
"2582.000000000058","5","confid","","","html-slider-response","232","229128","0.0-4.0-10.27-0.27","","","","Rate your confidence","1",""
"406","e","choice","left","e","experimental","239","231304","0.0-4.0-8.28","true","29","3.6500000000000012","","",""
"3353","5","confid","","","html-slider-response","241","235163","0.0-4.0-10.28-0.28","","","","Rate your confidence","1",""
"317","i","choice","right","i","experimental","248","237252","0.0-4.0-8.29","true","30","3.6500000000000012","","",""
"5181","6","confid","","","html-slider-response","250","242938","0.0-4.0-10.29-0.29","","","","Rate your confidence","1",""
"384","e","choice","left","e","experimental","257","245091","0.0-4.0-8.30","true","31","3.550000000000001","","",""
"2869","5","confid","","","html-slider-response","259","248463","0.0-4.0-10.30-0.30","","","","Rate your confidence","1",""
"303","i","choice","right","i","experimental","266","250543","0.0-4.0-8.31","true","32","3.550000000000001","","",""
"16557.00000000006","6","confid","","","html-slider-response","268","267604","0.0-4.0-10.31-0.31","","","","Rate your confidence","1",""
"566","e","choice","right","i","experimental","275","269943","0.0-4.0-8.32","false","33","3.450000000000001","","",""
"3242","5","confid","","","html-slider-response","277","273688","0.0-4.0-10.32-0.32","","","","Rate your confidence","1",""
"309","e","choice","left","e","experimental","284","275772","0.0-4.0-8.33","true","34","3.550000000000001","","",""
"2144.999999999942","6","confid","","","html-slider-response","286","278422","0.0-4.0-10.33-0.33","","","","Rate your confidence","1",""
"288","i","choice","right","i","experimental","293","280482","0.0-4.0-8.34","true","35","3.550000000000001","","",""
"2428.000000000058","6","confid","","","html-slider-response","295","283414","0.0-4.0-10.34-0.34","","","","Rate your confidence","1",""
"417.0000000000582","e","choice","left","e","experimental","302","285605","0.0-4.0-8.35","true","36","3.450000000000001","","",""
"2432","5","confid","","","html-slider-response","304","288541","0.0-4.0-10.35-0.35","","","","Rate your confidence","1",""
"342.0000000000582","i","choice","right","i","experimental","311","290657","0.0-4.0-8.36","true","37","3.450000000000001","","",""
"2378","5","confid","","","html-slider-response","313","293540","0.0-4.0-10.36-0.36","","","","Rate your confidence","1",""
"447","e","choice","left","e","experimental","320","295762","0.0-4.0-8.37","true","38","3.350000000000001","","",""
"1861.0000000000582","5","confid","","","html-slider-response","322","298129","0.0-4.0-10.37-0.37","","","","Rate your confidence","1",""
"316","i","choice","right","i","experimental","329","300215","0.0-4.0-8.38","true","39","3.350000000000001","","",""
"2013","6","confid","","","html-slider-response","331","302732","0.0-4.0-10.38-0.38","","","","Rate your confidence","1",""
"689","e","choice","left","e","experimental","338","305196","0.0-4.0-8.39","true","40","3.250000000000001","","",""
"2828.000000000058","4","confid","","","html-slider-response","340","308527","0.0-4.0-10.39-0.39","","","","Rate your confidence","1",""
"470","e","choice","left","e","experimental","347","310770","0.0-4.0-8.40","true","41","3.250000000000001","","",""
"4117","5","confid","","","html-slider-response","349","315393","0.0-4.0-10.40-0.40","","","","Rate your confidence","1",""
"1604.9999999999418","i","choice","right","i","experimental","356","318775","0.0-4.0-8.41","true","42","3.150000000000001","","",""
"2730.999999999942","5","confid","","","html-slider-response","358","322013","0.0-4.0-10.41-0.41","","","","Rate your confidence","1",""
"1608","e","choice","left","e","experimental","365","325396","0.0-4.0-8.42","true","43","3.150000000000001","","",""
"2093","5","confid","","","html-slider-response","367","327992","0.0-4.0-10.42-0.42","","","","Rate your confidence","1",""
"425","i","choice","right","i","experimental","374","330194","0.0-4.0-8.43","true","44","3.0500000000000007","","",""
"3014.000000000058","5","confid","","","html-slider-response","376","333712","0.0-4.0-10.43-0.43","","","","Rate your confidence","1",""
"340","i","choice","right","i","experimental","383","335827","0.0-4.0-8.44","true","45","3.0500000000000007","","",""
"2921.999999999942","6","confid","","","html-slider-response","385","339253","0.0-4.0-10.44-0.44","","","","Rate your confidence","1",""
"683.9999999999418","e","choice","left","e","experimental","392","341711","0.0-4.0-8.45","true","46","2.9500000000000006","","",""
"2354","4","confid","","","html-slider-response","394","344571","0.0-4.0-10.45-0.45","","","","Rate your confidence","1",""
"414","e","choice","left","e","experimental","401","346759","0.0-4.0-8.46","true","47","2.9500000000000006","","",""
"2570","4","confid","","","html-slider-response","403","349833","0.0-4.0-10.46-0.46","","","","Rate your confidence","1",""
"515","e","choice","right","i","experimental","410","352121","0.0-4.0-8.47","false","48","2.8500000000000005","","",""
"2249","3","confid","","","html-slider-response","412","354875","0.0-4.0-10.47-0.47","","","","Rate your confidence","1",""
"693","i","choice","right","i","experimental","419","357340","0.0-4.0-8.48","true","49","2.9500000000000006","","",""
"2207","4","confid","","","html-slider-response","421","360053","0.0-4.0-10.48-0.48","","","","Rate your confidence","1",""
"506","e","choice","left","e","experimental","428","362334","0.0-4.0-8.49","true","50","2.9500000000000006","","",""
"2024","4","confid","","","html-slider-response","430","364863","0.0-4.0-10.49-0.49","","","","Rate your confidence","1",""
"466","i","choice","right","i","experimental","437","367104","0.0-4.0-8.50","true","51","2.8500000000000005","","",""
"3524","4","confid","","","html-slider-response","439","371133","0.0-4.0-10.50-0.50","","","","Rate your confidence","1",""
"765.9999999999418","e","choice","left","e","experimental","446","373673","0.0-4.0-8.51","true","52","2.8500000000000005","","",""
"2497","4","confid","","","html-slider-response","448","376675","0.0-4.0-10.51-0.51","","","","Rate your confidence","1",""
"520","i","choice","left","e","experimental","455","378970","0.0-4.0-8.52","false","53","2.7500000000000004","","",""
"2233","4","confid","","","html-slider-response","457","381706","0.0-4.0-10.52-0.52","","","","Rate your confidence","1",""
"796","e","choice","right","i","experimental","464","384279","0.0-4.0-8.53","false","54","2.8500000000000005","","",""
"2324.999999999942","4","confid","","","html-slider-response","466","387108","0.0-4.0-10.53-0.53","","","","Rate your confidence","1",""
"524","e","choice","left","e","experimental","473","389406","0.0-4.0-8.54","true","55","2.9500000000000006","","",""
"2167","4","confid","","","html-slider-response","475","392078","0.0-4.0-10.54-0.54","","","","Rate your confidence","1",""
"356","e","choice","right","i","experimental","482","394207","0.0-4.0-8.55","false","56","2.9500000000000006","","",""
"4175.999999999942","5","confid","","","html-slider-response","484","398889","0.0-4.0-10.55-0.55","","","","Rate your confidence","1",""
"2.0000000000582077","i","choice","right","i","experimental","491","400664","0.0-4.0-8.56","true","57","3.0500000000000007","","",""
"2433.000000000058","5","confid","","","html-slider-response","493","403604","0.0-4.0-10.56-0.56","","","","Rate your confidence","1",""
"2061","i","choice","left","e","experimental","500","407437","0.0-4.0-8.57","false","58","3.0500000000000007","","",""
"2914","4","confid","","","html-slider-response","502","410856","0.0-4.0-10.57-0.57","","","","Rate your confidence","1",""
"305.9999999999418","i","choice","right","i","experimental","509","412935","0.0-4.0-8.58","true","59","3.150000000000001","","",""
"2751.000000000058","5","confid","","","html-slider-response","511","416188","0.0-4.0-10.58-0.58","","","","Rate your confidence","1",""
"794","i","choice","left","e","experimental","518","418755","0.0-4.0-8.59","false","60","3.150000000000001","","",""
"2029","4","confid","","","html-slider-response","520","421287","0.0-4.0-10.59-0.59","","","","Rate your confidence","1",""
"199","e","choice","left","e","experimental","527","423260","0.0-4.0-8.60","true","61","3.250000000000001","","",""
"2751.999999999942","5","confid","","","html-slider-response","529","426518","0.0-4.0-10.60-0.60","","","","Rate your confidence","1",""
"527.9999999999418","i","choice","right","i","experimental","536","428822","0.0-4.0-8.61","true","62","3.250000000000001","","",""
"1875.9999999999418","6","confid","","","html-slider-response","538","431201","0.0-4.0-10.61-0.61","","","","Rate your confidence","1",""
"760","e","choice","left","e","experimental","545","433736","0.0-4.0-8.62","true","63","3.150000000000001","","",""
"3584","5","confid","","","html-slider-response","547","437824","0.0-4.0-10.62-0.62","","","","Rate your confidence","1",""
"823.0000000000582","i","choice","right","i","experimental","554","440421","0.0-4.0-8.63","true","64","3.150000000000001","","",""
"2660","4","confid","","","html-slider-response","556","443586","0.0-4.0-10.63-0.63","","","","Rate your confidence","1",""
"388.9999999999418","e","choice","right","i","experimental","563","445752","0.0-4.0-8.64","false","65","3.0500000000000007","","",""
"3671.999999999942","4","confid","","","html-slider-response","565","449927","0.0-4.0-10.64-0.64","","","","Rate your confidence","1",""
"1683.9999999999418","e","choice","left","e","experimental","572","453389","0.0-4.0-8.65","true","66","3.150000000000001","","",""
"2150","3","confid","","","html-slider-response","574","456042","0.0-4.0-10.65-0.65","","","","Rate your confidence","1",""
"290.0000000000582","i","choice","right","i","experimental","581","458106","0.0-4.0-8.66","true","67","3.150000000000001","","",""
"2109","5","confid","","","html-slider-response","583","460718","0.0-4.0-10.66-0.66","","","","Rate your confidence","1",""
"310","e","choice","left","e","experimental","590","462803","0.0-4.0-8.67","true","68","3.0500000000000007","","",""
"1621.9999999998836","5","confid","","","html-slider-response","592","464930","0.0-4.0-10.67-0.67","","","","Rate your confidence","1",""
"122","i","choice","left","e","experimental","600","564994","0.0-4.0-8.68","false","69","3.0500000000000007","","",""
"3142","4","confid","","","html-slider-response","602","568641","0.0-4.0-10.68-0.68","","","","Rate your confidence","1",""
"956","i","choice","right","i","experimental","609","571375","0.0-4.0-8.69","true","70","3.150000000000001","","",""
"2310","5","confid","","","html-slider-response","611","574190","0.0-4.0-10.69-0.69","","","","Rate your confidence","1",""
"367.0000000001164","i","choice","right","i","experimental","618","576328","0.0-4.0-8.70","true","71","3.150000000000001","","",""
"2029","5","confid","","","html-slider-response","620","578862","0.0-4.0-10.70-0.70","","","","Rate your confidence","1",""
"341","e","choice","left","e","experimental","627","580977","0.0-4.0-8.71","true","72","3.0500000000000007","","",""
"1717.9999999998836","5","confid","","","html-slider-response","629","583199","0.0-4.0-10.71-0.71","","","","Rate your confidence","1",""
"455.9999999998836","i","choice","right","i","experimental","636","585433","0.0-4.0-8.72","true","73","3.0500000000000007","","",""
"1586","4","confid","","","html-slider-response","638","587522","0.0-4.0-10.72-0.72","","","","Rate your confidence","1",""
"653","i","choice","left","e","experimental","645","589949","0.0-4.0-8.73","false","74","2.9500000000000006","","",""
"2485.0000000001164","2","confid","","","html-slider-response","647","592939","0.0-4.0-10.73-0.73","","","","Rate your confidence","1",""
"340","e","choice","left","e","experimental","654","595049","0.0-4.0-8.74","true","75","3.0500000000000007","","",""
"1900.9999999998836","4","confid","","","html-slider-response","656","597454","0.0-4.0-10.74-0.74","","","","Rate your confidence","1",""
"384","i","choice","right","i","experimental","663","599613","0.0-4.0-8.75","true","76","3.0500000000000007","","",""
"2181","4","confid","","","html-slider-response","665","602298","0.0-4.0-10.75-0.75","","","","Rate your confidence","1",""
"454","i","choice","right","i","experimental","672","604526","0.0-4.0-8.76","true","77","2.9500000000000006","","",""
"1626.9999999998836","4","confid","","","html-slider-response","674","606656","0.0-4.0-10.76-0.76","","","","Rate your confidence","1",""
"279","e","choice","left","e","experimental","681","608710","0.0-4.0-8.77","true","78","2.9500000000000006","","",""
"1817","5","confid","","","html-slider-response","683","611031","0.0-4.0-10.77-0.77","","","","Rate your confidence","1",""
"449","i","choice","left","e","experimental","690","613253","0.0-4.0-8.78","false","79","2.8500000000000005","","",""
"2029","4","confid","","","html-slider-response","692","615788","0.0-4.0-10.78-0.78","","","","Rate your confidence","1",""
"307","e","choice","right","i","experimental","699","617866","0.0-4.0-8.79","false","80","2.9500000000000006","","",""
"1994","5","confid","","","html-slider-response","701","620364","0.0-4.0-10.79-0.79","","","","Rate your confidence","1",""
"673","i","choice","right","i","experimental","708","622811","0.0-4.0-8.80","true","81","3.0500000000000007","","",""
"1281","4","confid","","","html-slider-response","710","624596","0.0-4.0-10.80-0.80","","","","Rate your confidence","1",""
"323","e","choice","left","e","experimental","717","626694","0.0-4.0-8.81","true","82","3.0500000000000007","","",""
"2037","5","confid","","","html-slider-response","719","629235","0.0-4.0-10.81-0.81","","","","Rate your confidence","1",""
"270","e","choice","right","i","experimental","726","631277","0.0-4.0-8.82","false","83","2.9500000000000006","","",""
"1453","5","confid","","","html-slider-response","728","633234","0.0-4.0-10.82-0.82","","","","Rate your confidence","1",""
"309","e","choice","left","e","experimental","735","635317","0.0-4.0-8.83","true","84","3.0500000000000007","","",""
"1520","5","confid","","","html-slider-response","737","637344","0.0-4.0-10.83-0.83","","","","Rate your confidence","1",""
"1473","e","choice","right","i","experimental","744","640594","0.0-4.0-8.84","false","85","3.0500000000000007","","",""
"2865","4","confid","","","html-slider-response","746","643964","0.0-4.0-10.84-0.84","","","","Rate your confidence","1",""
"549","e","choice","left","e","experimental","753","646289","0.0-4.0-8.85","true","86","3.150000000000001","","",""
"1874","5","confid","","","html-slider-response","755","648669","0.0-4.0-10.85-0.85","","","","Rate your confidence","1",""
"373","e","choice","left","e","experimental","762","650815","0.0-4.0-8.86","true","87","3.150000000000001","","",""
"3127","5","confid","","","html-slider-response","764","654447","0.0-4.0-10.86-0.86","","","","Rate your confidence","1",""
"379","i","choice","right","i","experimental","771","656601","0.0-4.0-8.87","true","88","3.0500000000000007","","",""
"4560","5","confid","","","html-slider-response","773","661665","0.0-4.0-10.87-0.87","","","","Rate your confidence","1",""
"335.0000000001164","e","choice","left","e","experimental","780","663775","0.0-4.0-8.88","true","89","3.0500000000000007","","",""
"1542.9999999998836","4","confid","","","html-slider-response","782","665823","0.0-4.0-10.88-0.88","","","","Rate your confidence","1",""
"411","i","choice","right","i","experimental","789","668007","0.0-4.0-8.89","true","90","2.9500000000000006","","",""
"1857.9999999998836","5","confid","","","html-slider-response","791","670369","0.0-4.0-10.89-0.89","","","","Rate your confidence","1",""
"551","e","choice","left","e","experimental","798","672695","0.0-4.0-8.90","true","91","2.9500000000000006","","",""
"1645","5","confid","","","html-slider-response","800","674847","0.0-4.0-10.90-0.90","","","","Rate your confidence","1",""
"352","i","choice","right","i","experimental","807","676974","0.0-4.0-8.91","true","92","2.8500000000000005","","",""
"1834","5","confid","","","html-slider-response","809","679312","0.0-4.0-10.91-0.91","","","","Rate your confidence","1",""
"489.9999999998836","i","choice","left","e","experimental","816","681573","0.0-4.0-8.92","false","93","2.8500000000000005","","",""
"1837","5","confid","","","html-slider-response","818","683913","0.0-4.0-10.92-0.92","","","","Rate your confidence","1",""
"241","i","choice","right","i","experimental","825","685927","0.0-4.0-8.93","true","94","2.9500000000000006","","",""
"1565.9999999998836","5","confid","","","html-slider-response","827","688000","0.0-4.0-10.93-0.93","","","","Rate your confidence","1",""
"496","i","choice","left","e","experimental","834","690269","0.0-4.0-8.94","false","95","2.9500000000000006","","",""
"1472","5","confid","","","html-slider-response","836","692245","0.0-4.0-10.94-0.94","","","","Rate your confidence","1",""
"311","i","choice","right","i","experimental","843","694329","0.0-4.0-8.95","true","96","3.0500000000000007","","",""
"2442","5","confid","","","html-slider-response","845","697274","0.0-4.0-10.95-0.95","","","","Rate your confidence","1",""
"406","e","choice","left","e","experimental","852","699455","0.0-4.0-8.96","true","97","3.0500000000000007","","",""
"2928","4","confid","","","html-slider-response","854","702888","0.0-4.0-10.96-0.96","","","","Rate your confidence","1",""
"309","i","choice","right","i","experimental","861","704972","0.0-4.0-8.97","true","98","2.9500000000000006","","",""
"2313","5","confid","","","html-slider-response","863","707789","0.0-4.0-10.97-0.97","","","","Rate your confidence","1",""
"336","i","choice","right","i","experimental","870","709900","0.0-4.0-8.98","true","99","2.9500000000000006","","",""
"1786","5","confid","","","html-slider-response","872","712192","0.0-4.0-10.98-0.98","","","","Rate your confidence","1",""
"282","e","choice","left","e","experimental","879","714246","0.0-4.0-8.99","true","100","2.8500000000000005","","",""
"3407","5","confid","","","html-slider-response","881","718157","0.0-4.0-10.99-0.99","","","","Rate your confidence","1",""
"296","e","choice","right","i","experimental","888","720228","0.0-4.0-8.100","false","101","2.8500000000000005","","",""
"1804","5","confid","","","html-slider-response","890","722540","0.0-4.0-10.100-0.100","","","","Rate your confidence","1",""
"323","e","choice","left","e","experimental","897","724638","0.0-4.0-8.101","true","102","2.9500000000000006","","",""
"1826","5","confid","","","html-slider-response","899","726972","0.0-4.0-10.101-0.101","","","","Rate your confidence","1",""
"306.0000000001164","e","choice","left","e","experimental","906","729055","0.0-4.0-8.102","true","103","2.9500000000000006","","",""
"2124.0000000001164","5","confid","","","html-slider-response","908","731684","0.0-4.0-10.102-0.102","","","","Rate your confidence","1",""
"501.0000000001164","i","choice","right","i","experimental","915","733958","0.0-4.0-8.103","true","104","2.8500000000000005","","",""
"2952","5","confid","","","html-slider-response","917","737416","0.0-4.0-10.103-0.103","","","","Rate your confidence","1",""
"368.9999999998836","e","choice","left","e","experimental","924","739558","0.0-4.0-8.104","true","105","2.8500000000000005","","",""
"1743","4","confid","","","html-slider-response","926","741806","0.0-4.0-10.104-0.104","","","","Rate your confidence","1",""
"669.9999999998836","i","choice","right","i","experimental","933","744248","0.0-4.0-8.105","true","106","2.7500000000000004","","",""
"2016","5","confid","","","html-slider-response","935","746769","0.0-4.0-10.105-0.105","","","","Rate your confidence","1",""
"566","i","choice","right","i","experimental","942","749109","0.0-4.0-8.106","true","107","2.7500000000000004","","",""
"1894","5","confid","","","html-slider-response","944","751506","0.0-4.0-10.106-0.106","","","","Rate your confidence","1",""
"329","i","choice","left","e","experimental","951","753608","0.0-4.0-8.107","false","108","2.6500000000000004","","",""
"2790.0000000001164","5","confid","","","html-slider-response","953","756905","0.0-4.0-10.107-0.107","","","","Rate your confidence","1",""
"247.00000000011642","e","choice","left","e","experimental","960","758929","0.0-4.0-8.108","true","109","2.7500000000000004","","",""
"3443","4","confid","","","html-slider-response","962","762880","0.0-4.0-10.108-0.108","","","","Rate your confidence","1",""
"315","e","choice","right","i","experimental","969","764968","0.0-4.0-8.109","false","110","2.7500000000000004","","",""
"1843","4","confid","","","html-slider-response","971","767319","0.0-4.0-10.109-0.109","","","","Rate your confidence","1",""
"68","i","choice","right","i","experimental","979","873073","0.0-4.0-8.110","true","111","2.8500000000000005","","",""
"3350","5","confid","","","html-slider-response","981","876930","0.0-4.0-10.110-0.110","","","","Rate your confidence","1",""
"370","e","choice","left","e","experimental","988","879076","0.0-4.0-8.111","true","112","2.8500000000000005","","",""
"1879","4","confid","","","html-slider-response","990","881458","0.0-4.0-10.111-0.111","","","","Rate your confidence","1",""
"322","i","choice","right","i","experimental","997","883555","0.0-4.0-8.112","true","113","2.7500000000000004","","",""
"2532","5","confid","","","html-slider-response","999","886591","0.0-4.0-10.112-0.112","","","","Rate your confidence","1",""
"320.9999999998836","e","choice","left","e","experimental","1006","888687","0.0-4.0-8.113","true","114","2.7500000000000004","","",""
"2167","5","confid","","","html-slider-response","1008","891362","0.0-4.0-10.113-0.113","","","","Rate your confidence","1",""
"390.9999999998836","i","choice","right","i","experimental","1015","893531","0.0-4.0-8.114","true","115","2.6500000000000004","","",""
"1779.9999999998836","5","confid","","","html-slider-response","1017","895814","0.0-4.0-10.114-0.114","","","","Rate your confidence","1",""
"253","e","choice","left","e","experimental","1024","897841","0.0-4.0-8.115","true","116","2.6500000000000004","","",""
"1777","5","confid","","","html-slider-response","1026","900122","0.0-4.0-10.115-0.115","","","","Rate your confidence","1",""
"436","e","choice","right","i","experimental","1033","902333","0.0-4.0-8.116","false","117","2.5500000000000003","","",""
"2442","4","confid","","","html-slider-response","1035","905282","0.0-4.0-10.116-0.116","","","","Rate your confidence","1",""
"340","e","choice","left","e","experimental","1042","907394","0.0-4.0-8.117","true","118","2.6500000000000004","","",""
"1788","5","confid","","","html-slider-response","1044","909689","0.0-4.0-10.117-0.117","","","","Rate your confidence","1",""
"334","e","choice","left","e","experimental","1051","911796","0.0-4.0-8.118","true","119","2.6500000000000004","","",""
"2104","5","confid","","","html-slider-response","1053","914403","0.0-4.0-10.118-0.118","","","","Rate your confidence","1",""
"456","i","choice","right","i","experimental","1060","916634","0.0-4.0-8.119","true","120","2.5500000000000003","","",""
"1709","5","confid","","","html-slider-response","1062","918848","0.0-4.0-10.119-0.119","","","","Rate your confidence","1",""
"354","e","choice","right","i","experimental","1069","920978","0.0-4.0-8.120","false","121","2.5500000000000003","","",""
"1793","5","confid","","","html-slider-response","1071","923276","0.0-4.0-10.120-0.120","","","","Rate your confidence","1",""
"541","e","choice","left","e","experimental","1078","925590","0.0-4.0-8.121","true","122","2.6500000000000004","","",""
"1534","4","confid","","","html-slider-response","1080","927627","0.0-4.0-10.121-0.121","","","","Rate your confidence","1",""
"295","e","choice","right","i","experimental","1087","929696","0.0-4.0-8.122","false","123","2.6500000000000004","","",""
"1287","5","confid","","","html-slider-response","1089","931488","0.0-4.0-10.122-0.122","","","","Rate your confidence","1",""
"385","i","choice","left","e","experimental","1096","933647","0.0-4.0-8.123","false","124","2.7500000000000004","","",""
"2275","3","confid","","","html-slider-response","1098","936426","0.0-4.0-10.123-0.123","","","","Rate your confidence","1",""
"334","e","choice","left","e","experimental","1105","938535","0.0-4.0-8.124","true","125","2.8500000000000005","","",""
"1751.9999999998836","5","confid","","","html-slider-response","1107","940792","0.0-4.0-10.124-0.124","","","","Rate your confidence","1",""
"344","i","choice","right","i","experimental","1114","942911","0.0-4.0-8.125","true","126","2.8500000000000005","","",""
"1383.9999999998836","5","confid","","","html-slider-response","1116","944798","0.0-4.0-10.125-0.125","","","","Rate your confidence","1",""
"372","e","choice","left","e","experimental","1123","946944","0.0-4.0-8.126","true","127","2.7500000000000004","","",""
"2641","4","confid","","","html-slider-response","1125","950091","0.0-4.0-10.126-0.126","","","","Rate your confidence","1",""
"390.0000000001164","i","choice","right","i","experimental","1132","952255","0.0-4.0-8.127","true","128","2.7500000000000004","","",""
"1868","5","confid","","","html-slider-response","1134","954627","0.0-4.0-10.127-0.127","","","","Rate your confidence","1",""
"436","i","choice","right","i","experimental","1141","956834","0.0-4.0-8.128","true","129","2.6500000000000004","","",""
"1664","5","confid","","","html-slider-response","1143","959002","0.0-4.0-10.128-0.128","","","","Rate your confidence","1",""
"15.000000000116415","e","choice","left","e","experimental","1150","960789","0.0-4.0-8.129","true","130","2.6500000000000004","","",""
"1934","5","confid","","","html-slider-response","1152","963230","0.0-4.0-10.129-0.129","","","","Rate your confidence","1",""
"404","e","choice","right","i","experimental","1159","965407","0.0-4.0-8.130","false","131","2.5500000000000003","","",""
"1382.9999999997672","4","confid","","","html-slider-response","1161","967295","0.0-4.0-10.130-0.130","","","","Rate your confidence","1",""
"281","e","choice","left","e","experimental","1168","969351","0.0-4.0-8.131","true","132","2.6500000000000004","","",""
"4444.999999999884","4","confid","","","html-slider-response","1170","974301","0.0-4.0-10.131-0.131","","","","Rate your confidence","1",""
"310","e","choice","right","i","experimental","1177","976385","0.0-4.0-8.132","false","133","2.6500000000000004","","",""
"2137.0000000001164","4","confid","","","html-slider-response","1179","979027","0.0-4.0-10.132-0.132","","","","Rate your confidence","1",""
"337.9999999998836","e","choice","left","e","experimental","1186","981136","0.0-4.0-8.133","true","134","2.7500000000000004","","",""
"2834","3","confid","","","html-slider-response","1188","984475","0.0-4.0-10.133-0.133","","","","Rate your confidence","1",""
"445.99999999976717","i","choice","right","i","experimental","1195","986694","0.0-4.0-8.134","true","135","2.7500000000000004","","",""
"1609","4","confid","","","html-slider-response","1197","988807","0.0-4.0-10.134-0.134","","","","Rate your confidence","1",""
"301.00000000023283","e","choice","left","e","experimental","1204","990883","0.0-4.0-8.135","true","136","2.6500000000000004","","",""
"2209","3","confid","","","html-slider-response","1206","993597","0.0-4.0-10.135-0.135","","","","Rate your confidence","1",""
"439","e","choice","right","i","experimental","1213","995811","0.0-4.0-8.136","false","137","2.6500000000000004","","",""
"2100.999999999767","4","confid","","","html-slider-response","1215","998416","0.0-4.0-10.136-0.136","","","","Rate your confidence","1",""
"222","e","choice","left","e","experimental","1222","1000411","0.0-4.0-8.137","true","138","2.7500000000000004","","",""
"1435","4","confid","","","html-slider-response","1224","1002352","0.0-4.0-10.137-0.137","","","","Rate your confidence","1",""
"267","e","choice","right","i","experimental","1231","1004393","0.0-4.0-8.138","false","139","2.7500000000000004","","",""
"2439","4","confid","","","html-slider-response","1233","1007338","0.0-4.0-10.138-0.138","","","","Rate your confidence","1",""
"410","i","choice","left","e","experimental","1240","1009523","0.0-4.0-8.139","false","140","2.8500000000000005","","",""
"1860.9999999997672","3","confid","","","html-slider-response","1242","1011888","0.0-4.0-10.139-0.139","","","","Rate your confidence","1",""
"36","e","choice","left","e","experimental","1249","1013699","0.0-4.0-8.140","true","141","2.9500000000000006","","",""
"2004","5","confid","","","html-slider-response","1251","1016209","0.0-4.0-10.140-0.140","","","","Rate your confidence","1",""
"286","i","choice","right","i","experimental","1258","1018271","0.0-4.0-8.141","true","142","2.9500000000000006","","",""
"1658","6","confid","","","html-slider-response","1260","1020433","0.0-4.0-10.141-0.141","","","","Rate your confidence","1",""
"318","e","choice","left","e","experimental","1267","1022527","0.0-4.0-8.142","true","143","2.8500000000000005","","",""
"1510","5","confid","","","html-slider-response","1269","1024541","0.0-4.0-10.142-0.142","","","","Rate your confidence","1",""
"329.00000000023283","i","choice","right","i","experimental","1276","1026643","0.0-4.0-8.143","true","144","2.8500000000000005","","",""
"1469","5","confid","","","html-slider-response","1278","1028618","0.0-4.0-10.143-0.143","","","","Rate your confidence","1",""
"303","e","choice","right","i","experimental","1285","1030697","0.0-4.0-8.144","false","145","2.7500000000000004","","",""
"2248.999999999767","4","confid","","","html-slider-response","1287","1033450","0.0-4.0-10.144-0.144","","","","Rate your confidence","1",""
"473","e","choice","left","e","experimental","1294","1035698","0.0-4.0-8.145","true","146","2.8500000000000005","","",""
"2422","4","confid","","","html-slider-response","1296","1038625","0.0-4.0-10.145-0.145","","","","Rate your confidence","1",""
"376","i","choice","right","i","experimental","1303","1040776","0.0-4.0-8.146","true","147","2.8500000000000005","","",""
"2217","5","confid","","","html-slider-response","1305","1043497","0.0-4.0-10.146-0.146","","","","Rate your confidence","1",""
"48","e","choice","left","e","experimental","1312","1045324","0.0-4.0-8.147","true","148","2.7500000000000004","","",""
"2295","5","confid","","","html-slider-response","1314","1048126","0.0-4.0-10.147-0.147","","","","Rate your confidence","1",""
"333.99999999976717","e","choice","left","e","experimental","1321","1050238","0.0-4.0-8.148","true","149","2.7500000000000004","","",""
"2703","5","confid","","","html-slider-response","1323","1053445","0.0-4.0-10.148-0.148","","","","Rate your confidence","1",""
"387","i","choice","right","i","experimental","1330","1055607","0.0-4.0-8.149","true","150","2.6500000000000004","","",""
"1442","4","confid","","","html-slider-response","1332","1057554","0.0-4.0-10.149-0.149","","","","Rate your confidence","1",""
"316","i","choice","right","i","experimental","1339","1059646","0.0-4.0-8.150","true","151","2.6500000000000004","","",""
"1649","5","confid","","","html-slider-response","1341","1061801","0.0-4.0-10.150-0.150","","","","Rate your confidence","1",""
"309","e","choice","left","e","experimental","1348","1063887","0.0-4.0-8.151","true","152","2.5500000000000003","","",""
"2233","5","confid","","","html-slider-response","1350","1066625","0.0-4.0-10.151-0.151","","","","Rate your confidence","1",""
"719","i","choice","right","i","experimental","1358","1240131","0.0-4.0-8.152","true","153","2.5500000000000003","","",""
"2305","5","confid","","","html-slider-response","1360","1242940","0.0-4.0-10.152-0.152","","","","Rate your confidence","1",""
"352","i","choice","left","e","experimental","1367","1245070","0.0-4.0-8.153","false","154","2.45","","",""
"1756","5","confid","","","html-slider-response","1369","1247331","0.0-4.0-10.153-0.153","","","","Rate your confidence","1",""
"374","i","choice","left","e","experimental","1376","1249478","0.0-4.0-8.154","false","155","2.5500000000000003","","",""
"1710","5","confid","","","html-slider-response","1378","1251692","0.0-4.0-10.154-0.154","","","","Rate your confidence","1",""
"354","i","choice","right","i","experimental","1385","1253820","0.0-4.0-8.155","true","156","2.6500000000000004","","",""
"1534","5","confid","","","html-slider-response","1387","1255859","0.0-4.0-10.155-0.155","","","","Rate your confidence","1",""
"378","i","choice","right","i","experimental","1394","1258011","0.0-4.0-8.156","true","157","2.6500000000000004","","",""
"1727","5","confid","","","html-slider-response","1396","1260243","0.0-4.0-10.156-0.156","","","","Rate your confidence","1",""
"310","e","choice","left","e","experimental","1403","1262327","0.0-4.0-8.157","true","158","2.5500000000000003","","",""
"1347","5","confid","","","html-slider-response","1405","1264181","0.0-4.0-10.157-0.157","","","","Rate your confidence","1",""
"252","e","choice","left","e","experimental","1412","1266204","0.0-4.0-8.158","true","159","2.5500000000000003","","",""
"1393","5","confid","","","html-slider-response","1414","1268102","0.0-4.0-10.158-0.158","","","","Rate your confidence","1",""
"1188","e","choice","right","i","experimental","1421","1271065","0.0-4.0-8.159","false","160","2.45","","",""
"1790","4","confid","","","html-slider-response","1423","1273361","0.0-4.0-10.159-0.159","","","","Rate your confidence","1",""
"361","e","choice","left","e","experimental","1430","1275499","0.0-4.0-8.160","true","161","2.5500000000000003","","",""
"2173","5","confid","","","html-slider-response","1432","1278177","0.0-4.0-10.160-0.160","","","","Rate your confidence","1",""
"337","e","choice","right","i","experimental","1439","1280290","0.0-4.0-8.161","false","162","2.5500000000000003","","",""
"1665","5","confid","","","html-slider-response","1441","1282460","0.0-4.0-10.161-0.161","","","","Rate your confidence","1",""
"135","i","choice","right","i","experimental","1448","1284369","0.0-4.0-8.162","true","163","2.6500000000000004","","",""
"1975","5","confid","","","html-slider-response","1450","1286850","0.0-4.0-10.162-0.162","","","","Rate your confidence","1",""
"306","e","choice","left","e","experimental","1457","1288932","0.0-4.0-8.163","true","164","2.6500000000000004","","",""
"1888","5","confid","","","html-slider-response","1459","1291324","0.0-4.0-10.163-0.163","","","","Rate your confidence","1",""
"447.00000000023283","i","choice","left","e","experimental","1466","1293548","0.0-4.0-8.164","false","165","2.5500000000000003","","",""
"1594","5","confid","","","html-slider-response","1468","1295649","0.0-4.0-10.164-0.164","","","","Rate your confidence","1",""
"399","i","choice","right","i","experimental","1475","1297823","0.0-4.0-8.165","true","166","2.6500000000000004","","",""
"1483","5","confid","","","html-slider-response","1477","1299810","0.0-4.0-10.165-0.165","","","","Rate your confidence","1",""
"503","e","choice","right","i","experimental","1484","1302087","0.0-4.0-8.166","false","167","2.6500000000000004","","",""
"1586","5","confid","","","html-slider-response","1486","1304177","0.0-4.0-10.166-0.166","","","","Rate your confidence","1",""
"325","e","choice","left","e","experimental","1493","1306273","0.0-4.0-8.167","true","168","2.7500000000000004","","",""
"2430","5","confid","","","html-slider-response","1495","1309207","0.0-4.0-10.167-0.167","","","","Rate your confidence","1",""
"215","e","choice","left","e","experimental","1502","1311197","0.0-4.0-8.168","true","169","2.7500000000000004","","",""
"1849","5","confid","","","html-slider-response","1504","1313552","0.0-4.0-10.168-0.168","","","","Rate your confidence","1",""
"452","e","choice","right","i","experimental","1511","1315777","0.0-4.0-8.169","false","170","2.6500000000000004","","",""
"1794.0000000002328","5","confid","","","html-slider-response","1513","1318077","0.0-4.0-10.169-0.169","","","","Rate your confidence","1",""
"309","i","choice","right","i","experimental","1520","1320161","0.0-4.0-8.170","true","171","2.7500000000000004","","",""
"1454","5","confid","","","html-slider-response","1522","1322120","0.0-4.0-10.170-0.170","","","","Rate your confidence","1",""
"586.0000000002328","e","choice","left","e","experimental","1529","1324481","0.0-4.0-8.171","true","172","2.7500000000000004","","",""
"3132","5","confid","","","html-slider-response","1531","1328119","0.0-4.0-10.171-0.171","","","","Rate your confidence","1",""
"216","i","choice","right","i","experimental","1538","1330112","0.0-4.0-8.172","true","173","2.6500000000000004","","",""
"1551","5","confid","","","html-slider-response","1540","1332171","0.0-4.0-10.172-0.172","","","","Rate your confidence","1",""
"669","e","choice","left","e","experimental","1547","1334612","0.0-4.0-8.173","true","174","2.6500000000000004","","",""
"1702","4","confid","","","html-slider-response","1549","1336819","0.0-4.0-10.173-0.173","","","","Rate your confidence","1",""
"394.99999999976717","i","choice","right","i","experimental","1556","1338991","0.0-4.0-8.174","true","175","2.5500000000000003","","",""
"2377","5","confid","","","html-slider-response","1558","1341874","0.0-4.0-10.174-0.174","","","","Rate your confidence","1",""
"313","e","choice","left","e","experimental","1565","1343963","0.0-4.0-8.175","true","176","2.5500000000000003","","",""
"1385","5","confid","","","html-slider-response","1567","1345854","0.0-4.0-10.175-0.175","","","","Rate your confidence","1",""
"285","e","choice","right","i","experimental","1574","1347914","0.0-4.0-8.176","false","177","2.45","","",""
"1939","5","confid","","","html-slider-response","1576","1350357","0.0-4.0-10.176-0.176","","","","Rate your confidence","1",""
"298","e","choice","left","e","experimental","1583","1352429","0.0-4.0-8.177","true","178","2.5500000000000003","","",""
"1655","5","confid","","","html-slider-response","1585","1354592","0.0-4.0-10.177-0.177","","","","Rate your confidence","1",""
"134","e","choice","left","e","experimental","1592","1356501","0.0-4.0-8.178","true","179","2.5500000000000003","","",""
"2566","5","confid","","","html-slider-response","1594","1359574","0.0-4.0-10.178-0.178","","","","Rate your confidence","1",""
"40","i","choice","right","i","experimental","1601","1361388","0.0-4.0-8.179","true","180","2.45","","",""
"2079","5","confid","","","html-slider-response","1603","1363975","0.0-4.0-10.179-0.179","","","","Rate your confidence","1",""
"332.99999999976717","i","choice","left","e","experimental","1610","1366083","0.0-4.0-8.180","false","181","2.45","","",""
"2235","5","confid","","","html-slider-response","1612","1368823","0.0-4.0-10.180-0.180","","","","Rate your confidence","1",""
"384","e","choice","right","i","experimental","1619","1370984","0.0-4.0-8.181","false","182","2.5500000000000003","","",""
"1852","4","confid","","","html-slider-response","1621","1373341","0.0-4.0-10.181-0.181","","","","Rate your confidence","1",""
"101","e","choice","left","e","experimental","1628","1375218","0.0-4.0-8.182","true","183","2.6500000000000004","","",""
"1549","5","confid","","","html-slider-response","1630","1377274","0.0-4.0-10.182-0.182","","","","Rate your confidence","1",""
"110","i","choice","right","i","experimental","1637","1379157","0.0-4.0-8.183","true","184","2.6500000000000004","","",""
"1242.0000000002328","5","confid","","","html-slider-response","1639","1380904","0.0-4.0-10.183-0.183","","","","Rate your confidence","1",""
"280","e","choice","left","e","experimental","1646","1382960","0.0-4.0-8.184","true","185","2.5500000000000003","","",""
"1409","5","confid","","","html-slider-response","1648","1384872","0.0-4.0-10.184-0.184","","","","Rate your confidence","1",""
"277","i","choice","right","i","experimental","1655","1386924","0.0-4.0-8.185","true","186","2.5500000000000003","","",""
"2034","5","confid","","","html-slider-response","1657","1389465","0.0-4.0-10.185-0.185","","","","Rate your confidence","1",""
"302","e","choice","right","i","experimental","1664","1391546","0.0-4.0-8.186","false","187","2.45","","",""
"2112","5","confid","","","html-slider-response","1666","1394161","0.0-4.0-10.186-0.186","","","","Rate your confidence","1",""
"285.00000000023283","e","choice","left","e","experimental","1673","1396221","0.0-4.0-8.187","true","188","2.5500000000000003","","",""
"2584","4","confid","","","html-slider-response","1675","1399316","0.0-4.0-10.187-0.187","","","","Rate your confidence","1",""
"519","e","choice","left","e","experimental","1682","1401610","0.0-4.0-8.188","true","189","2.5500000000000003","","",""
"1878.9999999997672","5","confid","","","html-slider-response","1684","1403995","0.0-4.0-10.188-0.188","","","","Rate your confidence","1",""
"501","i","choice","right","i","experimental","1691","1406272","0.0-4.0-8.189","true","190","2.45","","",""
"2438","4","confid","","","html-slider-response","1693","1409214","0.0-4.0-10.189-0.189","","","","Rate your confidence","1",""
"568.9999999997672","e","choice","right","i","experimental","1700","1411560","0.0-4.0-8.190","false","191","2.45","","",""
"2649","5","confid","","","html-slider-response","1702","1414715","0.0-4.0-10.190-0.190","","","","Rate your confidence","1",""
"21","e","choice","left","e","experimental","1709","1416513","0.0-4.0-8.191","true","192","2.5500000000000003","","",""
"1639","5","confid","","","html-slider-response","1711","1418660","0.0-4.0-10.191-0.191","","","","Rate your confidence","1",""
"404.99999999976717","e","choice","left","e","experimental","1718","1420839","0.0-4.0-8.192","true","193","2.5500000000000003","","",""
"1760","4","confid","","","html-slider-response","1720","1423103","0.0-4.0-10.192-0.192","","","","Rate your confidence","1",""
"481","e","choice","right","i","experimental","1727","1425358","0.0-4.0-8.193","false","194","2.45","","",""
"2170","4","confid","","","html-slider-response","1729","1428033","0.0-4.0-10.193-0.193","","","","Rate your confidence","1","98151"
