"rt","response","task","target_side","correct_response","trial_type","trial_index","time_elapsed","internal_node_id","correct","trial_number","n_dots","stimulus","slider_start","participant"
"242.90000000037253","e","choice","left","e","practice","10","70377","0.0-4.0-8.0","true","1","4.25","","",""
"3.7000000001862645","i","choice","right","i","practice","18","72675","0.0-4.0-8.1","true","2","4.25","","",""
"297.20000000018626","e","choice","left","e","practice","26","75263","0.0-4.0-8.2","true","3","3.85","","",""
"305.79999999981374","e","choice","right","i","practice","34","77853","0.0-4.0-8.3","false","4","3.85","","",""
"270.29999999981374","i","choice","right","i","practice","42","80415","0.0-4.0-8.4","true","5","4.25","","",""
"364.5","e","choice","left","e","practice","50","83064","0.0-4.0-8.5","true","6","4.25","","",""
"307.19999999925494","e","choice","left","e","practice","58","85667","0.0-4.0-8.6","true","7","4.05","","",""
"351.19999999925494","i","choice","right","i","practice","66","88312","0.0-4.0-8.7","true","8","4.05","","",""
"342.70000000018626","i","choice","right","i","practice","74","90951","0.0-4.0-8.8","true","9","3.8499999999999996","","",""
"393.5","e","choice","left","e","practice","82","93625","0.0-4.0-8.9","true","10","3.8499999999999996","","",""
"580","i","choice","right","i","practice","90","96489","0.0-4.0-8.10","true","11","3.6499999999999995","","",""
"410.09999999962747","e","choice","left","e","practice","98","99194","0.0-4.0-8.11","true","12","3.6499999999999995","","",""
"419.3999999994412","e","choice","left","e","practice","106","101913","0.0-4.0-8.12","true","13","3.5499999999999994","","",""
"551.5","i","choice","right","i","practice","114","104748","0.0-4.0-8.13","true","14","3.5499999999999994","","",""
"346.70000000018626","e","choice","left","e","practice","122","107392","0.0-4.0-8.14","true","15","3.4499999999999993","","",""
"305.5","e","choice","right","i","practice","130","109990","0.0-4.0-8.15","false","16","3.4499999999999993","","",""
"396.5","i","choice","right","i","practice","138","112668","0.0-4.0-8.16","true","17","3.5499999999999994","","",""
"468.20000000018626","e","choice","left","e","practice","146","115428","0.0-4.0-8.17","true","18","3.5499999999999994","","",""
"369.1000000005588","e","choice","left","e","practice","154","118091","0.0-4.0-8.18","true","19","3.4499999999999993","","",""
"495.3999999994412","i","choice","right","i","practice","162","120879","0.0-4.0-8.19","true","20","3.4499999999999993","","",""
"113.90000000037253","e","choice","left","e","practice","170","123276","0.0-4.0-8.20","true","21","3.349999999999999","","",""
"372.5","i","choice","right","i","practice","178","125929","0.0-4.0-8.21","true","22","3.349999999999999","","",""
"269.20000000018626","e","choice","left","e","practice","186","128486","0.0-4.0-8.22","true","23","3.249999999999999","","",""
"249.59999999962747","e","choice","right","i","practice","194","131033","0.0-4.0-8.23","false","24","3.249999999999999","","",""
"308.09999999962747","i","choice","right","i","practice","202","133624","0.0-4.0-8.24","true","25","3.349999999999999","","",""
"388.6000000005588","e","choice","left","e","practice","210","136302","0.0-4.0-8.25","true","26","3.349999999999999","","",""
"336.3999999994412","e","choice","right","i","experimental","221","162096","0.0-4.0-8.26","false","27","3.249999999999999","","",""
"3007.300000000745","3","confid","","","html-slider-response","223","165608","0.0-4.0-10.26-0.26","","","","Rate your confidence","1",""
"339.80000000074506","e","choice","left","e","experimental","230","167741","0.0-4.0-8.27","true","28","3.349999999999999","","",""
"3049.0999999996275","4","confid","","","html-slider-response","232","171293","0.0-4.0-10.27-0.27","","","","Rate your confidence","1",""
"445.70000000018626","i","choice","right","i","experimental","239","173530","0.0-4.0-8.28","true","29","3.349999999999999","","",""
"1859.4000000003725","4","confid","","","html-slider-response","241","175895","0.0-4.0-10.28-0.28","","","","Rate your confidence","1",""
"101.79999999981374","e","choice","left","e","experimental","248","177791","0.0-4.0-8.29","true","30","3.249999999999999","","",""
"2426.5999999996275","4","confid","","","html-slider-response","250","180723","0.0-4.0-10.29-0.29","","","","Rate your confidence","1",""
"443.79999999981374","e","choice","left","e","experimental","257","182948","0.0-4.0-8.30","true","31","3.249999999999999","","",""
"2153.7000000001863","4","confid","","","html-slider-response","259","185607","0.0-4.0-10.30-0.30","","","","Rate your confidence","1",""
"326.70000000018626","i","choice","right","i","experimental","266","187717","0.0-4.0-8.31","true","32","3.149999999999999","","",""
"5097.799999999814","4","confid","","","html-slider-response","268","193319","0.0-4.0-10.31-0.31","","","","Rate your confidence","1",""
"638.2999999998137","e","choice","left","e","experimental","275","195751","0.0-4.0-8.32","true","33","3.149999999999999","","",""
"2263.7999999998137","4","confid","","","html-slider-response","277","198518","0.0-4.0-10.32-0.32","","","","Rate your confidence","1",""
"471","e","choice","right","i","experimental","284","200784","0.0-4.0-8.33","false","34","3.049999999999999","","",""
"3414.9000000003725","4","confid","","","html-slider-response","286","204703","0.0-4.0-10.33-0.33","","","","Rate your confidence","1",""
"451.5","e","choice","left","e","experimental","293","206934","0.0-4.0-8.34","true","35","3.149999999999999","","",""
"1988.9000000003725","4","confid","","","html-slider-response","295","209426","0.0-4.0-10.34-0.34","","","","Rate your confidence","1",""
"311.1000000005588","i","choice","right","i","experimental","302","211525","0.0-4.0-8.35","true","36","3.149999999999999","","",""
"2322.600000000559","4","confid","","","html-slider-response","304","214352","0.0-4.0-10.35-0.35","","","","Rate your confidence","1",""
"441.70000000018626","e","choice","right","i","experimental","311","216584","0.0-4.0-8.36","false","37","3.049999999999999","","",""
"1840.300000000745","3","confid","","","html-slider-response","313","218927","0.0-4.0-10.36-0.36","","","","Rate your confidence","1",""
"391.79999999981374","e","choice","left","e","experimental","320","221104","0.0-4.0-8.37","true","38","3.149999999999999","","",""
"1873.6000000005588","4","confid","","","html-slider-response","322","223481","0.0-4.0-10.37-0.37","","","","Rate your confidence","1",""
"507","e","choice","left","e","experimental","329","225774","0.0-4.0-8.38","true","39","3.149999999999999","","",""
"1713.8999999994412","4","confid","","","html-slider-response","331","228002","0.0-4.0-10.38-0.38","","","","Rate your confidence","1",""
"374.90000000037253","i","choice","right","i","experimental","338","230159","0.0-4.0-8.39","true","40","3.049999999999999","","",""
"1765.5999999996275","4","confid","","","html-slider-response","340","232428","0.0-4.0-10.39-0.39","","","","Rate your confidence","1",""
"473.90000000037253","i","choice","right","i","experimental","347","234706","0.0-4.0-8.40","true","41","3.049999999999999","","",""
"1844.0999999996275","4","confid","","","html-slider-response","349","237054","0.0-4.0-10.40-0.40","","","","Rate your confidence","1",""
"312.3999999994412","e","choice","left","e","experimental","356","239158","0.0-4.0-8.41","true","42","2.949999999999999","","",""
"2811.7000000001863","4","confid","","","html-slider-response","358","242472","0.0-4.0-10.41-0.41","","","","Rate your confidence","1",""
"399.69999999925494","e","choice","left","e","experimental","365","244658","0.0-4.0-8.42","true","43","2.949999999999999","","",""
"1929.7000000001863","4","confid","","","html-slider-response","367","247101","0.0-4.0-10.42-0.42","","","","Rate your confidence","1",""
"520.8999999994412","i","choice","right","i","experimental","374","249403","0.0-4.0-8.43","true","44","2.8499999999999988","","",""
"47446.200000000186","4","confid","","","html-slider-response","376","297352","0.0-4.0-10.43-0.43","","","","Rate your confidence","1",""
"626","i","choice","right","i","experimental","383","299766","0.0-4.0-8.44","true","45","2.8499999999999988","","",""
"1899.7999999998137","4","confid","","","html-slider-response","385","302172","0.0-4.0-10.44-0.44","","","","Rate your confidence","1",""
"487.6000000005588","i","choice","left","e","experimental","392","304451","0.0-4.0-8.45","false","46","2.7499999999999987","","",""
"4169.5","2","confid","","","html-slider-response","394","309124","0.0-4.0-10.45-0.45","","","","Rate your confidence","1",""
"349.8999999994412","e","choice","left","e","experimental","401","311268","0.0-4.0-8.46","true","47","2.8499999999999988","","",""
"2463.7000000001863","4","confid","","","html-slider-response","403","314235","0.0-4.0-10.46-0.46","","","","Rate your confidence","1",""
"300.29999999981374","i","choice","right","i","experimental","410","316317","0.0-4.0-8.47","true","48","2.8499999999999988","","",""
"1629.4000000003725","4","confid","","","html-slider-response","412","318451","0.0-4.0-10.47-0.47","","","","Rate your confidence","1",""
"359.20000000018626","e","choice","left","e","experimental","419","320589","0.0-4.0-8.48","true","49","2.7499999999999987","","",""
"1537.7000000001863","4","confid","","","html-slider-response","421","322641","0.0-4.0-10.48-0.48","","","","Rate your confidence","1",""
"689","e","choice","right","i","experimental","428","325111","0.0-4.0-8.49","false","50","2.7499999999999987","","",""
"1684.7999999998137","4","confid","","","html-slider-response","430","327299","0.0-4.0-10.49-0.49","","","","Rate your confidence","1",""
"349.5","e","choice","left","e","experimental","437","329438","0.0-4.0-8.50","true","51","2.8499999999999988","","",""
"3573.4000000003725","4","confid","","","html-slider-response","439","333514","0.0-4.0-10.50-0.50","","","","Rate your confidence","1",""
"256.8999999994412","i","choice","right","i","experimental","446","335562","0.0-4.0-8.51","true","52","2.8499999999999988","","",""
"4971.5999999996275","4","confid","","","html-slider-response","448","341040","0.0-4.0-10.51-0.51","","","","Rate your confidence","1",""
"184","i","choice","right","i","experimental","455","343011","0.0-4.0-8.52","true","53","2.7499999999999987","","",""
"1813.4000000003725","4","confid","","","html-slider-response","457","345328","0.0-4.0-10.52-0.52","","","","Rate your confidence","1",""
"367.29999999981374","e","choice","left","e","experimental","464","347482","0.0-4.0-8.53","true","54","2.7499999999999987","","",""
"1726.4000000003725","4","confid","","","html-slider-response","466","349712","0.0-4.0-10.53-0.53","","","","Rate your confidence","1",""
"515.1000000005588","e","choice","left","e","experimental","473","352017","0.0-4.0-8.54","true","55","2.6499999999999986","","",""
"3325.5","1","confid","","","html-slider-response","475","355847","0.0-4.0-10.54-0.54","","","","Rate your confidence","1",""
"367.6000000005588","i","choice","right","i","experimental","482","357999","0.0-4.0-8.55","true","56","2.6499999999999986","","",""
"2610.0999999996275","3","confid","","","html-slider-response","484","361113","0.0-4.0-10.55-0.55","","","","Rate your confidence","1",""
"298.1000000005588","i","choice","left","e","experimental","491","363203","0.0-4.0-8.56","false","57","2.5499999999999985","","",""
"2064.100000000559","3","confid","","","html-slider-response","493","365770","0.0-4.0-10.56-0.56","","","","Rate your confidence","1",""
"243.5","e","choice","right","i","experimental","500","367811","0.0-4.0-8.57","false","58","2.6499999999999986","","",""
"2019.199999999255","4","confid","","","html-slider-response","502","370334","0.0-4.0-10.57-0.57","","","","Rate your confidence","1",""
"165","i","choice","right","i","experimental","509","372282","0.0-4.0-8.58","true","59","2.7499999999999987","","",""
"2713.7000000001863","4","confid","","","html-slider-response","511","375502","0.0-4.0-10.58-0.58","","","","Rate your confidence","1",""
"450.79999999981374","i","choice","left","e","experimental","518","377736","0.0-4.0-8.59","false","60","2.7499999999999987","","",""
"3907.9000000003725","4","confid","","","html-slider-response","520","382147","0.0-4.0-10.59-0.59","","","","Rate your confidence","1",""
"865.1000000005588","e","choice","right","i","experimental","527","384802","0.0-4.0-8.60","false","61","2.8499999999999988","","",""
"2095.5999999996275","3","confid","","","html-slider-response","529","387401","0.0-4.0-10.60-0.60","","","","Rate your confidence","1",""
"271.59999999962747","i","choice","left","e","experimental","536","389455","0.0-4.0-8.61","false","62","2.949999999999999","","",""
"2053.2999999998137","4","confid","","","html-slider-response","538","392011","0.0-4.0-10.61-0.61","","","","Rate your confidence","1",""
"328.79999999981374","e","choice","left","e","experimental","545","394125","0.0-4.0-8.62","true","63","3.049999999999999","","",""
"2833.9000000003725","5","confid","","","html-slider-response","547","397463","0.0-4.0-10.62-0.62","","","","Rate your confidence","1",""
"453.5","i","choice","right","i","experimental","554","399703","0.0-4.0-8.63","true","64","3.049999999999999","","",""
"2051.2000000001863","4","confid","","","html-slider-response","556","402258","0.0-4.0-10.63-0.63","","","","Rate your confidence","1",""
"440.40000000037253","e","choice","left","e","experimental","563","404482","0.0-4.0-8.64","true","65","2.949999999999999","","",""
"1592.4000000003725","4","confid","","","html-slider-response","565","406578","0.0-4.0-10.64-0.64","","","","Rate your confidence","1",""
"264.90000000037253","i","choice","right","i","experimental","572","408631","0.0-4.0-8.65","true","66","2.949999999999999","","",""
"1908.3999999994412","5","confid","","","html-slider-response","574","411043","0.0-4.0-10.65-0.65","","","","Rate your confidence","1",""
"402.59999999962747","e","choice","left","e","experimental","581","413241","0.0-4.0-8.66","true","67","2.8499999999999988","","",""
"1804.300000000745","4","confid","","","html-slider-response","583","415549","0.0-4.0-10.66-0.66","","","","Rate your confidence","1",""
"348.59999999962747","i","choice","right","i","experimental","590","417680","0.0-4.0-8.67","true","68","2.8499999999999988","","",""
"2493.7000000001863","5","confid","","","html-slider-response","592","420677","0.0-4.0-10.67-0.67","","","","Rate your confidence","1",""
"449.6000000005588","i","choice","right","i","experimental","600","449402","0.0-4.0-8.68","true","69","2.7499999999999987","","",""
"2340.5999999996275","4","confid","","","html-slider-response","602","452246","0.0-4.0-10.68-0.68","","","","Rate your confidence","1",""
"345.90000000037253","e","choice","left","e","experimental","609","454375","0.0-4.0-8.69","true","70","2.7499999999999987","","",""
"1803.9000000003725","3","confid","","","html-slider-response","611","456686","0.0-4.0-10.69-0.69","","","","Rate your confidence","1",""
"113.79999999981374","i","choice","left","e","experimental","618","458591","0.0-4.0-8.70","false","71","2.6499999999999986","","",""
"3090","4","confid","","","html-slider-response","620","462185","0.0-4.0-10.70-0.70","","","","Rate your confidence","1",""
"270.79999999981374","i","choice","right","i","experimental","627","464247","0.0-4.0-8.71","true","72","2.7499999999999987","","",""
"2150.7000000001863","4","confid","","","html-slider-response","629","466901","0.0-4.0-10.71-0.71","","","","Rate your confidence","1",""
"170.70000000018626","e","choice","left","e","experimental","636","468867","0.0-4.0-8.72","true","73","2.7499999999999987","","",""
"1655","4","confid","","","html-slider-response","638","471028","0.0-4.0-10.72-0.72","","","","Rate your confidence","1",""
"50.799999999813735","i","choice","right","i","experimental","645","472875","0.0-4.0-8.73","true","74","2.6499999999999986","","",""
"1747.2999999998137","4","confid","","","html-slider-response","647","475125","0.0-4.0-10.73-0.73","","","","Rate your confidence","1",""
"669.3999999994412","e","choice","right","i","experimental","654","477578","0.0-4.0-8.74","false","75","2.6499999999999986","","",""
"1940.0999999996275","2","confid","","","html-slider-response","656","480022","0.0-4.0-10.74-0.74","","","","Rate your confidence","1",""
"633.2000000001863","i","choice","left","e","experimental","663","482438","0.0-4.0-8.75","false","76","2.7499999999999987","","",""
"1787.2999999998137","2","confid","","","html-slider-response","665","484729","0.0-4.0-10.75-0.75","","","","Rate your confidence","1",""
"775.2000000001863","i","choice","left","e","experimental","672","487295","0.0-4.0-8.76","false","77","2.8499999999999988","","",""
"1896.5999999996275","3","confid","","","html-slider-response","674","489695","0.0-4.0-10.76-0.76","","","","Rate your confidence","1",""
"312.30000000074506","i","choice","right","i","experimental","681","491797","0.0-4.0-8.77","true","78","2.949999999999999","","",""
"1902.9000000003725","4","confid","","","html-slider-response","683","494204","0.0-4.0-10.77-0.77","","","","Rate your confidence","1",""
"291.40000000037253","i","choice","right","i","experimental","690","496283","0.0-4.0-8.78","true","79","2.949999999999999","","",""
"1999.2000000001863","4","confid","","","html-slider-response","692","498786","0.0-4.0-10.78-0.78","","","","Rate your confidence","1",""
"223.70000000018626","e","choice","left","e","experimental","699","500796","0.0-4.0-8.79","true","80","2.8499999999999988","","",""
"1911.199999999255","4","confid","","","html-slider-response","701","503211","0.0-4.0-10.79-0.79","","","","Rate your confidence","1",""
"245.69999999925494","i","choice","right","i","experimental","708","505241","0.0-4.0-8.80","true","81","2.8499999999999988","","",""
"1797.2000000001863","4","confid","","","html-slider-response","710","507542","0.0-4.0-10.80-0.80","","","","Rate your confidence","1",""
"275.70000000018626","e","choice","left","e","experimental","717","509611","0.0-4.0-8.81","true","82","2.7499999999999987","","",""
"1485","4","confid","","","html-slider-response","719","511600","0.0-4.0-10.81-0.81","","","","Rate your confidence","1",""
"312.90000000037253","i","choice","right","i","experimental","726","513696","0.0-4.0-8.82","true","83","2.7499999999999987","","",""
"2026.7999999998137","4","confid","","","html-slider-response","728","516226","0.0-4.0-10.82-0.82","","","","Rate your confidence","1",""
"196.79999999981374","e","choice","left","e","experimental","735","518209","0.0-4.0-8.83","true","84","2.6499999999999986","","",""
"2122.699999999255","3","confid","","","html-slider-response","737","520837","0.0-4.0-10.83-0.83","","","","Rate your confidence","1",""
"397.20000000018626","e","choice","left","e","experimental","744","523017","0.0-4.0-8.84","true","85","2.6499999999999986","","",""
"2434.7999999998137","2","confid","","","html-slider-response","746","525955","0.0-4.0-10.84-0.84","","","","Rate your confidence","1",""
"113.1000000005588","i","choice","right","i","experimental","753","527853","0.0-4.0-8.85","true","86","2.5499999999999985","","",""
"2588.2999999998137","2","confid","","","html-slider-response","755","530946","0.0-4.0-10.85-0.85","","","","Rate your confidence","1",""
"357.29999999981374","e","choice","left","e","experimental","762","533094","0.0-4.0-8.86","true","87","2.5499999999999985","","",""
"1571.2000000001863","4","confid","","","html-slider-response","764","535169","0.0-4.0-10.86-0.86","","","","Rate your confidence","1",""
"444.29999999981374","i","choice","right","i","experimental","771","537410","0.0-4.0-8.87","true","88","2.4499999999999984","","",""
"1553.5","4","confid","","","html-slider-response","773","539469","0.0-4.0-10.87-0.87","","","","Rate your confidence","1",""
"200.70000000018626","e","choice","right","i","experimental","780","541466","0.0-4.0-8.88","false","89","2.4499999999999984","","",""
"1537.2999999998137","4","confid","","","html-slider-response","782","543506","0.0-4.0-10.88-0.88","","","","Rate your confidence","1",""
"204.30000000074506","e","choice","left","e","experimental","789","545496","0.0-4.0-8.89","true","90","2.5499999999999985","","",""
"1690.3999999994412","4","confid","","","html-slider-response","791","547690","0.0-4.0-10.89-0.89","","","","Rate your confidence","1",""
"522.7000000001863","e","choice","left","e","experimental","798","549995","0.0-4.0-8.90","true","91","2.5499999999999985","","",""
"1930.7999999998137","4","confid","","","html-slider-response","800","552430","0.0-4.0-10.90-0.90","","","","Rate your confidence","1",""
"214.70000000018626","i","choice","right","i","experimental","807","554429","0.0-4.0-8.91","true","92","2.4499999999999984","","",""
"2866.5999999996275","4","confid","","","html-slider-response","809","557800","0.0-4.0-10.91-0.91","","","","Rate your confidence","1",""
"361.79999999981374","e","choice","right","i","experimental","816","559962","0.0-4.0-8.92","false","93","2.4499999999999984","","",""
"1864.5999999996275","2","confid","","","html-slider-response","818","562330","0.0-4.0-10.92-0.92","","","","Rate your confidence","1",""
"281.90000000037253","e","choice","left","e","experimental","825","564405","0.0-4.0-8.93","true","94","2.5499999999999985","","",""
"1789.699999999255","3","confid","","","html-slider-response","827","566699","0.0-4.0-10.93-0.93","","","","Rate your confidence","1",""
"56.799999999813735","i","choice","left","e","experimental","834","568553","0.0-4.0-8.94","false","95","2.5499999999999985","","",""
"1527.800000000745","2","confid","","","html-slider-response","836","570584","0.0-4.0-10.94-0.94","","","","Rate your confidence","1",""
"190.1000000005588","i","choice","right","i","experimental","843","572558","0.0-4.0-8.95","true","96","2.6499999999999986","","",""
"2992.9000000003725","4","confid","","","html-slider-response","845","576055","0.0-4.0-10.95-0.95","","","","Rate your confidence","1",""
"184.40000000037253","i","choice","right","i","experimental","852","578024","0.0-4.0-8.96","true","97","2.6499999999999986","","",""
"3362","4","confid","","","html-slider-response","854","581890","0.0-4.0-10.96-0.96","","","","Rate your confidence","1",""
"225.29999999981374","e","choice","left","e","experimental","861","583911","0.0-4.0-8.97","true","98","2.5499999999999985","","",""
"1622.3999999994412","4","confid","","","html-slider-response","863","586037","0.0-4.0-10.97-0.97","","","","Rate your confidence","1",""
"346.19999999925494","i","choice","left","e","experimental","870","588186","0.0-4.0-8.98","false","99","2.5499999999999985","","",""
"4742.199999999255","3","confid","","","html-slider-response","872","593434","0.0-4.0-10.98-0.98","","","","Rate your confidence","1",""
"70.1000000005588","i","choice","right","i","experimental","879","595291","0.0-4.0-8.99","true","100","2.6499999999999986","","",""
"1685.7000000001863","4","confid","","","html-slider-response","881","597481","0.0-4.0-10.99-0.99","","","","Rate your confidence","1",""
"89.3999999994412","i","choice","right","i","experimental","888","599353","0.0-4.0-8.100","true","101","2.6499999999999986","","",""
"2413.4000000003725","5","confid","","","html-slider-response","890","602270","0.0-4.0-10.100-0.100","","","","Rate your confidence","1",""
"311.3999999994412","i","choice","left","e","experimental","897","604364","0.0-4.0-8.101","false","102","2.5499999999999985","","",""
"1706.199999999255","5","confid","","","html-slider-response","899","606574","0.0-4.0-10.101-0.101","","","","Rate your confidence","1",""
"213.20000000018626","i","choice","right","i","experimental","906","608586","0.0-4.0-8.102","true","103","2.6499999999999986","","",""
"2166.4000000003725","5","confid","","","html-slider-response","908","611258","0.0-4.0-10.102-0.102","","","","Rate your confidence","1",""
"424.59999999962747","e","choice","left","e","experimental","915","613480","0.0-4.0-8.103","true","104","2.6499999999999986","","",""
"1514.300000000745","3","confid","","","html-slider-response","917","615498","0.0-4.0-10.103-0.103","","","","Rate your confidence","1",""
"1495.7000000001863","e","choice","right","i","experimental","924","618785","0.0-4.0-8.104","false","105","2.5499999999999985","","",""
"2650.2999999998137","1","confid","","","html-slider-response","926","621940","0.0-4.0-10.104-0.104","","","","Rate your confidence","1",""
"438.90000000037253","e","choice","left","e","experimental","933","624160","0.0-4.0-8.105","true","106","2.6499999999999986","","",""
"3331.2000000001863","2","confid","","","html-slider-response","935","627996","0.0-4.0-10.105-0.105","","","","Rate your confidence","1",""
"284","i","choice","left","e","experimental","942","630064","0.0-4.0-8.106","false","107","2.6499999999999986","","",""
"1836.0999999996275","4","confid","","","html-slider-response","944","632405","0.0-4.0-10.106-0.106","","","","Rate your confidence","1",""
"328.1000000005588","i","choice","right","i","experimental","951","634529","0.0-4.0-8.107","true","108","2.7499999999999987","","",""
"3509.7999999998137","3","confid","","","html-slider-response","953","638543","0.0-4.0-10.107-0.107","","","","Rate your confidence","1",""
"238.29999999981374","e","choice","left","e","experimental","960","640562","0.0-4.0-8.108","true","109","2.7499999999999987","","",""
"3464.699999999255","3","confid","","","html-slider-response","962","644531","0.0-4.0-10.108-0.108","","","","Rate your confidence","1",""
"270","i","choice","right","i","experimental","969","646594","0.0-4.0-8.109","true","110","2.6499999999999986","","",""
"2893.100000000559","4","confid","","","html-slider-response","971","649991","0.0-4.0-10.109-0.109","","","","Rate your confidence","1",""
"134.6000000005588","e","choice","left","e","experimental","979","656229","0.0-4.0-8.110","true","111","2.6499999999999986","","",""
"2097.0999999996275","4","confid","","","html-slider-response","981","658841","0.0-4.0-10.110-0.110","","","","Rate your confidence","1",""
"415","i","choice","right","i","experimental","988","661037","0.0-4.0-8.111","true","112","2.5499999999999985","","",""
"2169","2","confid","","","html-slider-response","990","663710","0.0-4.0-10.111-0.111","","","","Rate your confidence","1",""
"361.6000000005588","e","choice","right","i","experimental","997","665868","0.0-4.0-8.112","false","113","2.5499999999999985","","",""
"2885.100000000559","1","confid","","","html-slider-response","999","669258","0.0-4.0-10.112-0.112","","","","Rate your confidence","1",""
"376.59999999962747","i","choice","left","e","experimental","1006","671431","0.0-4.0-8.113","false","114","2.6499999999999986","","",""
"2048.899999999441","2","confid","","","html-slider-response","1008","673983","0.0-4.0-10.113-0.113","","","","Rate your confidence","1",""
"232.19999999925494","e","choice","left","e","experimental","1015","676011","0.0-4.0-8.114","true","115","2.7499999999999987","","",""
"4220.300000000745","2","confid","","","html-slider-response","1017","680735","0.0-4.0-10.114-0.114","","","","Rate your confidence","1",""
"193","i","choice","right","i","experimental","1024","682710","0.0-4.0-8.115","true","116","2.7499999999999987","","",""
"1894.2000000001863","4","confid","","","html-slider-response","1026","685107","0.0-4.0-10.115-0.115","","","","Rate your confidence","1",""
"142.40000000037253","e","choice","left","e","experimental","1033","687029","0.0-4.0-8.116","true","117","2.6499999999999986","","",""
"1819.2999999998137","4","confid","","","html-slider-response","1035","689360","0.0-4.0-10.116-0.116","","","","Rate your confidence","1",""
"972","i","choice","right","i","experimental","1042","692116","0.0-4.0-8.117","true","118","2.6499999999999986","","",""
"2324.100000000559","3","confid","","","html-slider-response","1044","694944","0.0-4.0-10.117-0.117","","","","Rate your confidence","1",""
"315.70000000018626","e","choice","right","i","experimental","1051","697041","0.0-4.0-8.118","false","119","2.5499999999999985","","",""
"1740.7999999998137","3","confid","","","html-slider-response","1053","699286","0.0-4.0-10.118-0.118","","","","Rate your confidence","1",""
"660.9000000003725","i","choice","left","e","experimental","1060","701742","0.0-4.0-8.119","false","120","2.6499999999999986","","",""
"2130.899999999441","3","confid","","","html-slider-response","1062","704376","0.0-4.0-10.119-0.119","","","","Rate your confidence","1",""
"715.9000000003725","i","choice","left","e","experimental","1069","706884","0.0-4.0-8.120","false","121","2.7499999999999987","","",""
"2744.2000000001863","3","confid","","","html-slider-response","1071","710132","0.0-4.0-10.120-0.120","","","","Rate your confidence","1",""
"208.3999999994412","e","choice","right","i","experimental","1078","712124","0.0-4.0-8.121","false","122","2.8499999999999988","","",""
"1823.3999999994412","3","confid","","","html-slider-response","1080","714460","0.0-4.0-10.121-0.121","","","","Rate your confidence","1",""
"139.5","i","choice","right","i","experimental","1087","716385","0.0-4.0-8.122","true","123","2.949999999999999","","",""
"1784.7999999998137","4","confid","","","html-slider-response","1089","718675","0.0-4.0-10.122-0.122","","","","Rate your confidence","1",""
"350.69999999925494","e","choice","left","e","experimental","1096","720822","0.0-4.0-8.123","true","124","2.949999999999999","","",""
"2460.699999999255","4","confid","","","html-slider-response","1098","723786","0.0-4.0-10.123-0.123","","","","Rate your confidence","1",""
"223.29999999981374","e","choice","left","e","experimental","1105","725809","0.0-4.0-8.124","true","125","2.8499999999999988","","",""
"1986.800000000745","4","confid","","","html-slider-response","1107","728300","0.0-4.0-10.124-0.124","","","","Rate your confidence","1",""
"218","e","choice","right","i","experimental","1114","730319","0.0-4.0-8.125","false","126","2.8499999999999988","","",""
"1959.2999999998137","4","confid","","","html-slider-response","1116","732782","0.0-4.0-10.125-0.125","","","","Rate your confidence","1",""
"700.8999999994412","e","choice","left","e","experimental","1123","735265","0.0-4.0-8.126","true","127","2.949999999999999","","",""
"2422.600000000559","3","confid","","","html-slider-response","1125","738191","0.0-4.0-10.126-0.126","","","","Rate your confidence","1",""
"603.5999999996275","e","choice","right","i","experimental","1132","740581","0.0-4.0-8.127","false","128","2.949999999999999","","",""
"2079.5","3","confid","","","html-slider-response","1134","743165","0.0-4.0-10.127-0.127","","","","Rate your confidence","1",""
"283.3999999994412","e","choice","left","e","experimental","1141","745231","0.0-4.0-8.128","true","129","3.049999999999999","","",""
"2201.600000000559","3","confid","","","html-slider-response","1143","747937","0.0-4.0-10.128-0.128","","","","Rate your confidence","1",""
"328.5","i","choice","right","i","experimental","1150","750049","0.0-4.0-8.129","true","130","3.049999999999999","","",""
"1728.2000000001863","3","confid","","","html-slider-response","1152","752281","0.0-4.0-10.129-0.129","","","","Rate your confidence","1",""
"263.09999999962747","e","choice","left","e","experimental","1159","754336","0.0-4.0-8.130","true","131","2.949999999999999","","",""
"2988.2999999998137","2","confid","","","html-slider-response","1161","757828","0.0-4.0-10.130-0.130","","","","Rate your confidence","1",""
"59","i","choice","right","i","experimental","1168","759673","0.0-4.0-8.131","true","132","2.949999999999999","","",""
"2837.0999999996275","5","confid","","","html-slider-response","1170","763014","0.0-4.0-10.131-0.131","","","","Rate your confidence","1",""
"42.89999999944121","i","choice","right","i","experimental","1177","764840","0.0-4.0-8.132","true","133","2.8499999999999988","","",""
"2206","5","confid","","","html-slider-response","1179","767552","0.0-4.0-10.132-0.132","","","","Rate your confidence","1",""
"230.6000000005588","e","choice","left","e","experimental","1186","769577","0.0-4.0-8.133","true","134","2.8499999999999988","","",""
"3435.2000000001863","3","confid","","","html-slider-response","1188","773516","0.0-4.0-10.133-0.133","","","","Rate your confidence","1",""
"417","i","choice","right","i","experimental","1195","775726","0.0-4.0-8.134","true","135","2.7499999999999987","","",""
"2931.5999999996275","4","confid","","","html-slider-response","1197","779162","0.0-4.0-10.134-0.134","","","","Rate your confidence","1",""
"141.69999999925494","e","choice","left","e","experimental","1204","781095","0.0-4.0-8.135","true","136","2.7499999999999987","","",""
"1996.5","4","confid","","","html-slider-response","1206","783598","0.0-4.0-10.135-0.135","","","","Rate your confidence","1",""
"319.40000000037253","e","choice","right","i","experimental","1213","785709","0.0-4.0-8.136","false","137","2.6499999999999986","","",""
"2458","2","confid","","","html-slider-response","1215","788673","0.0-4.0-10.136-0.136","","","","Rate your confidence","1",""
"265.5","e","choice","left","e","experimental","1222","790728","0.0-4.0-8.137","true","138","2.7499999999999987","","",""
"1947.6000000005588","4","confid","","","html-slider-response","1224","793180","0.0-4.0-10.137-0.137","","","","Rate your confidence","1",""
"297.20000000018626","e","choice","left","e","experimental","1231","795274","0.0-4.0-8.138","true","139","2.7499999999999987","","",""
"2463.7999999998137","4","confid","","","html-slider-response","1233","798242","0.0-4.0-10.138-0.138","","","","Rate your confidence","1",""
"363.5","i","choice","right","i","experimental","1240","800403","0.0-4.0-8.139","true","140","2.6499999999999986","","",""
"2107.5999999996275","4","confid","","","html-slider-response","1242","803015","0.0-4.0-10.139-0.139","","","","Rate your confidence","1",""
"272.6000000005588","e","choice","left","e","experimental","1249","805069","0.0-4.0-8.140","true","141","2.6499999999999986","","",""
"1962.4000000003725","4","confid","","","html-slider-response","1251","807545","0.0-4.0-10.140-0.140","","","","Rate your confidence","1",""
"490","e","choice","right","i","experimental","1258","809820","0.0-4.0-8.141","false","142","2.5499999999999985","","",""
"1871.9000000003725","4","confid","","","html-slider-response","1260","812196","0.0-4.0-10.141-0.141","","","","Rate your confidence","1",""
"250.29999999981374","e","choice","left","e","experimental","1267","814236","0.0-4.0-8.142","true","143","2.6499999999999986","","",""
"2088","4","confid","","","html-slider-response","1269","816830","0.0-4.0-10.142-0.142","","","","Rate your confidence","1",""
"153.5","e","choice","right","i","experimental","1276","818779","0.0-4.0-8.143","false","144","2.6499999999999986","","",""
"1633.0999999996275","4","confid","","","html-slider-response","1278","820916","0.0-4.0-10.143-0.143","","","","Rate your confidence","1",""
"142.5","e","choice","right","i","experimental","1285","822848","0.0-4.0-8.144","false","145","2.7499999999999987","","",""
"1853.0999999996275","4","confid","","","html-slider-response","1287","825205","0.0-4.0-10.144-0.144","","","","Rate your confidence","1",""
"157.20000000018626","e","choice","left","e","experimental","1294","827145","0.0-4.0-8.145","true","146","2.8499999999999988","","",""
"2385","4","confid","","","html-slider-response","1296","830035","0.0-4.0-10.145-0.145","","","","Rate your confidence","1",""
"208.20000000018626","i","choice","left","e","experimental","1303","832033","0.0-4.0-8.146","false","147","2.8499999999999988","","",""
"1735.2000000001863","4","confid","","","html-slider-response","1305","834274","0.0-4.0-10.146-0.146","","","","Rate your confidence","1",""
"170.5","i","choice","right","i","experimental","1312","836230","0.0-4.0-8.147","true","148","2.949999999999999","","",""
"2408.2999999998137","4","confid","","","html-slider-response","1314","839145","0.0-4.0-10.147-0.147","","","","Rate your confidence","1",""
"368.09999999962747","i","choice","right","i","experimental","1321","841313","0.0-4.0-8.148","true","149","2.949999999999999","","",""
"1717.5999999996275","3","confid","","","html-slider-response","1323","843537","0.0-4.0-10.148-0.148","","","","Rate your confidence","1",""
"237.5","e","choice","left","e","experimental","1330","845561","0.0-4.0-8.149","true","150","2.8499999999999988","","",""
"1945.7000000001863","3","confid","","","html-slider-response","1332","848010","0.0-4.0-10.149-0.149","","","","Rate your confidence","1",""
"1001","e","choice","right","i","experimental","1339","850799","0.0-4.0-8.150","false","151","2.8499999999999988","","",""
"3740.2999999998137","2","confid","","","html-slider-response","1341","855044","0.0-4.0-10.150-0.150","","","","Rate your confidence","1",""
"383.40000000037253","i","choice","left","e","experimental","1348","857211","0.0-4.0-8.151","false","152","2.949999999999999","","",""
"2034.5","3","confid","","","html-slider-response","1350","859752","0.0-4.0-10.151-0.151","","","","Rate your confidence","1",""
"72.59999999962747","e","choice","left","e","experimental","1358","884579","0.0-4.0-8.152","true","153","3.049999999999999","","",""
"2151","2","confid","","","html-slider-response","1360","887234","0.0-4.0-10.152-0.152","","","","Rate your confidence","1",""
"58.69999999925494","i","choice","right","i","experimental","1367","889093","0.0-4.0-8.153","true","154","3.049999999999999","","",""
"2149.5999999996275","4","confid","","","html-slider-response","1369","891749","0.0-4.0-10.153-0.153","","","","Rate your confidence","1",""
"46.09999999962747","e","choice","left","e","experimental","1376","893587","0.0-4.0-8.154","true","155","2.949999999999999","","",""
"1554.7999999998137","4","confid","","","html-slider-response","1378","895645","0.0-4.0-10.154-0.154","","","","Rate your confidence","1",""
"118.1000000005588","i","choice","right","i","experimental","1385","897547","0.0-4.0-8.155","true","156","2.949999999999999","","",""
"1942.7000000001863","4","confid","","","html-slider-response","1387","899995","0.0-4.0-10.155-0.155","","","","Rate your confidence","1",""
"349.79999999981374","e","choice","left","e","experimental","1394","902136","0.0-4.0-8.156","true","157","2.8499999999999988","","",""
"2305.7000000001863","4","confid","","","html-slider-response","1396","904946","0.0-4.0-10.156-0.156","","","","Rate your confidence","1",""
"338.8999999994412","i","choice","right","i","experimental","1403","907085","0.0-4.0-8.157","true","158","2.8499999999999988","","",""
"3065.0999999996275","3","confid","","","html-slider-response","1405","910654","0.0-4.0-10.157-0.157","","","","Rate your confidence","1",""
"164.59999999962747","e","choice","left","e","experimental","1412","912617","0.0-4.0-8.158","true","159","2.7499999999999987","","",""
"1829.699999999255","5","confid","","","html-slider-response","1414","914950","0.0-4.0-10.158-0.158","","","","Rate your confidence","1",""
"1023.4000000003725","e","choice","right","i","experimental","1421","917764","0.0-4.0-8.159","false","160","2.7499999999999987","","",""
"2430.2000000001863","1","confid","","","html-slider-response","1423","920698","0.0-4.0-10.159-0.159","","","","Rate your confidence","1",""
"366.70000000018626","e","choice","left","e","experimental","1430","922851","0.0-4.0-8.160","true","161","2.8499999999999988","","",""
"1492.7000000001863","4","confid","","","html-slider-response","1432","924849","0.0-4.0-10.160-0.160","","","","Rate your confidence","1",""
"356.90000000037253","i","choice","right","i","experimental","1439","927001","0.0-4.0-8.161","true","162","2.8499999999999988","","",""
"10039.299999999814","4","confid","","","html-slider-response","1441","937547","0.0-4.0-10.161-0.161","","","","Rate your confidence","1",""
"549.9000000003725","e","choice","left","e","experimental","1448","939898","0.0-4.0-8.162","true","163","2.7499999999999987","","",""
"2922.2000000001863","4","confid","","","html-slider-response","1450","943324","0.0-4.0-10.162-0.162","","","","Rate your confidence","1",""
"449.69999999925494","i","choice","right","i","experimental","1457","945558","0.0-4.0-8.163","true","164","2.7499999999999987","","",""
"2639.2999999998137","4","confid","","","html-slider-response","1459","948701","0.0-4.0-10.163-0.163","","","","Rate your confidence","1",""
"299.70000000018626","i","choice","right","i","experimental","1466","950789","0.0-4.0-8.164","true","165","2.6499999999999986","","",""
"2265.0999999996275","4","confid","","","html-slider-response","1468","953561","0.0-4.0-10.164-0.164","","","","Rate your confidence","1",""
"151.09999999962747","e","choice","left","e","experimental","1475","955504","0.0-4.0-8.165","true","166","2.6499999999999986","","",""
"2785","4","confid","","","html-slider-response","1477","958793","0.0-4.0-10.165-0.165","","","","Rate your confidence","1",""
"972.2000000001863","i","choice","right","i","experimental","1484","961562","0.0-4.0-8.166","true","167","2.5499999999999985","","",""
"2273.100000000559","4","confid","","","html-slider-response","1486","964339","0.0-4.0-10.166-0.166","","","","Rate your confidence","1",""
"444.20000000018626","e","choice","left","e","experimental","1493","966575","0.0-4.0-8.167","true","168","2.5499999999999985","","",""
"2927","4","confid","","","html-slider-response","1495","970007","0.0-4.0-10.167-0.167","","","","Rate your confidence","1",""
"381.29999999981374","e","choice","right","i","experimental","1502","972176","0.0-4.0-8.168","false","169","2.4499999999999984","","",""
"2524.7000000001863","4","confid","","","html-slider-response","1504","975206","0.0-4.0-10.168-0.168","","","","Rate your confidence","1",""
"357.2000000011176","e","choice","left","e","experimental","1511","977352","0.0-4.0-8.169","true","170","2.5499999999999985","","",""
"2376.800000000745","4","confid","","","html-slider-response","1513","980232","0.0-4.0-10.169-0.169","","","","Rate your confidence","1",""
"353.09999999962747","e","choice","left","e","experimental","1520","982382","0.0-4.0-8.170","true","171","2.5499999999999985","","",""
"2329.7000000011176","4","confid","","","html-slider-response","1522","985217","0.0-4.0-10.170-0.170","","","","Rate your confidence","1",""
"353.40000000037253","e","choice","right","i","experimental","1529","987369","0.0-4.0-8.171","false","172","2.4499999999999984","","",""
"2552.7000000011176","5","confid","","","html-slider-response","1531","990426","0.0-4.0-10.171-0.171","","","","Rate your confidence","1",""
"436.59999999962747","e","choice","left","e","experimental","1538","992652","0.0-4.0-8.172","true","173","2.5499999999999985","","",""
"2157.2000000011176","4","confid","","","html-slider-response","1540","995316","0.0-4.0-10.172-0.172","","","","Rate your confidence","1",""
"346","e","choice","right","i","experimental","1547","997446","0.0-4.0-8.173","false","174","2.5499999999999985","","",""
"2550.7000000011176","4","confid","","","html-slider-response","1549","1000500","0.0-4.0-10.173-0.173","","","","Rate your confidence","1",""
"194.09999999962747","e","choice","right","i","experimental","1556","1002490","0.0-4.0-8.174","false","175","2.6499999999999986","","",""
"2270.2999999988824","4","confid","","","html-slider-response","1558","1005264","0.0-4.0-10.174-0.174","","","","Rate your confidence","1",""
"922","i","choice","left","e","experimental","1565","1007980","0.0-4.0-8.175","false","176","2.7499999999999987","","",""
"2798","4","confid","","","html-slider-response","1567","1011284","0.0-4.0-10.175-0.175","","","","Rate your confidence","1",""
"380.09999999962747","e","choice","right","i","experimental","1574","1013450","0.0-4.0-8.176","false","177","2.8499999999999988","","",""
"3021.9000000003725","4","confid","","","html-slider-response","1576","1016976","0.0-4.0-10.176-0.176","","","","Rate your confidence","1",""
"325.90000000037253","e","choice","left","e","experimental","1583","1019085","0.0-4.0-8.177","true","178","2.949999999999999","","",""
"3003.5999999996275","4","confid","","","html-slider-response","1585","1022593","0.0-4.0-10.177-0.177","","","","Rate your confidence","1",""
"332.19999999925494","i","choice","right","i","experimental","1592","1024725","0.0-4.0-8.178","true","179","2.949999999999999","","",""
"1679.4000000003725","2","confid","","","html-slider-response","1594","1026908","0.0-4.0-10.178-0.178","","","","Rate your confidence","1",""
"343.69999999925494","e","choice","left","e","experimental","1601","1029044","0.0-4.0-8.179","true","180","2.8499999999999988","","",""
"1599.800000000745","4","confid","","","html-slider-response","1603","1031148","0.0-4.0-10.179-0.179","","","","Rate your confidence","1",""
"294.69999999925494","i","choice","right","i","experimental","1610","1033229","0.0-4.0-8.180","true","181","2.8499999999999988","","",""
"1636.5","4","confid","","","html-slider-response","1612","1035371","0.0-4.0-10.180-0.180","","","","Rate your confidence","1",""
"511.40000000037253","i","choice","left","e","experimental","1619","1037674","0.0-4.0-8.181","false","182","2.7499999999999987","","",""
"2521.300000000745","4","confid","","","html-slider-response","1621","1040700","0.0-4.0-10.181-0.181","","","","Rate your confidence","1",""
"450.7000000011176","e","choice","left","e","experimental","1628","1042947","0.0-4.0-8.182","true","183","2.8499999999999988","","",""
"1930.9000000003725","4","confid","","","html-slider-response","1630","1045383","0.0-4.0-10.182-0.182","","","","Rate your confidence","1",""
"334.1000000014901","i","choice","right","i","experimental","1637","1047519","0.0-4.0-8.183","true","184","2.8499999999999988","","",""
"2027.6000000014901","4","confid","","","html-slider-response","1639","1050050","0.0-4.0-10.183-0.183","","","","Rate your confidence","1",""
"355.2000000011176","e","choice","left","e","experimental","1646","1052196","0.0-4.0-8.184","true","185","2.7499999999999987","","",""
"1748.2000000011176","4","confid","","","html-slider-response","1648","1054459","0.0-4.0-10.184-0.184","","","","Rate your confidence","1",""
"297","i","choice","right","i","experimental","1655","1056538","0.0-4.0-8.185","true","186","2.7499999999999987","","",""
"1783.800000000745","4","confid","","","html-slider-response","1657","1058827","0.0-4.0-10.185-0.185","","","","Rate your confidence","1",""
"392","e","choice","left","e","experimental","1664","1061017","0.0-4.0-8.186","true","187","2.6499999999999986","","",""
"2021.300000000745","4","confid","","","html-slider-response","1666","1063542","0.0-4.0-10.186-0.186","","","","Rate your confidence","1",""
"464.3999999985099","i","choice","right","i","experimental","1673","1065804","0.0-4.0-8.187","true","188","2.6499999999999986","","",""
"1858.800000000745","4","confid","","","html-slider-response","1675","1068168","0.0-4.0-10.187-0.187","","","","Rate your confidence","1",""
"301.2000000011176","e","choice","left","e","experimental","1682","1070269","0.0-4.0-8.188","true","189","2.5499999999999985","","",""
"3015.5","5","confid","","","html-slider-response","1684","1073788","0.0-4.0-10.188-0.188","","","","Rate your confidence","1",""
"282.2999999988824","i","choice","right","i","experimental","1691","1075857","0.0-4.0-8.189","true","190","2.5499999999999985","","",""
"1642.4000000003725","3","confid","","","html-slider-response","1693","1078003","0.0-4.0-10.189-0.189","","","","Rate your confidence","1",""
"390.7000000011176","e","choice","right","i","experimental","1700","1080183","0.0-4.0-8.190","false","191","2.4499999999999984","","",""
"2069.5999999996275","3","confid","","","html-slider-response","1702","1082758","0.0-4.0-10.190-0.190","","","","Rate your confidence","1",""
"264.5","e","choice","left","e","experimental","1709","1084803","0.0-4.0-8.191","true","192","2.5499999999999985","","",""
"16918.599999999627","3","confid","","","html-slider-response","1711","1102226","0.0-4.0-10.191-0.191","","","","Rate your confidence","1",""
"322.59999999962747","e","choice","left","e","experimental","1718","1104348","0.0-4.0-8.192","true","193","2.5499999999999985","","",""
"1918.800000000745","3","confid","","","html-slider-response","1720","1106771","0.0-4.0-10.192-0.192","","","","Rate your confidence","1",""
"619.2999999988824","i","choice","right","i","experimental","1727","1109189","0.0-4.0-8.193","true","194","2.4499999999999984","","",""
"2792.5","3","confid","","","html-slider-response","1729","1112487","0.0-4.0-10.193-0.193","","","","Rate your confidence","1","57586"
