"rt","response","task","target_side","correct_response","trial_type","trial_index","time_elapsed","internal_node_id","correct","trial_number","n_dots","stimulus","slider_start","participant"
"667.2000000029802","e","choice","left","e","practice","10","80119","0.0-4.0-8.0","true","1","4.25","","",""
"390.70000000298023","i","choice","right","i","practice","18","82803","0.0-4.0-8.1","true","2","4.25","","",""
"330.70000000298023","i","choice","right","i","practice","26","85425","0.0-4.0-8.2","true","3","3.85","","",""
"304.29999999701977","e","choice","left","e","practice","34","88019","0.0-4.0-8.3","true","4","3.85","","",""
"799.1000000014901","e","choice","right","i","practice","42","91099","0.0-4.0-8.4","false","5","3.45","","",""
"322.59999999403954","e","choice","left","e","practice","50","93717","0.0-4.0-8.5","true","6","3.85","","",""
"285.90000000596046","i","choice","right","i","practice","58","96295","0.0-4.0-8.6","true","7","3.85","","",""
"278.3999999985099","e","choice","left","e","practice","66","98855","0.0-4.0-8.7","true","8","3.65","","",""
"150.89999999850988","i","choice","right","i","practice","74","101291","0.0-4.0-8.8","true","9","3.65","","",""
"275","e","choice","left","e","practice","82","103858","0.0-4.0-8.9","true","10","3.4499999999999997","","",""
"250.19999999552965","e","choice","left","e","practice","90","106394","0.0-4.0-8.10","true","11","3.4499999999999997","","",""
"204.10000000149012","i","choice","right","i","practice","98","108878","0.0-4.0-8.11","true","12","3.3499999999999996","","",""
"264.29999999701977","e","choice","left","e","practice","106","111461","0.0-4.0-8.12","true","13","3.3499999999999996","","",""
"234.60000000149012","i","choice","right","i","practice","114","113993","0.0-4.0-8.13","true","14","3.2499999999999996","","",""
"343.1000000014901","i","choice","left","e","practice","122","116622","0.0-4.0-8.14","false","15","3.2499999999999996","","",""
"305","i","choice","right","i","practice","130","119210","0.0-4.0-8.15","true","16","3.3499999999999996","","",""
"143.10000000149012","e","choice","left","e","practice","138","121643","0.0-4.0-8.16","true","17","3.3499999999999996","","",""
"304.6000000014901","e","choice","right","i","practice","146","124236","0.0-4.0-8.17","false","18","3.2499999999999996","","",""
"233.89999999850988","i","choice","right","i","practice","154","126763","0.0-4.0-8.18","true","19","3.3499999999999996","","",""
"226.90000000596046","e","choice","left","e","practice","162","129271","0.0-4.0-8.19","true","20","3.3499999999999996","","",""
"288.5","e","choice","right","i","practice","170","131844","0.0-4.0-8.20","false","21","3.2499999999999996","","",""
"257","e","choice","left","e","practice","178","134392","0.0-4.0-8.21","true","22","3.3499999999999996","","",""
"386.1000000014901","i","choice","right","i","practice","186","137066","0.0-4.0-8.22","true","23","3.3499999999999996","","",""
"235.69999999552965","e","choice","left","e","practice","194","139588","0.0-4.0-8.23","true","24","3.2499999999999996","","",""
"93.29999999701977","e","choice","left","e","practice","202","141973","0.0-4.0-8.24","true","25","3.2499999999999996","","",""
"128.39999999850988","i","choice","right","i","practice","210","144393","0.0-4.0-8.25","true","26","3.1499999999999995","","",""
"315.8999999985099","i","choice","right","i","experimental","221","176118","0.0-4.0-8.26","true","27","3.1499999999999995","","",""
"6015.10000000149","2","confid","","","html-slider-response","223","182638","0.0-4.0-10.26-0.26","","","","Rate your confidence","1",""
"1120.1999999955297","i","choice","left","e","experimental","230","185540","0.0-4.0-8.27","false","28","3.0499999999999994","","",""
"3053.7999999970198","2","confid","","","html-slider-response","232","189096","0.0-4.0-10.27-0.27","","","","Rate your confidence","1",""
"347.59999999403954","i","choice","left","e","experimental","239","191222","0.0-4.0-8.28","false","29","3.1499999999999995","","",""
"2261","3","confid","","","html-slider-response","241","193987","0.0-4.0-10.28-0.28","","","","Rate your confidence","1",""
"385.6000000014901","i","choice","right","i","experimental","248","196151","0.0-4.0-8.29","true","30","3.2499999999999996","","",""
"2750","4","confid","","","html-slider-response","250","199405","0.0-4.0-10.29-0.29","","","","Rate your confidence","1",""
"700.1000000014901","i","choice","right","i","experimental","257","201894","0.0-4.0-8.30","true","31","3.2499999999999996","","",""
"2687.4000000059605","3","confid","","","html-slider-response","259","205101","0.0-4.0-10.30-0.30","","","","Rate your confidence","1",""
"368.1000000014901","e","choice","left","e","experimental","266","207256","0.0-4.0-8.31","true","32","3.1499999999999995","","",""
"2002.7000000029802","2","confid","","","html-slider-response","268","209763","0.0-4.0-10.31-0.31","","","","Rate your confidence","1",""
"281.1000000014901","i","choice","right","i","experimental","275","211834","0.0-4.0-8.32","true","33","3.1499999999999995","","",""
"2395.6999999955297","4","confid","","","html-slider-response","277","214746","0.0-4.0-10.32-0.32","","","","Rate your confidence","1",""
"288.5","i","choice","left","e","experimental","284","216818","0.0-4.0-8.33","false","34","3.0499999999999994","","",""
"3097.10000000149","4","confid","","","html-slider-response","286","220420","0.0-4.0-10.33-0.33","","","","Rate your confidence","1",""
"702.6999999955297","i","choice","right","i","experimental","293","222908","0.0-4.0-8.34","true","35","3.1499999999999995","","",""
"2368.1999999955297","3","confid","","","html-slider-response","295","225781","0.0-4.0-10.34-0.34","","","","Rate your confidence","1",""
"503.20000000298023","e","choice","left","e","experimental","302","228074","0.0-4.0-8.35","true","36","3.1499999999999995","","",""
"1970.3999999985099","2","confid","","","html-slider-response","304","230549","0.0-4.0-10.35-0.35","","","","Rate your confidence","1",""
"262.1000000014901","i","choice","left","e","experimental","311","232582","0.0-4.0-8.36","false","37","3.0499999999999994","","",""
"1840.0999999940395","3","confid","","","html-slider-response","313","234926","0.0-4.0-10.36-0.36","","","","Rate your confidence","1",""
"160.10000000149012","i","choice","right","i","experimental","320","236863","0.0-4.0-8.37","true","38","3.1499999999999995","","",""
"2334.4000000059605","5","confid","","","html-slider-response","322","239701","0.0-4.0-10.37-0.37","","","","Rate your confidence","1",""
"105.69999999552965","i","choice","right","i","experimental","329","241591","0.0-4.0-8.38","true","39","3.1499999999999995","","",""
"3072.39999999851","5","confid","","","html-slider-response","331","245168","0.0-4.0-10.38-0.38","","","","Rate your confidence","1",""
"347.30000000447035","e","choice","left","e","experimental","338","247299","0.0-4.0-8.39","true","40","3.0499999999999994","","",""
"2888.2000000029802","2","confid","","","html-slider-response","340","250693","0.0-4.0-10.39-0.39","","","","Rate your confidence","1",""
"263.29999999701977","i","choice","right","i","experimental","347","252742","0.0-4.0-8.40","true","41","3.0499999999999994","","",""
"1828.8999999985099","3","confid","","","html-slider-response","349","255074","0.0-4.0-10.40-0.40","","","","Rate your confidence","1",""
"279.8999999985099","i","choice","left","e","experimental","356","257134","0.0-4.0-8.41","false","42","2.9499999999999993","","",""
"1791.6999999955297","3","confid","","","html-slider-response","358","259431","0.0-4.0-10.41-0.41","","","","Rate your confidence","1",""
"139.39999999850988","i","choice","left","e","experimental","365","261355","0.0-4.0-8.42","false","43","3.0499999999999994","","",""
"4091.5","3","confid","","","html-slider-response","367","265952","0.0-4.0-10.42-0.42","","","","Rate your confidence","1",""
"154.60000000149012","i","choice","right","i","experimental","374","267904","0.0-4.0-8.43","true","44","3.1499999999999995","","",""
"2318.60000000149","3","confid","","","html-slider-response","376","270727","0.0-4.0-10.43-0.43","","","","Rate your confidence","1",""
"330.1000000014901","i","choice","right","i","experimental","383","272843","0.0-4.0-8.44","true","45","3.1499999999999995","","",""
"1897.4000000059605","4","confid","","","html-slider-response","385","275246","0.0-4.0-10.44-0.44","","","","Rate your confidence","1",""
"783.5999999940395","i","choice","left","e","experimental","392","277808","0.0-4.0-8.45","false","46","3.0499999999999994","","",""
"1737","2","confid","","","html-slider-response","394","280049","0.0-4.0-10.45-0.45","","","","Rate your confidence","1",""
"395.1000000014901","i","choice","right","i","experimental","401","282236","0.0-4.0-8.46","true","47","3.1499999999999995","","",""
"1785.1000000014901","2","confid","","","html-slider-response","403","284525","0.0-4.0-10.46-0.46","","","","Rate your confidence","1",""
"360.1000000014901","e","choice","left","e","experimental","410","286662","0.0-4.0-8.47","true","48","3.1499999999999995","","",""
"2112.8000000044703","2","confid","","","html-slider-response","412","289279","0.0-4.0-10.47-0.47","","","","Rate your confidence","1",""
"401.1000000014901","i","choice","left","e","experimental","419","291471","0.0-4.0-8.48","false","49","3.0499999999999994","","",""
"2057","2","confid","","","html-slider-response","421","294032","0.0-4.0-10.48-0.48","","","","Rate your confidence","1",""
"201.30000000447035","i","choice","right","i","experimental","428","296014","0.0-4.0-8.49","true","50","3.1499999999999995","","",""
"1788.7999999970198","4","confid","","","html-slider-response","430","298308","0.0-4.0-10.49-0.49","","","","Rate your confidence","1",""
"310.20000000298023","i","choice","right","i","experimental","437","300401","0.0-4.0-8.50","true","51","3.1499999999999995","","",""
"1991.7000000029802","5","confid","","","html-slider-response","439","302897","0.0-4.0-10.50-0.50","","","","Rate your confidence","1",""
"293.5","i","choice","left","e","experimental","446","304980","0.0-4.0-8.51","false","52","3.0499999999999994","","",""
"1609.8999999985099","2","confid","","","html-slider-response","448","307095","0.0-4.0-10.51-0.51","","","","Rate your confidence","1",""
"291.3999999985099","e","choice","left","e","experimental","455","309180","0.0-4.0-8.52","true","53","3.1499999999999995","","",""
"1751.2999999970198","1","confid","","","html-slider-response","457","311435","0.0-4.0-10.52-0.52","","","","Rate your confidence","1",""
"307.29999999701977","e","choice","right","i","experimental","464","313532","0.0-4.0-8.53","false","54","3.1499999999999995","","",""
"1524.3999999985099","1","confid","","","html-slider-response","466","315561","0.0-4.0-10.53-0.53","","","","Rate your confidence","1",""
"196.69999999552965","i","choice","right","i","experimental","473","317547","0.0-4.0-8.54","true","55","3.2499999999999996","","",""
"1472.7000000029802","3","confid","","","html-slider-response","475","319524","0.0-4.0-10.54-0.54","","","","Rate your confidence","1",""
"492.5","e","choice","left","e","experimental","482","321803","0.0-4.0-8.55","true","56","3.2499999999999996","","",""
"2132.60000000149","1","confid","","","html-slider-response","484","324449","0.0-4.0-10.55-0.55","","","","Rate your confidence","1",""
"559.8999999985099","i","choice","right","i","experimental","491","326793","0.0-4.0-8.56","true","57","3.1499999999999995","","",""
"1646.6000000014901","2","confid","","","html-slider-response","493","328945","0.0-4.0-10.56-0.56","","","","Rate your confidence","1",""
"472.3999999985099","e","choice","left","e","experimental","500","331206","0.0-4.0-8.57","true","58","3.1499999999999995","","",""
"1960","2","confid","","","html-slider-response","502","333670","0.0-4.0-10.57-0.57","","","","Rate your confidence","1",""
"261.1000000014901","i","choice","right","i","experimental","509","335709","0.0-4.0-8.58","true","59","3.0499999999999994","","",""
"1917.2999999970198","2","confid","","","html-slider-response","511","338131","0.0-4.0-10.58-0.58","","","","Rate your confidence","1",""
"220","i","choice","left","e","experimental","518","340135","0.0-4.0-8.59","false","60","3.0499999999999994","","",""
"2202.6999999955297","3","confid","","","html-slider-response","520","342841","0.0-4.0-10.59-0.59","","","","Rate your confidence","1",""
"40.79999999701977","i","choice","right","i","experimental","527","344663","0.0-4.0-8.60","true","61","3.1499999999999995","","",""
"1910.1000000014901","3","confid","","","html-slider-response","529","347089","0.0-4.0-10.60-0.60","","","","Rate your confidence","1",""
"106.70000000298023","e","choice","left","e","experimental","536","348980","0.0-4.0-8.61","true","62","3.1499999999999995","","",""
"1674.4000000059605","2","confid","","","html-slider-response","538","351158","0.0-4.0-10.61-0.61","","","","Rate your confidence","1",""
"18.5","i","choice","right","i","experimental","545","352960","0.0-4.0-8.62","true","63","3.0499999999999994","","",""
"3223.5","3","confid","","","html-slider-response","547","356688","0.0-4.0-10.62-0.62","","","","Rate your confidence","1",""
"418.80000000447035","i","choice","left","e","experimental","554","358899","0.0-4.0-8.63","false","64","3.0499999999999994","","",""
"1774.1000000014901","3","confid","","","html-slider-response","556","361178","0.0-4.0-10.63-0.63","","","","Rate your confidence","1",""
"252.60000000149012","e","choice","left","e","experimental","563","363221","0.0-4.0-8.64","true","65","3.1499999999999995","","",""
"2397.4000000059605","4","confid","","","html-slider-response","565","366123","0.0-4.0-10.64-0.64","","","","Rate your confidence","1",""
"374.1000000014901","i","choice","right","i","experimental","572","368287","0.0-4.0-8.65","true","66","3.1499999999999995","","",""
"1627.7000000029802","4","confid","","","html-slider-response","574","370420","0.0-4.0-10.65-0.65","","","","Rate your confidence","1",""
"1103.8999999985099","i","choice","left","e","experimental","581","373307","0.0-4.0-8.66","false","67","3.0499999999999994","","",""
"1561.4000000059605","2","confid","","","html-slider-response","583","375373","0.0-4.0-10.66-0.66","","","","Rate your confidence","1",""
"275.1000000014901","i","choice","right","i","experimental","590","377432","0.0-4.0-8.67","true","68","3.1499999999999995","","",""
"3002.5","5","confid","","","html-slider-response","592","380939","0.0-4.0-10.67-0.67","","","","Rate your confidence","1",""
"285.79999999701977","e","choice","left","e","experimental","600","427212","0.0-4.0-8.68","true","69","3.1499999999999995","","",""
"3531.10000000149","3","confid","","","html-slider-response","602","431247","0.0-4.0-10.68-0.68","","","","Rate your confidence","1",""
"271.1000000014901","i","choice","right","i","experimental","609","433307","0.0-4.0-8.69","true","70","3.0499999999999994","","",""
"1847.3999999985099","3","confid","","","html-slider-response","611","435659","0.0-4.0-10.69-0.69","","","","Rate your confidence","1",""
"467","i","choice","left","e","experimental","618","437915","0.0-4.0-8.70","false","71","3.0499999999999994","","",""
"1851.7999999970198","2","confid","","","html-slider-response","620","440277","0.0-4.0-10.70-0.70","","","","Rate your confidence","1",""
"96.60000000149012","i","choice","right","i","experimental","627","442163","0.0-4.0-8.71","true","72","3.1499999999999995","","",""
"2063.60000000149","5","confid","","","html-slider-response","629","444731","0.0-4.0-10.71-0.71","","","","Rate your confidence","1",""
"399.20000000298023","i","choice","right","i","experimental","636","446915","0.0-4.0-8.72","true","73","3.1499999999999995","","",""
"2590.39999999851","3","confid","","","html-slider-response","638","450018","0.0-4.0-10.72-0.72","","","","Rate your confidence","1",""
"934.3999999985099","i","choice","left","e","experimental","645","452734","0.0-4.0-8.73","false","74","3.0499999999999994","","",""
"1922.1000000014901","2","confid","","","html-slider-response","647","455161","0.0-4.0-10.73-0.73","","","","Rate your confidence","1",""
"117.29999999701977","i","choice","right","i","experimental","654","457061","0.0-4.0-8.74","true","75","3.1499999999999995","","",""
"2237.7000000029802","4","confid","","","html-slider-response","656","459802","0.0-4.0-10.74-0.74","","","","Rate your confidence","1",""
"1322.7999999970198","e","choice","left","e","experimental","663","462915","0.0-4.0-8.75","true","76","3.1499999999999995","","",""
"1569","1","confid","","","html-slider-response","665","464989","0.0-4.0-10.75-0.75","","","","Rate your confidence","1",""
"255.60000000149012","i","choice","right","i","experimental","672","467026","0.0-4.0-8.76","true","77","3.0499999999999994","","",""
"2160.60000000149","6","confid","","","html-slider-response","674","469692","0.0-4.0-10.76-0.76","","","","Rate your confidence","1",""
"704.1000000014901","i","choice","left","e","experimental","681","472176","0.0-4.0-8.77","false","78","3.0499999999999994","","",""
"1563.5","3","confid","","","html-slider-response","683","474245","0.0-4.0-10.77-0.77","","","","Rate your confidence","1",""
"414","e","choice","left","e","experimental","690","476442","0.0-4.0-8.78","true","79","3.1499999999999995","","",""
"2029.2999999970198","2","confid","","","html-slider-response","692","478977","0.0-4.0-10.78-0.78","","","","Rate your confidence","1",""
"153.40000000596046","i","choice","right","i","experimental","699","480915","0.0-4.0-8.79","true","80","3.1499999999999995","","",""
"1788.5999999940395","5","confid","","","html-slider-response","701","483208","0.0-4.0-10.79-0.79","","","","Rate your confidence","1",""
"157.89999999850988","e","choice","left","e","experimental","708","485162","0.0-4.0-8.80","true","81","3.0499999999999994","","",""
"1632.8000000044703","2","confid","","","html-slider-response","710","487299","0.0-4.0-10.80-0.80","","","","Rate your confidence","1",""
"270.30000000447035","i","choice","right","i","experimental","717","489362","0.0-4.0-8.81","true","82","3.0499999999999994","","",""
"2049.2000000029802","4","confid","","","html-slider-response","719","491916","0.0-4.0-10.81-0.81","","","","Rate your confidence","1",""
"227.89999999850988","i","choice","right","i","experimental","726","493930","0.0-4.0-8.82","true","83","2.9499999999999993","","",""
"1742.6000000014901","5","confid","","","html-slider-response","728","496177","0.0-4.0-10.82-0.82","","","","Rate your confidence","1",""
"330.19999999552965","e","choice","left","e","experimental","735","498292","0.0-4.0-8.83","true","84","2.9499999999999993","","",""
"2581.5","4","confid","","","html-slider-response","737","501379","0.0-4.0-10.83-0.83","","","","Rate your confidence","1",""
"209","i","choice","right","i","experimental","744","503373","0.0-4.0-8.84","true","85","2.849999999999999","","",""
"2274.7000000029802","3","confid","","","html-slider-response","746","506152","0.0-4.0-10.84-0.84","","","","Rate your confidence","1",""
"413","i","choice","left","e","experimental","753","508357","0.0-4.0-8.85","false","86","2.849999999999999","","",""
"1765.1000000014901","2","confid","","","html-slider-response","755","510627","0.0-4.0-10.85-0.85","","","","Rate your confidence","1",""
"142.29999999701977","i","choice","right","i","experimental","762","512553","0.0-4.0-8.86","true","87","2.9499999999999993","","",""
"2284.89999999851","3","confid","","","html-slider-response","764","515342","0.0-4.0-10.86-0.86","","","","Rate your confidence","1",""
"857.9000000059605","i","choice","left","e","experimental","771","517989","0.0-4.0-8.87","false","88","2.9499999999999993","","",""
"1701.5","2","confid","","","html-slider-response","773","520195","0.0-4.0-10.87-0.87","","","","Rate your confidence","1",""
"253.20000000298023","e","choice","left","e","experimental","780","522231","0.0-4.0-8.88","true","89","3.0499999999999994","","",""
"2515.5","4","confid","","","html-slider-response","782","525260","0.0-4.0-10.88-0.88","","","","Rate your confidence","1",""
"351.3999999985099","i","choice","right","i","experimental","789","527396","0.0-4.0-8.89","true","90","3.0499999999999994","","",""
"1798","3","confid","","","html-slider-response","791","529699","0.0-4.0-10.89-0.89","","","","Rate your confidence","1",""
"267.80000000447035","i","choice","right","i","experimental","798","531753","0.0-4.0-8.90","true","91","2.9499999999999993","","",""
"1671.7999999970198","5","confid","","","html-slider-response","800","533930","0.0-4.0-10.90-0.90","","","","Rate your confidence","1",""
"314.29999999701977","e","choice","left","e","experimental","807","536036","0.0-4.0-8.91","true","92","2.9499999999999993","","",""
"2796.7999999970198","2","confid","","","html-slider-response","809","539337","0.0-4.0-10.91-0.91","","","","Rate your confidence","1",""
"357.09999999403954","i","choice","left","e","experimental","816","541484","0.0-4.0-8.92","false","93","2.849999999999999","","",""
"1829.5999999940395","1","confid","","","html-slider-response","818","543819","0.0-4.0-10.92-0.92","","","","Rate your confidence","1",""
"334","i","choice","right","i","experimental","825","545936","0.0-4.0-8.93","true","94","2.9499999999999993","","",""
"1936.6000000014901","4","confid","","","html-slider-response","827","548386","0.0-4.0-10.93-0.93","","","","Rate your confidence","1",""
"50.399999998509884","e","choice","left","e","experimental","834","550221","0.0-4.0-8.94","true","95","2.9499999999999993","","",""
"2134.39999999851","6","confid","","","html-slider-response","836","552859","0.0-4.0-10.94-0.94","","","","Rate your confidence","1",""
"286","i","choice","right","i","experimental","843","554931","0.0-4.0-8.95","true","96","2.849999999999999","","",""
"2303.60000000149","6","confid","","","html-slider-response","845","557740","0.0-4.0-10.95-0.95","","","","Rate your confidence","1",""
"210.10000000149012","i","choice","right","i","experimental","852","559735","0.0-4.0-8.96","true","97","2.849999999999999","","",""
"1831.1999999955297","5","confid","","","html-slider-response","854","562070","0.0-4.0-10.96-0.96","","","","Rate your confidence","1",""
"355.69999999552965","e","choice","left","e","experimental","861","564212","0.0-4.0-8.97","true","98","2.749999999999999","","",""
"1620.5","3","confid","","","html-slider-response","863","566337","0.0-4.0-10.97-0.97","","","","Rate your confidence","1",""
"106.39999999850988","i","choice","right","i","experimental","870","568233","0.0-4.0-8.98","true","99","2.749999999999999","","",""
"1459.6999999955297","3","confid","","","html-slider-response","872","570199","0.0-4.0-10.98-0.98","","","","Rate your confidence","1",""
"381.19999999552965","i","choice","left","e","experimental","879","572364","0.0-4.0-8.99","false","100","2.649999999999999","","",""
"1525.9000000059605","3","confid","","","html-slider-response","881","574395","0.0-4.0-10.99-0.99","","","","Rate your confidence","1",""
"186.5","e","choice","left","e","experimental","888","576363","0.0-4.0-8.100","true","101","2.749999999999999","","",""
"1581.1999999955297","4","confid","","","html-slider-response","890","578449","0.0-4.0-10.100-0.100","","","","Rate your confidence","1",""
"408.69999999552965","e","choice","right","i","experimental","897","580636","0.0-4.0-8.101","false","102","2.749999999999999","","",""
"1502.6999999955297","2","confid","","","html-slider-response","899","582644","0.0-4.0-10.101-0.101","","","","Rate your confidence","1",""
"129.10000000149012","i","choice","right","i","experimental","906","584559","0.0-4.0-8.102","true","103","2.849999999999999","","",""
"1756.6000000014901","3","confid","","","html-slider-response","908","586819","0.0-4.0-10.102-0.102","","","","Rate your confidence","1",""
"153.20000000298023","e","choice","left","e","experimental","915","588761","0.0-4.0-8.103","true","104","2.849999999999999","","",""
"2182.9000000059605","5","confid","","","html-slider-response","917","591449","0.0-4.0-10.103-0.103","","","","Rate your confidence","1",""
"210.59999999403954","i","choice","right","i","experimental","924","593440","0.0-4.0-8.104","true","105","2.749999999999999","","",""
"2413","6","confid","","","html-slider-response","926","596357","0.0-4.0-10.104-0.104","","","","Rate your confidence","1",""
"130.80000000447035","e","choice","left","e","experimental","933","598274","0.0-4.0-8.105","true","106","2.749999999999999","","",""
"1595.6999999955297","5","confid","","","html-slider-response","935","600375","0.0-4.0-10.105-0.105","","","","Rate your confidence","1",""
"143","e","choice","left","e","experimental","942","602308","0.0-4.0-8.106","true","107","2.649999999999999","","",""
"1922","3","confid","","","html-slider-response","944","604735","0.0-4.0-10.106-0.106","","","","Rate your confidence","1",""
"223.39999999850988","e","choice","right","i","experimental","951","606746","0.0-4.0-8.107","false","108","2.649999999999999","","",""
"2106.39999999851","2","confid","","","html-slider-response","953","609358","0.0-4.0-10.107-0.107","","","","Rate your confidence","1",""
"469.5","i","choice","right","i","experimental","960","611621","0.0-4.0-8.108","true","109","2.749999999999999","","",""
"2539.10000000149","3","confid","","","html-slider-response","962","614665","0.0-4.0-10.108-0.108","","","","Rate your confidence","1",""
"431","e","choice","left","e","experimental","969","616882","0.0-4.0-8.109","true","110","2.749999999999999","","",""
"4928.39999999851","4","confid","","","html-slider-response","971","622315","0.0-4.0-10.109-0.109","","","","Rate your confidence","1",""
"902.6000000014901","e","choice","left","e","experimental","979","650482","0.0-4.0-8.110","true","111","2.649999999999999","","",""
"1941","2","confid","","","html-slider-response","981","652928","0.0-4.0-10.110-0.110","","","","Rate your confidence","1",""
"285.6000000014901","i","choice","right","i","experimental","988","655005","0.0-4.0-8.111","true","112","2.649999999999999","","",""
"2560.39999999851","2","confid","","","html-slider-response","990","658070","0.0-4.0-10.111-0.111","","","","Rate your confidence","1",""
"235.09999999403954","i","choice","right","i","experimental","997","660089","0.0-4.0-8.112","true","113","2.549999999999999","","",""
"2562.89999999851","3","confid","","","html-slider-response","999","663156","0.0-4.0-10.112-0.112","","","","Rate your confidence","1",""
"228.39999999850988","e","choice","left","e","experimental","1006","665170","0.0-4.0-8.113","true","114","2.549999999999999","","",""
"2189.5","5","confid","","","html-slider-response","1008","667864","0.0-4.0-10.113-0.113","","","","Rate your confidence","1",""
"192.79999999701977","e","choice","left","e","experimental","1015","669843","0.0-4.0-8.114","true","115","2.449999999999999","","",""
"3135.89999999851","3","confid","","","html-slider-response","1017","673484","0.0-4.0-10.114-0.114","","","","Rate your confidence","1",""
"556.8999999985099","i","choice","right","i","experimental","1024","675830","0.0-4.0-8.115","true","116","2.449999999999999","","",""
"1978.5","2","confid","","","html-slider-response","1026","678313","0.0-4.0-10.115-0.115","","","","Rate your confidence","1",""
"456.3999999985099","i","choice","left","e","experimental","1033","680554","0.0-4.0-8.116","false","117","2.3499999999999988","","",""
"1741.3000000044703","2","confid","","","html-slider-response","1035","682801","0.0-4.0-10.116-0.116","","","","Rate your confidence","1",""
"539.1000000014901","i","choice","right","i","experimental","1042","685135","0.0-4.0-8.117","true","118","2.449999999999999","","",""
"1749.6000000014901","2","confid","","","html-slider-response","1044","687388","0.0-4.0-10.117-0.117","","","","Rate your confidence","1",""
"69.29999999701977","i","choice","right","i","experimental","1051","689250","0.0-4.0-8.118","true","119","2.449999999999999","","",""
"1593.2000000029802","4","confid","","","html-slider-response","1053","691348","0.0-4.0-10.118-0.118","","","","Rate your confidence","1",""
"292.1000000014901","e","choice","left","e","experimental","1060","693426","0.0-4.0-8.119","true","120","2.3499999999999988","","",""
"1625.5","1","confid","","","html-slider-response","1062","695556","0.0-4.0-10.119-0.119","","","","Rate your confidence","1",""
"284.5","i","choice","left","e","experimental","1069","697626","0.0-4.0-8.120","false","121","2.3499999999999988","","",""
"1749.9000000059605","4","confid","","","html-slider-response","1071","699881","0.0-4.0-10.120-0.120","","","","Rate your confidence","1",""
"428.19999999552965","i","choice","right","i","experimental","1078","702104","0.0-4.0-8.121","true","122","2.449999999999999","","",""
"1681.6000000014901","2","confid","","","html-slider-response","1080","704291","0.0-4.0-10.121-0.121","","","","Rate your confidence","1",""
"414.20000000298023","i","choice","left","e","experimental","1087","706491","0.0-4.0-8.122","false","123","2.449999999999999","","",""
"1619.2999999970198","3","confid","","","html-slider-response","1089","708614","0.0-4.0-10.122-0.122","","","","Rate your confidence","1",""
"260.5","i","choice","right","i","experimental","1096","710667","0.0-4.0-8.123","true","124","2.549999999999999","","",""
"2115.7999999970198","3","confid","","","html-slider-response","1098","713287","0.0-4.0-10.123-0.123","","","","Rate your confidence","1",""
"179.89999999850988","i","choice","right","i","experimental","1105","715249","0.0-4.0-8.124","true","125","2.549999999999999","","",""
"2181.2999999970198","3","confid","","","html-slider-response","1107","717945","0.0-4.0-10.124-0.124","","","","Rate your confidence","1",""
"221.60000000149012","i","choice","left","e","experimental","1114","719953","0.0-4.0-8.125","false","126","2.449999999999999","","",""
"1547.8000000044703","4","confid","","","html-slider-response","1116","722005","0.0-4.0-10.125-0.125","","","","Rate your confidence","1",""
"252.59999999403954","i","choice","right","i","experimental","1123","724049","0.0-4.0-8.126","true","127","2.549999999999999","","",""
"1959.2999999970198","4","confid","","","html-slider-response","1125","726514","0.0-4.0-10.126-0.126","","","","Rate your confidence","1",""
"513.4000000059605","e","choice","left","e","experimental","1132","728817","0.0-4.0-8.127","true","128","2.549999999999999","","",""
"1621.5","2","confid","","","html-slider-response","1134","730943","0.0-4.0-10.127-0.127","","","","Rate your confidence","1",""
"231.70000000298023","i","choice","left","e","experimental","1141","732963","0.0-4.0-8.128","false","129","2.449999999999999","","",""
"2113","2","confid","","","html-slider-response","1143","735580","0.0-4.0-10.128-0.128","","","","Rate your confidence","1",""
"511.6000000014901","i","choice","right","i","experimental","1150","737876","0.0-4.0-8.129","true","130","2.549999999999999","","",""
"1827.3000000044703","2","confid","","","html-slider-response","1152","740209","0.0-4.0-10.129-0.129","","","","Rate your confidence","1",""
"404","e","choice","left","e","experimental","1159","742399","0.0-4.0-8.130","true","131","2.549999999999999","","",""
"1422.5","2","confid","","","html-slider-response","1161","744326","0.0-4.0-10.130-0.130","","","","Rate your confidence","1",""
"320.5","e","choice","right","i","experimental","1168","746435","0.0-4.0-8.131","false","132","2.449999999999999","","",""
"2036.5","2","confid","","","html-slider-response","1170","748977","0.0-4.0-10.131-0.131","","","","Rate your confidence","1",""
"200.29999999701977","e","choice","left","e","experimental","1177","750962","0.0-4.0-8.132","true","133","2.549999999999999","","",""
"2081.7999999970198","3","confid","","","html-slider-response","1179","753550","0.0-4.0-10.132-0.132","","","","Rate your confidence","1",""
"98.89999999850988","i","choice","right","i","experimental","1186","755435","0.0-4.0-8.133","true","134","2.549999999999999","","",""
"1932.5","4","confid","","","html-slider-response","1188","757880","0.0-4.0-10.133-0.133","","","","Rate your confidence","1",""
"545.7000000029802","i","choice","left","e","experimental","1195","760209","0.0-4.0-8.134","false","135","2.449999999999999","","",""
"1853.2999999970198","1","confid","","","html-slider-response","1197","762567","0.0-4.0-10.134-0.134","","","","Rate your confidence","1",""
"408","i","choice","right","i","experimental","1204","764762","0.0-4.0-8.135","true","136","2.549999999999999","","",""
"3517.5","1","confid","","","html-slider-response","1206","768785","0.0-4.0-10.135-0.135","","","","Rate your confidence","1",""
"287.20000000298023","e","choice","right","i","experimental","1213","770867","0.0-4.0-8.136","false","137","2.549999999999999","","",""
"2105.39999999851","5","confid","","","html-slider-response","1215","773479","0.0-4.0-10.136-0.136","","","","Rate your confidence","1",""
"156.5","e","choice","left","e","experimental","1222","775430","0.0-4.0-8.137","true","138","2.649999999999999","","",""
"1909.6999999955297","5","confid","","","html-slider-response","1224","777844","0.0-4.0-10.137-0.137","","","","Rate your confidence","1",""
"127.30000000447035","i","choice","left","e","experimental","1231","779757","0.0-4.0-8.138","false","139","2.649999999999999","","",""
"2282.89999999851","5","confid","","","html-slider-response","1233","782545","0.0-4.0-10.138-0.138","","","","Rate your confidence","1",""
"3","i","choice","right","i","experimental","1240","784335","0.0-4.0-8.139","true","140","2.749999999999999","","",""
"2740.9000000059605","4","confid","","","html-slider-response","1242","787580","0.0-4.0-10.139-0.139","","","","Rate your confidence","1",""
"90.59999999403954","i","choice","left","e","experimental","1249","789460","0.0-4.0-8.140","false","141","2.749999999999999","","",""
"1739.2999999970198","2","confid","","","html-slider-response","1251","791705","0.0-4.0-10.140-0.140","","","","Rate your confidence","1",""
"179.60000000149012","i","choice","right","i","experimental","1258","793677","0.0-4.0-8.141","true","142","2.849999999999999","","",""
"1882.3999999985099","4","confid","","","html-slider-response","1260","796064","0.0-4.0-10.141-0.141","","","","Rate your confidence","1",""
"76.20000000298023","e","choice","left","e","experimental","1267","797922","0.0-4.0-8.142","true","143","2.849999999999999","","",""
"1826.5","4","confid","","","html-slider-response","1269","800252","0.0-4.0-10.142-0.142","","","","Rate your confidence","1",""
"361.19999999552965","i","choice","right","i","experimental","1276","802401","0.0-4.0-8.143","true","144","2.749999999999999","","",""
"1833.3000000044703","2","confid","","","html-slider-response","1278","804739","0.0-4.0-10.143-0.143","","","","Rate your confidence","1",""
"60","i","choice","left","e","experimental","1285","806583","0.0-4.0-8.144","false","145","2.749999999999999","","",""
"1553.3999999985099","2","confid","","","html-slider-response","1287","808642","0.0-4.0-10.144-0.144","","","","Rate your confidence","1",""
"881.3999999985099","i","choice","right","i","experimental","1294","811310","0.0-4.0-8.145","true","146","2.849999999999999","","",""
"1513.5","3","confid","","","html-slider-response","1296","813329","0.0-4.0-10.145-0.145","","","","Rate your confidence","1",""
"239.19999999552965","e","choice","left","e","experimental","1303","815361","0.0-4.0-8.146","true","147","2.849999999999999","","",""
"1771.5","5","confid","","","html-slider-response","1305","817638","0.0-4.0-10.146-0.146","","","","Rate your confidence","1",""
"281.90000000596046","i","choice","right","i","experimental","1312","819707","0.0-4.0-8.147","true","148","2.749999999999999","","",""
"2069.2999999970198","4","confid","","","html-slider-response","1314","822282","0.0-4.0-10.147-0.147","","","","Rate your confidence","1",""
"276.6000000014901","e","choice","left","e","experimental","1321","824342","0.0-4.0-8.148","true","149","2.749999999999999","","",""
"1878.7999999970198","2","confid","","","html-slider-response","1323","826726","0.0-4.0-10.148-0.148","","","","Rate your confidence","1",""
"324.69999999552965","i","choice","right","i","experimental","1330","828839","0.0-4.0-8.149","true","150","2.649999999999999","","",""
"2089.2999999970198","3","confid","","","html-slider-response","1332","831434","0.0-4.0-10.149-0.149","","","","Rate your confidence","1",""
"144","e","choice","left","e","experimental","1339","833366","0.0-4.0-8.150","true","151","2.649999999999999","","",""
"1580.2999999970198","2","confid","","","html-slider-response","1341","835450","0.0-4.0-10.150-0.150","","","","Rate your confidence","1",""
"150.40000000596046","i","choice","right","i","experimental","1348","837386","0.0-4.0-8.151","true","152","2.549999999999999","","",""
"2928.5","2","confid","","","html-slider-response","1350","840820","0.0-4.0-10.151-0.151","","","","Rate your confidence","1",""
"255.30000000447035","e","choice","left","e","experimental","1358","869000","0.0-4.0-8.152","true","153","2.549999999999999","","",""
"1744.2999999970198","3","confid","","","html-slider-response","1360","871249","0.0-4.0-10.152-0.152","","","","Rate your confidence","1",""
"430","i","choice","right","i","experimental","1367","873463","0.0-4.0-8.153","true","154","2.449999999999999","","",""
"2116.7000000029802","2","confid","","","html-slider-response","1369","876085","0.0-4.0-10.153-0.153","","","","Rate your confidence","1",""
"79.70000000298023","i","choice","right","i","experimental","1376","877940","0.0-4.0-8.154","true","155","2.449999999999999","","",""
"2925.5","2","confid","","","html-slider-response","1378","881369","0.0-4.0-10.154-0.154","","","","Rate your confidence","1",""
"384.30000000447035","e","choice","left","e","experimental","1385","883543","0.0-4.0-8.155","true","156","2.3499999999999988","","",""
"1764.4000000059605","2","confid","","","html-slider-response","1387","885813","0.0-4.0-10.155-0.155","","","","Rate your confidence","1",""
"620","i","choice","left","e","experimental","1394","888222","0.0-4.0-8.156","false","157","2.3499999999999988","","",""
"1929.2000000029802","1","confid","","","html-slider-response","1396","890656","0.0-4.0-10.156-0.156","","","","Rate your confidence","1",""
"247.39999999850988","i","choice","right","i","experimental","1403","892693","0.0-4.0-8.157","true","158","2.449999999999999","","",""
"1725.2000000029802","2","confid","","","html-slider-response","1405","894922","0.0-4.0-10.157-0.157","","","","Rate your confidence","1",""
"179.39999999850988","e","choice","left","e","experimental","1412","896885","0.0-4.0-8.158","true","159","2.449999999999999","","",""
"1691","2","confid","","","html-slider-response","1414","899081","0.0-4.0-10.158-0.158","","","","Rate your confidence","1",""
"261.20000000298023","e","choice","right","i","experimental","1421","901126","0.0-4.0-8.159","false","160","2.3499999999999988","","",""
"1922","1","confid","","","html-slider-response","1423","903554","0.0-4.0-10.159-0.159","","","","Rate your confidence","1",""
"132.60000000149012","i","choice","left","e","experimental","1430","905478","0.0-4.0-8.160","false","161","2.449999999999999","","",""
"1765","1","confid","","","html-slider-response","1432","907748","0.0-4.0-10.160-0.160","","","","Rate your confidence","1",""
"237","i","choice","right","i","experimental","1439","909779","0.0-4.0-8.161","true","162","2.549999999999999","","",""
"2142.89999999851","4","confid","","","html-slider-response","1441","912427","0.0-4.0-10.161-0.161","","","","Rate your confidence","1",""
"197.89999999850988","i","choice","right","i","experimental","1448","914413","0.0-4.0-8.162","true","163","2.549999999999999","","",""
"1947.1999999955297","3","confid","","","html-slider-response","1450","916865","0.0-4.0-10.162-0.162","","","","Rate your confidence","1",""
"348.70000000298023","e","choice","left","e","experimental","1457","919001","0.0-4.0-8.163","true","164","2.449999999999999","","",""
"1715.6000000014901","3","confid","","","html-slider-response","1459","921222","0.0-4.0-10.163-0.163","","","","Rate your confidence","1",""
"74.69999999552965","e","choice","left","e","experimental","1466","923091","0.0-4.0-8.164","true","165","2.449999999999999","","",""
"2298.1999999955297","5","confid","","","html-slider-response","1468","925894","0.0-4.0-10.164-0.164","","","","Rate your confidence","1",""
"358.8999999985099","i","choice","right","i","experimental","1475","928046","0.0-4.0-8.165","true","166","2.3499999999999988","","",""
"2184.2000000029802","3","confid","","","html-slider-response","1477","930737","0.0-4.0-10.165-0.165","","","","Rate your confidence","1",""
"356.8999999985099","i","choice","right","i","experimental","1484","932881","0.0-4.0-8.166","true","167","2.3499999999999988","","",""
"1672.1999999955297","4","confid","","","html-slider-response","1486","935058","0.0-4.0-10.166-0.166","","","","Rate your confidence","1",""
"236.10000000149012","e","choice","left","e","experimental","1493","937076","0.0-4.0-8.167","true","168","2.2499999999999987","","",""
"2327.10000000149","5","confid","","","html-slider-response","1495","939909","0.0-4.0-10.167-0.167","","","","Rate your confidence","1",""
"179.59999999403954","e","choice","left","e","experimental","1502","941886","0.0-4.0-8.168","true","169","2.2499999999999987","","",""
"2289.89999999851","6","confid","","","html-slider-response","1504","944681","0.0-4.0-10.168-0.168","","","","Rate your confidence","1",""
"386.29999999701977","i","choice","right","i","experimental","1511","946855","0.0-4.0-8.169","true","170","2.1499999999999986","","",""
"2318.6999999955297","4","confid","","","html-slider-response","1513","949679","0.0-4.0-10.169-0.169","","","","Rate your confidence","1",""
"104.60000000149012","e","choice","left","e","experimental","1520","951574","0.0-4.0-8.170","true","171","2.1499999999999986","","",""
"1815.1999999955297","2","confid","","","html-slider-response","1522","953895","0.0-4.0-10.170-0.170","","","","Rate your confidence","1",""
"406.5","i","choice","right","i","experimental","1529","956090","0.0-4.0-8.171","true","172","2.0499999999999985","","",""
"1644.3999999985099","2","confid","","","html-slider-response","1531","958239","0.0-4.0-10.171-0.171","","","","Rate your confidence","1",""
"431.5","i","choice","left","e","experimental","1538","960458","0.0-4.0-8.172","false","173","2.0499999999999985","","",""
"1805.6999999955297","2","confid","","","html-slider-response","1540","962768","0.0-4.0-10.172-0.172","","","","Rate your confidence","1",""
"141.89999999850988","i","choice","right","i","experimental","1547","964699","0.0-4.0-8.173","true","174","2.1499999999999986","","",""
"1474.1000000014901","5","confid","","","html-slider-response","1549","966678","0.0-4.0-10.173-0.173","","","","Rate your confidence","1",""
"403.1000000014901","i","choice","left","e","experimental","1556","968875","0.0-4.0-8.174","false","175","2.1499999999999986","","",""
"1478","3","confid","","","html-slider-response","1558","970858","0.0-4.0-10.174-0.174","","","","Rate your confidence","1",""
"170.69999999552965","e","choice","right","i","experimental","1565","972814","0.0-4.0-8.175","false","176","2.2499999999999987","","",""
"3121.2999999970198","4","confid","","","html-slider-response","1567","976441","0.0-4.0-10.175-0.175","","","","Rate your confidence","1",""
"556.2999999970198","i","choice","right","i","experimental","1574","978778","0.0-4.0-8.176","true","177","2.3499999999999988","","",""
"1579.3999999985099","2","confid","","","html-slider-response","1576","980863","0.0-4.0-10.176-0.176","","","","Rate your confidence","1",""
"580.1999999955297","e","choice","left","e","experimental","1583","983236","0.0-4.0-8.177","true","178","2.3499999999999988","","",""
"1500.8999999985099","3","confid","","","html-slider-response","1585","985243","0.0-4.0-10.177-0.177","","","","Rate your confidence","1",""
"207.59999999403954","e","choice","left","e","experimental","1592","987250","0.0-4.0-8.178","true","179","2.2499999999999987","","",""
"1781.1000000014901","1","confid","","","html-slider-response","1594","989537","0.0-4.0-10.178-0.178","","","","Rate your confidence","1",""
"58.100000001490116","i","choice","right","i","experimental","1601","991380","0.0-4.0-8.179","true","180","2.2499999999999987","","",""
"2001.7999999970198","5","confid","","","html-slider-response","1603","993888","0.0-4.0-10.179-0.179","","","","Rate your confidence","1",""
"351.70000000298023","i","choice","right","i","experimental","1610","996025","0.0-4.0-8.180","true","181","2.1499999999999986","","",""
"5949.39999999851","3","confid","","","html-slider-response","1612","1002483","0.0-4.0-10.180-0.180","","","","Rate your confidence","1",""
"600.7000000029802","i","choice","left","e","experimental","1619","1004871","0.0-4.0-8.181","false","182","2.1499999999999986","","",""
"1990.8000000044703","1","confid","","","html-slider-response","1621","1007367","0.0-4.0-10.181-0.181","","","","Rate your confidence","1",""
"274.70000000298023","i","choice","right","i","experimental","1628","1009424","0.0-4.0-8.182","true","183","2.2499999999999987","","",""
"1753.6000000014901","1","confid","","","html-slider-response","1630","1011683","0.0-4.0-10.182-0.182","","","","Rate your confidence","1",""
"284.19999999552965","i","choice","left","e","experimental","1637","1013764","0.0-4.0-8.183","false","184","2.2499999999999987","","",""
"4491.60000000149","1","confid","","","html-slider-response","1639","1018761","0.0-4.0-10.183-0.183","","","","Rate your confidence","1",""
"463.80000000447035","i","choice","right","i","experimental","1646","1021015","0.0-4.0-8.184","true","185","2.3499999999999988","","",""
"1742","2","confid","","","html-slider-response","1648","1023275","0.0-4.0-10.184-0.184","","","","Rate your confidence","1",""
"217.80000000447035","e","choice","left","e","experimental","1655","1025280","0.0-4.0-8.185","true","186","2.3499999999999988","","",""
"1639.7999999970198","4","confid","","","html-slider-response","1657","1027426","0.0-4.0-10.185-0.185","","","","Rate your confidence","1",""
"257.70000000298023","e","choice","right","i","experimental","1664","1029467","0.0-4.0-8.186","false","187","2.2499999999999987","","",""
"2004.1999999955297","5","confid","","","html-slider-response","1666","1031977","0.0-4.0-10.186-0.186","","","","Rate your confidence","1",""
"339.20000000298023","i","choice","left","e","experimental","1673","1034099","0.0-4.0-8.187","false","188","2.3499999999999988","","",""
"1737.2999999970198","2","confid","","","html-slider-response","1675","1036342","0.0-4.0-10.187-0.187","","","","Rate your confidence","1",""
"359.5","i","choice","right","i","experimental","1682","1038491","0.0-4.0-8.188","true","189","2.449999999999999","","",""
"1883.6000000014901","1","confid","","","html-slider-response","1684","1040879","0.0-4.0-10.188-0.188","","","","Rate your confidence","1",""
"297.20000000298023","i","choice","left","e","experimental","1691","1042963","0.0-4.0-8.189","false","190","2.449999999999999","","",""
"1631.3999999985099","2","confid","","","html-slider-response","1693","1045101","0.0-4.0-10.189-0.189","","","","Rate your confidence","1",""
"223.5","e","choice","right","i","experimental","1700","1047114","0.0-4.0-8.190","false","191","2.549999999999999","","",""
"1840","1","confid","","","html-slider-response","1702","1049459","0.0-4.0-10.190-0.190","","","","Rate your confidence","1",""
"107.89999999850988","e","choice","left","e","experimental","1709","1051355","0.0-4.0-8.191","true","192","2.649999999999999","","",""
"2889.4000000059605","5","confid","","","html-slider-response","1711","1054750","0.0-4.0-10.191-0.191","","","","Rate your confidence","1",""
"229.69999999552965","e","choice","left","e","experimental","1718","1056771","0.0-4.0-8.192","true","193","2.649999999999999","","",""
"1811.8999999985099","2","confid","","","html-slider-response","1720","1059087","0.0-4.0-10.192-0.192","","","","Rate your confidence","1",""
"297.29999999701977","i","choice","right","i","experimental","1727","1061179","0.0-4.0-8.193","true","194","2.549999999999999","","",""
"1974.5","4","confid","","","html-slider-response","1729","1063659","0.0-4.0-10.193-0.193","","","","Rate your confidence","1","29409"
