"rt","response","task","target_side","correct_response","trial_type","trial_index","time_elapsed","internal_node_id","correct","trial_number","n_dots","stimulus","slider_start","participant"
"3217.4000000953674","e","choice","right","i","practice","10","80784","0.0-4.0-8.0","false","1","4.25","","",""
"279","e","choice","left","e","practice","18","83374","0.0-4.0-8.1","true","2","4.65","","",""
"748.0999999046326","i","choice","right","i","practice","26","86425","0.0-4.0-8.2","true","3","4.65","","",""
"105.79999995231628","e","choice","left","e","practice","34","88823","0.0-4.0-8.3","true","4","4.25","","",""
"65.29999995231628","e","choice","right","i","practice","42","91198","0.0-4.0-8.4","false","5","4.25","","",""
"2818","e","choice","left","e","practice","50","96320","0.0-4.0-8.5","true","6","4.65","","",""
"10.799999952316284","e","choice","left","e","practice","58","98632","0.0-4.0-8.6","true","7","4.65","","",""
"401.5","i","choice","right","i","practice","66","101335","0.0-4.0-8.7","true","8","4.45","","",""
"513.2999999523163","i","choice","right","i","practice","74","104148","0.0-4.0-8.8","true","9","4.45","","",""
"501.39999985694885","e","choice","left","e","practice","82","106951","0.0-4.0-8.9","true","10","4.25","","",""
"217.39999985694885","e","choice","left","e","practice","90","109477","0.0-4.0-8.10","true","11","4.25","","",""
"135.79999995231628","i","choice","right","i","practice","98","111919","0.0-4.0-8.11","true","12","4.15","","",""
"175.79999995231628","i","choice","right","i","practice","106","114401","0.0-4.0-8.12","true","13","4.15","","",""
"680.7000000476837","e","choice","left","e","practice","114","117377","0.0-4.0-8.13","true","14","4.050000000000001","","",""
"1267.9000000953674","e","choice","right","i","practice","122","120951","0.0-4.0-8.14","false","15","4.050000000000001","","",""
"515.5999999046326","i","choice","left","e","practice","130","123761","0.0-4.0-8.15","false","16","4.15","","",""
"892","e","choice","right","i","practice","138","126957","0.0-4.0-8.16","false","17","4.25","","",""
"86.5","e","choice","left","e","practice","146","129346","0.0-4.0-8.17","true","18","4.35","","",""
"495.7999999523163","e","choice","left","e","practice","154","132151","0.0-4.0-8.18","true","19","4.35","","",""
"438.2999999523163","i","choice","right","i","practice","162","134891","0.0-4.0-8.19","true","20","4.25","","",""
"192.90000009536743","e","choice","left","e","practice","170","137389","0.0-4.0-8.20","true","21","4.25","","",""
"672.6000001430511","e","choice","right","i","practice","178","140365","0.0-4.0-8.21","false","22","4.15","","",""
"507.90000009536743","e","choice","left","e","practice","186","143180","0.0-4.0-8.22","true","23","4.25","","",""
"45.799999952316284","i","choice","right","i","practice","194","145524","0.0-4.0-8.23","true","24","4.25","","",""
"758.7999999523163","e","choice","left","e","practice","202","148582","0.0-4.0-8.24","true","25","4.15","","",""
"648.6000001430511","e","choice","right","i","practice","210","151534","0.0-4.0-8.25","false","26","4.15","","",""
"956.1000001430511","e","choice","right","i","experimental","221","232229","0.0-4.0-8.26","false","27","4.25","","",""
"5340.299999952316","3","confid","","","html-slider-response","223","238074","0.0-4.0-10.26-0.26","","","","Rate your confidence","1",""
"949.5","e","choice","left","e","experimental","230","240822","0.0-4.0-8.27","true","28","4.35","","",""
"2338.800000190735","5","confid","","","html-slider-response","232","243667","0.0-4.0-10.27-0.27","","","","Rate your confidence","1",""
"714.2000000476837","e","choice","right","i","experimental","239","246173","0.0-4.0-8.28","false","29","4.35","","",""
"2533.2000000476837","4","confid","","","html-slider-response","241","249212","0.0-4.0-10.28-0.28","","","","Rate your confidence","1",""
"742.2000000476837","e","choice","left","e","experimental","248","251751","0.0-4.0-8.29","true","30","4.449999999999999","","",""
"2043","5","confid","","","html-slider-response","250","254298","0.0-4.0-10.29-0.29","","","","Rate your confidence","1",""
"402.30000019073486","i","choice","right","i","experimental","257","256497","0.0-4.0-8.30","true","31","4.449999999999999","","",""
"6075.400000095367","3","confid","","","html-slider-response","259","263080","0.0-4.0-10.30-0.30","","","","Rate your confidence","1",""
"823.3999998569489","e","choice","left","e","experimental","266","265704","0.0-4.0-8.31","true","32","4.35","","",""
"3712.5999999046326","5","confid","","","html-slider-response","268","269921","0.0-4.0-10.31-0.31","","","","Rate your confidence","1",""
"1385","i","choice","right","i","experimental","275","273107","0.0-4.0-8.32","true","33","4.35","","",""
"2315.5999999046326","3","confid","","","html-slider-response","277","275929","0.0-4.0-10.32-0.32","","","","Rate your confidence","1",""
"2405.5999999046326","e","choice","left","e","experimental","284","280143","0.0-4.0-8.33","true","34","4.25","","",""
"2232.600000143051","2","confid","","","html-slider-response","286","282880","0.0-4.0-10.33-0.33","","","","Rate your confidence","1",""
"1260.6000001430511","i","choice","right","i","experimental","293","285940","0.0-4.0-8.34","true","35","4.25","","",""
"3032","3","confid","","","html-slider-response","295","289476","0.0-4.0-10.34-0.34","","","","Rate your confidence","1",""
"1012","e","choice","left","e","experimental","302","292294","0.0-4.0-8.35","true","36","4.15","","",""
"2747.2000000476837","4","confid","","","html-slider-response","304","295548","0.0-4.0-10.35-0.35","","","","Rate your confidence","1",""
"1614.2000000476837","i","choice","left","e","experimental","311","298966","0.0-4.0-8.36","false","37","4.15","","",""
"1646.2000000476837","3","confid","","","html-slider-response","313","301117","0.0-4.0-10.36-0.36","","","","Rate your confidence","1",""
"873.3999998569489","i","choice","right","i","experimental","320","303797","0.0-4.0-8.37","true","38","4.25","","",""
"2085.600000143051","3","confid","","","html-slider-response","322","306387","0.0-4.0-10.37-0.37","","","","Rate your confidence","1",""
"988","i","choice","right","i","experimental","329","309173","0.0-4.0-8.38","true","39","4.25","","",""
"1859.6000001430511","4","confid","","","html-slider-response","331","311538","0.0-4.0-10.38-0.38","","","","Rate your confidence","1",""
"1993","e","choice","left","e","experimental","338","315328","0.0-4.0-8.39","true","40","4.15","","",""
"1981.2999999523163","5","confid","","","html-slider-response","340","317813","0.0-4.0-10.39-0.39","","","","Rate your confidence","1",""
"1630.8000001907349","e","choice","left","e","experimental","347","321242","0.0-4.0-8.40","true","41","4.15","","",""
"2713.0999999046326","3","confid","","","html-slider-response","349","324459","0.0-4.0-10.40-0.40","","","","Rate your confidence","1",""
"1241.8999998569489","i","choice","right","i","experimental","356","327504","0.0-4.0-8.41","true","42","4.050000000000001","","",""
"1870.7999999523163","4","confid","","","html-slider-response","358","329879","0.0-4.0-10.41-0.41","","","","Rate your confidence","1",""
"1520.3000001907349","e","choice","left","e","experimental","365","333197","0.0-4.0-8.42","true","43","4.050000000000001","","",""
"1834.4000000953674","5","confid","","","html-slider-response","367","335537","0.0-4.0-10.42-0.42","","","","Rate your confidence","1",""
"637","i","choice","right","i","experimental","374","337969","0.0-4.0-8.43","true","44","3.9500000000000006","","",""
"1598.4000000953674","5","confid","","","html-slider-response","376","340071","0.0-4.0-10.43-0.43","","","","Rate your confidence","1",""
"992.5","e","choice","left","e","experimental","383","342858","0.0-4.0-8.44","true","45","3.9500000000000006","","",""
"3257.2999999523163","5","confid","","","html-slider-response","385","346619","0.0-4.0-10.44-0.44","","","","Rate your confidence","1",""
"1364.5","i","choice","right","i","experimental","392","349786","0.0-4.0-8.45","true","46","3.8500000000000005","","",""
"1325.7000000476837","4","confid","","","html-slider-response","394","351616","0.0-4.0-10.45-0.45","","","","Rate your confidence","1",""
"780.9000000953674","e","choice","right","i","experimental","401","354194","0.0-4.0-8.46","false","47","3.8500000000000005","","",""
"1349.9000000953674","3","confid","","","html-slider-response","403","356047","0.0-4.0-10.46-0.46","","","","Rate your confidence","1",""
"586.3999998569489","e","choice","left","e","experimental","410","358431","0.0-4.0-8.47","true","48","3.9500000000000006","","",""
"2140.5999999046326","4","confid","","","html-slider-response","412","361076","0.0-4.0-10.47-0.47","","","","Rate your confidence","1",""
"665.5999999046326","e","choice","left","e","experimental","419","363541","0.0-4.0-8.48","true","49","3.9500000000000006","","",""
"2083.7999999523163","5","confid","","","html-slider-response","421","366130","0.0-4.0-10.48-0.48","","","","Rate your confidence","1",""
"603.4000000953674","i","choice","right","i","experimental","428","368529","0.0-4.0-8.49","true","50","3.8500000000000005","","",""
"1445.5","4","confid","","","html-slider-response","430","370479","0.0-4.0-10.49-0.49","","","","Rate your confidence","1",""
"858","e","choice","left","e","experimental","437","373135","0.0-4.0-8.50","true","51","3.8500000000000005","","",""
"1503.7999999523163","4","confid","","","html-slider-response","439","375144","0.0-4.0-10.50-0.50","","","","Rate your confidence","1",""
"890","e","choice","right","i","experimental","446","377832","0.0-4.0-8.51","false","52","3.7500000000000004","","",""
"1900","3","confid","","","html-slider-response","448","380236","0.0-4.0-10.51-0.51","","","","Rate your confidence","1",""
"2484.7999999523163","e","choice","right","i","experimental","455","384516","0.0-4.0-8.52","false","53","3.8500000000000005","","",""
"1726.5","3","confid","","","html-slider-response","457","386750","0.0-4.0-10.52-0.52","","","","Rate your confidence","1",""
"755","e","choice","left","e","experimental","464","389298","0.0-4.0-8.53","true","54","3.9500000000000006","","",""
"1957.1000001430511","4","confid","","","html-slider-response","466","391762","0.0-4.0-10.53-0.53","","","","Rate your confidence","1",""
"644.4000000953674","i","choice","right","i","experimental","473","394210","0.0-4.0-8.54","true","55","3.9500000000000006","","",""
"2268.2000000476837","4","confid","","","html-slider-response","475","396985","0.0-4.0-10.54-0.54","","","","Rate your confidence","1",""
"721","e","choice","left","e","experimental","482","399509","0.0-4.0-8.55","true","56","3.8500000000000005","","",""
"1823.1000001430511","5","confid","","","html-slider-response","484","401836","0.0-4.0-10.55-0.55","","","","Rate your confidence","1",""
"651.7999999523163","e","choice","left","e","experimental","491","404294","0.0-4.0-8.56","true","57","3.8500000000000005","","",""
"1500.5999999046326","4","confid","","","html-slider-response","493","406299","0.0-4.0-10.56-0.56","","","","Rate your confidence","1",""
"460.40000009536743","i","choice","right","i","experimental","500","408557","0.0-4.0-8.57","true","58","3.7500000000000004","","",""
"1490","4","confid","","","html-slider-response","502","410551","0.0-4.0-10.57-0.57","","","","Rate your confidence","1",""
"679.7000000476837","e","choice","left","e","experimental","509","413024","0.0-4.0-8.58","true","59","3.7500000000000004","","",""
"1338.5","4","confid","","","html-slider-response","511","414867","0.0-4.0-10.58-0.58","","","","Rate your confidence","1",""
"2396.5","e","choice","right","i","experimental","518","419061","0.0-4.0-8.59","false","60","3.6500000000000004","","",""
"2756.5","3","confid","","","html-slider-response","520","422322","0.0-4.0-10.59-0.59","","","","Rate your confidence","1",""
"626.2000000476837","i","choice","right","i","experimental","527","424752","0.0-4.0-8.60","true","61","3.7500000000000004","","",""
"2844.4000000953674","4","confid","","","html-slider-response","529","428103","0.0-4.0-10.60-0.60","","","","Rate your confidence","1",""
"1383.0999999046326","e","choice","left","e","experimental","536","431278","0.0-4.0-8.61","true","62","3.7500000000000004","","",""
"2042.7999999523163","5","confid","","","html-slider-response","538","433827","0.0-4.0-10.61-0.61","","","","Rate your confidence","1",""
"714.8000001907349","i","choice","right","i","experimental","545","436338","0.0-4.0-8.62","true","63","3.6500000000000004","","",""
"2109.100000143051","3","confid","","","html-slider-response","547","438951","0.0-4.0-10.62-0.62","","","","Rate your confidence","1",""
"802.5999999046326","e","choice","left","e","experimental","554","441550","0.0-4.0-8.63","true","64","3.6500000000000004","","",""
"3702.4000000953674","5","confid","","","html-slider-response","556","445757","0.0-4.0-10.63-0.63","","","","Rate your confidence","1",""
"834.2000000476837","e","choice","left","e","experimental","563","448387","0.0-4.0-8.64","true","65","3.5500000000000003","","",""
"1700.2000000476837","5","confid","","","html-slider-response","565","450592","0.0-4.0-10.64-0.64","","","","Rate your confidence","1",""
"921.2000000476837","e","choice","right","i","experimental","572","453305","0.0-4.0-8.65","false","66","3.5500000000000003","","",""
"1681.1000001430511","5","confid","","","html-slider-response","574","455490","0.0-4.0-10.65-0.65","","","","Rate your confidence","1",""
"971.1999998092651","e","choice","right","i","experimental","581","458268","0.0-4.0-8.66","false","67","3.6500000000000004","","",""
"2026.7999999523163","4","confid","","","html-slider-response","583","460799","0.0-4.0-10.66-0.66","","","","Rate your confidence","1",""
"1235.5","e","choice","left","e","experimental","590","463840","0.0-4.0-8.67","true","68","3.7500000000000004","","",""
"1626.6000001430511","4","confid","","","html-slider-response","592","465973","0.0-4.0-10.67-0.67","","","","Rate your confidence","1",""
"647.5","e","choice","left","e","experimental","600","599709","0.0-4.0-8.68","true","69","3.7500000000000004","","",""
"2444.600000143051","5","confid","","","html-slider-response","602","602659","0.0-4.0-10.68-0.68","","","","Rate your confidence","1",""
"2790.5","i","choice","right","i","experimental","609","607243","0.0-4.0-8.69","true","70","3.6500000000000004","","",""
"1309.3999998569489","4","confid","","","html-slider-response","611","609059","0.0-4.0-10.69-0.69","","","","Rate your confidence","1",""
"3909.600000143051","e","choice","left","e","experimental","618","614764","0.0-4.0-8.70","true","71","3.6500000000000004","","",""
"5782.5","4","confid","","","html-slider-response","620","621052","0.0-4.0-10.70-0.70","","","","Rate your confidence","1",""
"813.7999999523163","i","choice","right","i","experimental","627","623661","0.0-4.0-8.71","true","72","3.5500000000000003","","",""
"1570.8999998569489","3","confid","","","html-slider-response","629","625736","0.0-4.0-10.71-0.71","","","","Rate your confidence","1",""
"500.60000014305115","e","choice","right","i","experimental","636","628030","0.0-4.0-8.72","false","73","3.5500000000000003","","",""
"1549","3","confid","","","html-slider-response","638","630085","0.0-4.0-10.72-0.72","","","","Rate your confidence","1",""
"515.5999999046326","e","choice","left","e","experimental","645","632393","0.0-4.0-8.73","true","74","3.6500000000000004","","",""
"1885","3","confid","","","html-slider-response","647","634784","0.0-4.0-10.73-0.73","","","","Rate your confidence","1",""
"512","e","choice","left","e","experimental","654","637088","0.0-4.0-8.74","true","75","3.6500000000000004","","",""
"1498.5","4","confid","","","html-slider-response","656","639092","0.0-4.0-10.74-0.74","","","","Rate your confidence","1",""
"641.0999999046326","i","choice","right","i","experimental","663","641532","0.0-4.0-8.75","true","76","3.5500000000000003","","",""
"2981.9000000953674","3","confid","","","html-slider-response","665","645018","0.0-4.0-10.75-0.75","","","","Rate your confidence","1",""
"1397.0999999046326","i","choice","left","e","experimental","672","648218","0.0-4.0-8.76","false","77","3.5500000000000003","","",""
"1442.7999999523163","3","confid","","","html-slider-response","674","650165","0.0-4.0-10.76-0.76","","","","Rate your confidence","1",""
"1215.6000001430511","i","choice","right","i","experimental","681","653189","0.0-4.0-8.77","true","78","3.6500000000000004","","",""
"2025.9000000953674","3","confid","","","html-slider-response","683","655719","0.0-4.0-10.77-0.77","","","","Rate your confidence","1",""
"477.90000009536743","e","choice","left","e","experimental","690","657999","0.0-4.0-8.78","true","79","3.6500000000000004","","",""
"1944.5","5","confid","","","html-slider-response","692","660449","0.0-4.0-10.78-0.78","","","","Rate your confidence","1",""
"1156.7000000476837","i","choice","right","i","experimental","699","663410","0.0-4.0-8.79","true","80","3.5500000000000003","","",""
"2387.600000143051","4","confid","","","html-slider-response","701","666302","0.0-4.0-10.79-0.79","","","","Rate your confidence","1",""
"907","i","choice","right","i","experimental","708","669012","0.0-4.0-8.80","true","81","3.5500000000000003","","",""
"1627.2999999523163","4","confid","","","html-slider-response","710","671145","0.0-4.0-10.80-0.80","","","","Rate your confidence","1",""
"633.3000001907349","e","choice","left","e","experimental","717","673574","0.0-4.0-8.81","true","82","3.45","","",""
"1930.5","4","confid","","","html-slider-response","719","676010","0.0-4.0-10.81-0.81","","","","Rate your confidence","1",""
"731.7000000476837","e","choice","right","i","experimental","726","678542","0.0-4.0-8.82","false","83","3.45","","",""
"2346.2000000476837","4","confid","","","html-slider-response","728","681394","0.0-4.0-10.82-0.82","","","","Rate your confidence","1",""
"940.5","e","choice","left","e","experimental","735","684142","0.0-4.0-8.83","true","84","3.5500000000000003","","",""
"9665.099999904633","5","confid","","","html-slider-response","737","694313","0.0-4.0-10.83-0.83","","","","Rate your confidence","1",""
"441.30000019073486","e","choice","left","e","experimental","744","696562","0.0-4.0-8.84","true","85","3.5500000000000003","","",""
"2896.2999999523163","5","confid","","","html-slider-response","746","699962","0.0-4.0-10.84-0.84","","","","Rate your confidence","1",""
"584.4000000953674","e","choice","right","i","experimental","753","702356","0.0-4.0-8.85","false","86","3.45","","",""
"1282.2999999523163","5","confid","","","html-slider-response","755","704143","0.0-4.0-10.85-0.85","","","","Rate your confidence","1",""
"483.69999980926514","e","choice","left","e","experimental","762","706421","0.0-4.0-8.86","true","87","3.5500000000000003","","",""
"2416.2000000476837","5","confid","","","html-slider-response","764","709351","0.0-4.0-10.86-0.86","","","","Rate your confidence","1",""
"557.9000000953674","e","choice","right","i","experimental","771","711706","0.0-4.0-8.87","false","88","3.5500000000000003","","",""
"1368.5999999046326","4","confid","","","html-slider-response","773","713579","0.0-4.0-10.87-0.87","","","","Rate your confidence","1",""
"425.69999980926514","e","choice","right","i","experimental","780","715809","0.0-4.0-8.88","false","89","3.6500000000000004","","",""
"1266.2000000476837","4","confid","","","html-slider-response","782","717579","0.0-4.0-10.88-0.88","","","","Rate your confidence","1",""
"324","e","choice","left","e","experimental","789","719700","0.0-4.0-8.89","true","90","3.7500000000000004","","",""
"1208.0999999046326","6","confid","","","html-slider-response","791","721413","0.0-4.0-10.89-0.89","","","","Rate your confidence","1",""
"875.5999999046326","i","choice","right","i","experimental","798","724088","0.0-4.0-8.90","true","91","3.7500000000000004","","",""
"1274.2999999523163","5","confid","","","html-slider-response","800","725867","0.0-4.0-10.90-0.90","","","","Rate your confidence","1",""
"523.2000000476837","e","choice","left","e","experimental","807","728186","0.0-4.0-8.91","true","92","3.6500000000000004","","",""
"1199.9000000953674","6","confid","","","html-slider-response","809","729891","0.0-4.0-10.91-0.91","","","","Rate your confidence","1",""
"596.4000000953674","e","choice","right","i","experimental","816","732277","0.0-4.0-8.92","false","93","3.6500000000000004","","",""
"2323.4000000953674","4","confid","","","html-slider-response","818","735104","0.0-4.0-10.92-0.92","","","","Rate your confidence","1",""
"571.8999998569489","e","choice","left","e","experimental","825","737484","0.0-4.0-8.93","true","94","3.7500000000000004","","",""
"2802.399999856949","6","confid","","","html-slider-response","827","740789","0.0-4.0-10.93-0.93","","","","Rate your confidence","1",""
"716.4000000953674","e","choice","left","e","experimental","834","743312","0.0-4.0-8.94","true","95","3.7500000000000004","","",""
"2034.2999999523163","6","confid","","","html-slider-response","836","745850","0.0-4.0-10.94-0.94","","","","Rate your confidence","1",""
"1410.2000000476837","e","choice","right","i","experimental","843","749059","0.0-4.0-8.95","false","96","3.6500000000000004","","",""
"1524.0999999046326","3","confid","","","html-slider-response","845","751087","0.0-4.0-10.95-0.95","","","","Rate your confidence","1",""
"1100.5","e","choice","right","i","experimental","852","753974","0.0-4.0-8.96","false","97","3.7500000000000004","","",""
"1660.3999998569489","4","confid","","","html-slider-response","854","756140","0.0-4.0-10.96-0.96","","","","Rate your confidence","1",""
"646.5","e","choice","left","e","experimental","861","758581","0.0-4.0-8.97","true","98","3.8500000000000005","","",""
"2243.2000000476837","4","confid","","","html-slider-response","863","761331","0.0-4.0-10.97-0.97","","","","Rate your confidence","1",""
"363.2000000476837","e","choice","left","e","experimental","870","763505","0.0-4.0-8.98","true","99","3.8500000000000005","","",""
"1870","5","confid","","","html-slider-response","872","765882","0.0-4.0-10.98-0.98","","","","Rate your confidence","1",""
"596.2000000476837","i","choice","right","i","experimental","879","768286","0.0-4.0-8.99","true","100","3.7500000000000004","","",""
"1303.3999998569489","5","confid","","","html-slider-response","881","770095","0.0-4.0-10.99-0.99","","","","Rate your confidence","1",""
"648.5","i","choice","right","i","experimental","888","772536","0.0-4.0-8.100","true","101","3.7500000000000004","","",""
"2389.0999999046326","4","confid","","","html-slider-response","890","775431","0.0-4.0-10.100-0.100","","","","Rate your confidence","1",""
"802.2000000476837","e","choice","left","e","experimental","897","778028","0.0-4.0-8.101","true","102","3.6500000000000004","","",""
"1620.7000000476837","5","confid","","","html-slider-response","899","780154","0.0-4.0-10.101-0.101","","","","Rate your confidence","1",""
"322.90000009536743","i","choice","right","i","experimental","906","782264","0.0-4.0-8.102","true","103","3.6500000000000004","","",""
"1656.5","5","confid","","","html-slider-response","908","784424","0.0-4.0-10.102-0.102","","","","Rate your confidence","1",""
"513.9000000953674","e","choice","left","e","experimental","915","786748","0.0-4.0-8.103","true","104","3.5500000000000003","","",""
"1221","6","confid","","","html-slider-response","917","788473","0.0-4.0-10.103-0.103","","","","Rate your confidence","1",""
"834.4000000953674","e","choice","left","e","experimental","924","791108","0.0-4.0-8.104","true","105","3.5500000000000003","","",""
"1248.2000000476837","6","confid","","","html-slider-response","926","792862","0.0-4.0-10.104-0.104","","","","Rate your confidence","1",""
"727.5","i","choice","right","i","experimental","933","795386","0.0-4.0-8.105","true","106","3.45","","",""
"1265.8000001907349","5","confid","","","html-slider-response","935","797156","0.0-4.0-10.105-0.105","","","","Rate your confidence","1",""
"616.0999999046326","e","choice","left","e","experimental","942","799556","0.0-4.0-8.106","true","107","3.45","","",""
"1062.0999999046326","5","confid","","","html-slider-response","944","801124","0.0-4.0-10.106-0.106","","","","Rate your confidence","1",""
"737.3000001907349","i","choice","right","i","experimental","951","803664","0.0-4.0-8.107","true","108","3.35","","",""
"2559","4","confid","","","html-slider-response","953","806727","0.0-4.0-10.107-0.107","","","","Rate your confidence","1",""
"409.09999990463257","e","choice","left","e","experimental","960","808934","0.0-4.0-8.108","true","109","3.35","","",""
"1475.5999999046326","4","confid","","","html-slider-response","962","810915","0.0-4.0-10.108-0.108","","","","Rate your confidence","1",""
"593.7000000476837","e","choice","right","i","experimental","969","813316","0.0-4.0-8.109","false","110","3.25","","",""
"3077","4","confid","","","html-slider-response","971","816898","0.0-4.0-10.109-0.109","","","","Rate your confidence","1",""
"1740.5","e","choice","right","i","experimental","979","831194","0.0-4.0-8.110","false","111","3.35","","",""
"1294.9000000953674","3","confid","","","html-slider-response","981","832993","0.0-4.0-10.110-0.110","","","","Rate your confidence","1",""
"583.4000000953674","e","choice","left","e","experimental","988","835385","0.0-4.0-8.111","true","112","3.45","","",""
"2760.899999856949","4","confid","","","html-slider-response","990","838651","0.0-4.0-10.111-0.111","","","","Rate your confidence","1",""
"346.7999999523163","e","choice","left","e","experimental","997","840785","0.0-4.0-8.112","true","113","3.45","","",""
"1336.6999998092651","4","confid","","","html-slider-response","999","842627","0.0-4.0-10.112-0.112","","","","Rate your confidence","1",""
"659.4000000953674","e","choice","right","i","experimental","1006","845080","0.0-4.0-8.113","false","114","3.35","","",""
"1297.5","2","confid","","","html-slider-response","1008","846881","0.0-4.0-10.113-0.113","","","","Rate your confidence","1",""
"574.7000000476837","e","choice","left","e","experimental","1015","849263","0.0-4.0-8.114","true","115","3.45","","",""
"1236.9000000953674","4","confid","","","html-slider-response","1017","851004","0.0-4.0-10.114-0.114","","","","Rate your confidence","1",""
"680.5","i","choice","right","i","experimental","1024","853488","0.0-4.0-8.115","true","116","3.45","","",""
"1248.7999999523163","3","confid","","","html-slider-response","1026","855241","0.0-4.0-10.115-0.115","","","","Rate your confidence","1",""
"554.2000000476837","e","choice","left","e","experimental","1033","857594","0.0-4.0-8.116","true","117","3.35","","",""
"1881.5999999046326","5","confid","","","html-slider-response","1035","859980","0.0-4.0-10.116-0.116","","","","Rate your confidence","1",""
"352.89999985694885","e","choice","right","i","experimental","1042","862141","0.0-4.0-8.117","false","118","3.35","","",""
"1988.4000000953674","4","confid","","","html-slider-response","1044","864635","0.0-4.0-10.117-0.117","","","","Rate your confidence","1",""
"740.2999999523163","i","choice","right","i","experimental","1051","867172","0.0-4.0-8.118","true","119","3.45","","",""
"2610.2000000476837","4","confid","","","html-slider-response","1053","870287","0.0-4.0-10.118-0.118","","","","Rate your confidence","1",""
"779.7999999523163","e","choice","left","e","experimental","1060","872866","0.0-4.0-8.119","true","120","3.45","","",""
"3538.2000000476837","4","confid","","","html-slider-response","1062","876909","0.0-4.0-10.119-0.119","","","","Rate your confidence","1",""
"1563.2999999523163","e","choice","right","i","experimental","1069","880275","0.0-4.0-8.120","false","121","3.35","","",""
"1672.0999999046326","4","confid","","","html-slider-response","1071","882452","0.0-4.0-10.120-0.120","","","","Rate your confidence","1",""
"562.9000000953674","e","choice","left","e","experimental","1078","884820","0.0-4.0-8.121","true","122","3.45","","",""
"2284.699999809265","5","confid","","","html-slider-response","1080","887610","0.0-4.0-10.121-0.121","","","","Rate your confidence","1",""
"561.9000000953674","e","choice","left","e","experimental","1087","889972","0.0-4.0-8.122","true","123","3.45","","",""
"1298.7000000476837","4","confid","","","html-slider-response","1089","891775","0.0-4.0-10.122-0.122","","","","Rate your confidence","1",""
"929.7999999523163","i","choice","right","i","experimental","1096","894501","0.0-4.0-8.123","true","124","3.35","","",""
"1474.5","4","confid","","","html-slider-response","1098","896480","0.0-4.0-10.123-0.123","","","","Rate your confidence","1",""
"636.5","i","choice","right","i","experimental","1105","898918","0.0-4.0-8.124","true","125","3.35","","",""
"1238.9000000953674","3","confid","","","html-slider-response","1107","900660","0.0-4.0-10.124-0.124","","","","Rate your confidence","1",""
"1294.1000001430511","e","choice","left","e","experimental","1114","903760","0.0-4.0-8.125","true","126","3.25","","",""
"1967.7999999523163","4","confid","","","html-slider-response","1116","906232","0.0-4.0-10.125-0.125","","","","Rate your confidence","1",""
"817.1000001430511","i","choice","right","i","experimental","1123","908858","0.0-4.0-8.126","true","127","3.25","","",""
"1550.9000000953674","3","confid","","","html-slider-response","1125","910913","0.0-4.0-10.126-0.126","","","","Rate your confidence","1",""
"621","e","choice","left","e","experimental","1132","913331","0.0-4.0-8.127","true","128","3.15","","",""
"1443.8999998569489","4","confid","","","html-slider-response","1134","915280","0.0-4.0-10.127-0.127","","","","Rate your confidence","1",""
"1326.3999998569489","e","choice","left","e","experimental","1141","918401","0.0-4.0-8.128","true","129","3.15","","",""
"1185.0999999046326","5","confid","","","html-slider-response","1143","920090","0.0-4.0-10.128-0.128","","","","Rate your confidence","1",""
"982.5","e","choice","right","i","experimental","1150","922868","0.0-4.0-8.129","false","130","3.05","","",""
"1852.9000000953674","3","confid","","","html-slider-response","1152","925233","0.0-4.0-10.129-0.129","","","","Rate your confidence","1",""
"719.7000000476837","e","choice","left","e","experimental","1159","927757","0.0-4.0-8.130","true","131","3.15","","",""
"1507.1999998092651","4","confid","","","html-slider-response","1161","929768","0.0-4.0-10.130-0.130","","","","Rate your confidence","1",""
"269.7999999523163","i","choice","right","i","experimental","1168","931835","0.0-4.0-8.131","true","132","3.15","","",""
"2307.5","4","confid","","","html-slider-response","1170","934646","0.0-4.0-10.131-0.131","","","","Rate your confidence","1",""
"690.5999999046326","i","choice","right","i","experimental","1177","937137","0.0-4.0-8.132","true","133","3.05","","",""
"1674.2999999523163","4","confid","","","html-slider-response","1179","939319","0.0-4.0-10.132-0.132","","","","Rate your confidence","1",""
"874.2000000476837","e","choice","left","e","experimental","1186","941992","0.0-4.0-8.133","true","134","3.05","","",""
"1449.5","4","confid","","","html-slider-response","1188","943948","0.0-4.0-10.133-0.133","","","","Rate your confidence","1",""
"418.39999985694885","e","choice","right","i","experimental","1195","946164","0.0-4.0-8.134","false","135","2.9499999999999997","","",""
"1175.5999999046326","4","confid","","","html-slider-response","1197","947846","0.0-4.0-10.134-0.134","","","","Rate your confidence","1",""
"1001.5","e","choice","left","e","experimental","1204","950646","0.0-4.0-8.135","true","136","3.05","","",""
"1222.4000000953674","3","confid","","","html-slider-response","1206","952373","0.0-4.0-10.135-0.135","","","","Rate your confidence","1",""
"478.5","e","choice","left","e","experimental","1213","954647","0.0-4.0-8.136","true","137","3.05","","",""
"1779.9000000953674","4","confid","","","html-slider-response","1215","956932","0.0-4.0-10.136-0.136","","","","Rate your confidence","1",""
"557","e","choice","right","i","experimental","1222","959284","0.0-4.0-8.137","false","138","2.9499999999999997","","",""
"1532.4000000953674","4","confid","","","html-slider-response","1224","961321","0.0-4.0-10.137-0.137","","","","Rate your confidence","1",""
"750","e","choice","left","e","experimental","1231","963882","0.0-4.0-8.138","true","139","3.05","","",""
"2244.2999999523163","4","confid","","","html-slider-response","1233","966633","0.0-4.0-10.138-0.138","","","","Rate your confidence","1",""
"769.5","i","choice","right","i","experimental","1240","969209","0.0-4.0-8.139","true","140","3.05","","",""
"2859.2999999523163","4","confid","","","html-slider-response","1242","972574","0.0-4.0-10.139-0.139","","","","Rate your confidence","1",""
"493","e","choice","left","e","experimental","1249","974867","0.0-4.0-8.140","true","141","2.9499999999999997","","",""
"1495.9000000953674","4","confid","","","html-slider-response","1251","976868","0.0-4.0-10.140-0.140","","","","Rate your confidence","1",""
"1029.5","e","choice","right","i","experimental","1258","979695","0.0-4.0-8.141","false","142","2.9499999999999997","","",""
"1327.2000000476837","4","confid","","","html-slider-response","1260","981539","0.0-4.0-10.141-0.141","","","","Rate your confidence","1",""
"609.6000001430511","e","choice","left","e","experimental","1267","983950","0.0-4.0-8.142","true","143","3.05","","",""
"2275.100000143051","4","confid","","","html-slider-response","1269","986731","0.0-4.0-10.142-0.142","","","","Rate your confidence","1",""
"620.2000000476837","e","choice","right","i","experimental","1276","989161","0.0-4.0-8.143","false","144","3.05","","",""
"2205.2000000476837","4","confid","","","html-slider-response","1278","991871","0.0-4.0-10.143-0.143","","","","Rate your confidence","1",""
"406.2999999523163","e","choice","right","i","experimental","1285","994088","0.0-4.0-8.144","false","145","3.15","","",""
"1370.7000000476837","4","confid","","","html-slider-response","1287","995963","0.0-4.0-10.144-0.144","","","","Rate your confidence","1",""
"296.7999999523163","e","choice","left","e","experimental","1294","998059","0.0-4.0-8.145","true","146","3.25","","",""
"1223.6999998092651","4","confid","","","html-slider-response","1296","999787","0.0-4.0-10.145-0.145","","","","Rate your confidence","1",""
"503.7999999523163","e","choice","left","e","experimental","1303","1002083","0.0-4.0-8.146","true","147","3.25","","",""
"1395.5","5","confid","","","html-slider-response","1305","1003983","0.0-4.0-10.146-0.146","","","","Rate your confidence","1",""
"578.0999999046326","e","choice","right","i","experimental","1312","1006371","0.0-4.0-8.147","false","148","3.15","","",""
"3388","3","confid","","","html-slider-response","1314","1010263","0.0-4.0-10.147-0.147","","","","Rate your confidence","1",""
"723.9000000953674","e","choice","left","e","experimental","1321","1012794","0.0-4.0-8.148","true","149","3.25","","",""
"1420","4","confid","","","html-slider-response","1323","1014720","0.0-4.0-10.148-0.148","","","","Rate your confidence","1",""
"1204.5999999046326","e","choice","right","i","experimental","1330","1017722","0.0-4.0-8.149","false","150","3.25","","",""
"1523.7999999523163","4","confid","","","html-slider-response","1332","1019753","0.0-4.0-10.149-0.149","","","","Rate your confidence","1",""
"806.8999998569489","e","choice","left","e","experimental","1339","1022360","0.0-4.0-8.150","true","151","3.35","","",""
"1213.4000000953674","4","confid","","","html-slider-response","1341","1024079","0.0-4.0-10.150-0.150","","","","Rate your confidence","1",""
"1230.2000000476837","e","choice","right","i","experimental","1348","1027107","0.0-4.0-8.151","false","152","3.35","","",""
"1741.5999999046326","4","confid","","","html-slider-response","1350","1029356","0.0-4.0-10.151-0.151","","","","Rate your confidence","1",""
"691.5","e","choice","left","e","experimental","1358","1033330","0.0-4.0-8.152","true","153","3.45","","",""
"1711","4","confid","","","html-slider-response","1360","1035546","0.0-4.0-10.152-0.152","","","","Rate your confidence","1",""
"465.7999999523163","i","choice","right","i","experimental","1367","1037815","0.0-4.0-8.153","true","154","3.45","","",""
"1392","4","confid","","","html-slider-response","1369","1039711","0.0-4.0-10.153-0.153","","","","Rate your confidence","1",""
"597.1000001430511","e","choice","left","e","experimental","1376","1042106","0.0-4.0-8.154","true","155","3.35","","",""
"1660.2999999523163","4","confid","","","html-slider-response","1378","1044270","0.0-4.0-10.154-0.154","","","","Rate your confidence","1",""
"868.7999999523163","i","choice","right","i","experimental","1385","1046946","0.0-4.0-8.155","true","156","3.35","","",""
"1482.8999998569489","3","confid","","","html-slider-response","1387","1048934","0.0-4.0-10.155-0.155","","","","Rate your confidence","1",""
"694.7000000476837","e","choice","right","i","experimental","1394","1051437","0.0-4.0-8.156","false","157","3.25","","",""
"2479.5999999046326","4","confid","","","html-slider-response","1396","1054423","0.0-4.0-10.156-0.156","","","","Rate your confidence","1",""
"735.1999998092651","e","choice","left","e","experimental","1403","1056957","0.0-4.0-8.157","true","158","3.35","","",""
"1269.9000000953674","4","confid","","","html-slider-response","1405","1058739","0.0-4.0-10.157-0.157","","","","Rate your confidence","1",""
"681.5999999046326","e","choice","left","e","experimental","1412","1061223","0.0-4.0-8.158","true","159","3.35","","",""
"3555.5999999046326","4","confid","","","html-slider-response","1414","1065285","0.0-4.0-10.158-0.158","","","","Rate your confidence","1",""
"1016.4000000953674","e","choice","right","i","experimental","1421","1068103","0.0-4.0-8.159","false","160","3.25","","",""
"1575.7999999523163","3","confid","","","html-slider-response","1423","1070183","0.0-4.0-10.159-0.159","","","","Rate your confidence","1",""
"751.5","i","choice","right","i","experimental","1430","1072745","0.0-4.0-8.160","true","161","3.35","","",""
"1419.5999999046326","3","confid","","","html-slider-response","1432","1074669","0.0-4.0-10.160-0.160","","","","Rate your confidence","1",""
"488.7000000476837","e","choice","left","e","experimental","1439","1076967","0.0-4.0-8.161","true","162","3.35","","",""
"1895.6000001430511","4","confid","","","html-slider-response","1441","1079369","0.0-4.0-10.161-0.161","","","","Rate your confidence","1",""
"253","e","choice","left","e","experimental","1448","1081417","0.0-4.0-8.162","true","163","3.25","","",""
"1342.5","4","confid","","","html-slider-response","1450","1083264","0.0-4.0-10.162-0.162","","","","Rate your confidence","1",""
"501.89999985694885","e","choice","right","i","experimental","1457","1085556","0.0-4.0-8.163","false","164","3.25","","",""
"1679.0999999046326","4","confid","","","html-slider-response","1459","1087741","0.0-4.0-10.163-0.163","","","","Rate your confidence","1",""
"418.30000019073486","e","choice","left","e","experimental","1466","1089967","0.0-4.0-8.164","true","165","3.35","","",""
"1395.7000000476837","4","confid","","","html-slider-response","1468","1091866","0.0-4.0-10.164-0.164","","","","Rate your confidence","1",""
"546.2000000476837","e","choice","right","i","experimental","1475","1094217","0.0-4.0-8.165","false","166","3.35","","",""
"1597.5","4","confid","","","html-slider-response","1477","1096320","0.0-4.0-10.165-0.165","","","","Rate your confidence","1",""
"794.2000000476837","i","choice","right","i","experimental","1484","1098908","0.0-4.0-8.166","true","167","3.45","","",""
"1646.6999998092651","3","confid","","","html-slider-response","1486","1101058","0.0-4.0-10.166-0.166","","","","Rate your confidence","1",""
"353.40000009536743","e","choice","left","e","experimental","1493","1103200","0.0-4.0-8.167","true","168","3.45","","",""
"1260.1999998092651","4","confid","","","html-slider-response","1495","1104964","0.0-4.0-10.167-0.167","","","","Rate your confidence","1",""
"515.7999999523163","e","choice","left","e","experimental","1502","1107275","0.0-4.0-8.168","true","169","3.35","","",""
"1242.7000000476837","4","confid","","","html-slider-response","1504","1109022","0.0-4.0-10.168-0.168","","","","Rate your confidence","1",""
"2292.9000000953674","e","choice","right","i","experimental","1511","1113116","0.0-4.0-8.169","false","170","3.35","","",""
"2030.2999999523163","3","confid","","","html-slider-response","1513","1115654","0.0-4.0-10.169-0.169","","","","Rate your confidence","1",""
"723.1000001430511","e","choice","right","i","experimental","1520","1118179","0.0-4.0-8.170","false","171","3.45","","",""
"1483.6999998092651","3","confid","","","html-slider-response","1522","1120168","0.0-4.0-10.170-0.170","","","","Rate your confidence","1",""
"626.2000000476837","e","choice","left","e","experimental","1529","1122600","0.0-4.0-8.171","true","172","3.5500000000000003","","",""
"2957.4000000953674","4","confid","","","html-slider-response","1531","1126062","0.0-4.0-10.171-0.171","","","","Rate your confidence","1",""
"504.19999980926514","i","choice","right","i","experimental","1538","1128376","0.0-4.0-8.172","true","173","3.5500000000000003","","",""
"1359.7999999523163","4","confid","","","html-slider-response","1540","1130241","0.0-4.0-10.172-0.172","","","","Rate your confidence","1",""
"235","e","choice","left","e","experimental","1547","1132272","0.0-4.0-8.173","true","174","3.45","","",""
"1392.5","4","confid","","","html-slider-response","1549","1134179","0.0-4.0-10.173-0.173","","","","Rate your confidence","1",""
"429.60000014305115","i","choice","right","i","experimental","1556","1136401","0.0-4.0-8.174","true","175","3.45","","",""
"1440.0999999046326","4","confid","","","html-slider-response","1558","1138348","0.0-4.0-10.174-0.174","","","","Rate your confidence","1",""
"576.1000001430511","e","choice","left","e","experimental","1565","1140726","0.0-4.0-8.175","true","176","3.35","","",""
"2268.7000000476837","4","confid","","","html-slider-response","1567","1143501","0.0-4.0-10.175-0.175","","","","Rate your confidence","1",""
"516.7000000476837","e","choice","left","e","experimental","1574","1145815","0.0-4.0-8.176","true","177","3.35","","",""
"1894.4000000953674","4","confid","","","html-slider-response","1576","1148213","0.0-4.0-10.176-0.176","","","","Rate your confidence","1",""
"659.5999999046326","e","choice","right","i","experimental","1583","1150674","0.0-4.0-8.177","false","178","3.25","","",""
"1863","4","confid","","","html-slider-response","1585","1153042","0.0-4.0-10.177-0.177","","","","Rate your confidence","1",""
"264.69999980926514","e","choice","left","e","experimental","1592","1155098","0.0-4.0-8.178","true","179","3.35","","",""
"1794.4000000953674","4","confid","","","html-slider-response","1594","1157398","0.0-4.0-10.178-0.178","","","","Rate your confidence","1",""
"464","e","choice","right","i","experimental","1601","1159662","0.0-4.0-8.179","false","180","3.35","","",""
"1926.2000000476837","4","confid","","","html-slider-response","1603","1162095","0.0-4.0-10.179-0.179","","","","Rate your confidence","1",""
"257.7999999523163","e","choice","left","e","experimental","1610","1164159","0.0-4.0-8.180","true","181","3.45","","",""
"1704","4","confid","","","html-slider-response","1612","1166370","0.0-4.0-10.180-0.180","","","","Rate your confidence","1",""
"923.7000000476837","e","choice","right","i","experimental","1619","1169108","0.0-4.0-8.181","false","182","3.45","","",""
"1383.6000001430511","4","confid","","","html-slider-response","1621","1170997","0.0-4.0-10.181-0.181","","","","Rate your confidence","1",""
"607.2000000476837","e","choice","right","i","experimental","1628","1173411","0.0-4.0-8.182","false","183","3.5500000000000003","","",""
"2087.9000000953674","4","confid","","","html-slider-response","1630","1176005","0.0-4.0-10.182-0.182","","","","Rate your confidence","1",""
"457.5","e","choice","left","e","experimental","1637","1178276","0.0-4.0-8.183","true","184","3.6500000000000004","","",""
"2113.2999999523163","4","confid","","","html-slider-response","1639","1180896","0.0-4.0-10.183-0.183","","","","Rate your confidence","1",""
"918.6999998092651","e","choice","right","i","experimental","1646","1183617","0.0-4.0-8.184","false","185","3.6500000000000004","","",""
"1899.5","4","confid","","","html-slider-response","1648","1186022","0.0-4.0-10.184-0.184","","","","Rate your confidence","1",""
"296.09999990463257","e","choice","left","e","experimental","1655","1188118","0.0-4.0-8.185","true","186","3.7500000000000004","","",""
"1975.7999999523163","5","confid","","","html-slider-response","1657","1190599","0.0-4.0-10.185-0.185","","","","Rate your confidence","1",""
"397.10000014305115","e","choice","right","i","experimental","1664","1192805","0.0-4.0-8.186","false","187","3.7500000000000004","","",""
"1307","3","confid","","","html-slider-response","1666","1194616","0.0-4.0-10.186-0.186","","","","Rate your confidence","1",""
"1393.2000000476837","e","choice","left","e","experimental","1673","1197819","0.0-4.0-8.187","true","188","3.8500000000000005","","",""
"1499.8999998569489","5","confid","","","html-slider-response","1675","1199824","0.0-4.0-10.187-0.187","","","","Rate your confidence","1",""
"651.7000000476837","i","choice","right","i","experimental","1682","1202283","0.0-4.0-8.188","true","189","3.8500000000000005","","",""
"1173.1999998092651","4","confid","","","html-slider-response","1684","1203961","0.0-4.0-10.188-0.188","","","","Rate your confidence","1",""
"680.0999999046326","e","choice","left","e","experimental","1691","1206434","0.0-4.0-8.189","true","190","3.7500000000000004","","",""
"1419.2999999523163","4","confid","","","html-slider-response","1693","1208359","0.0-4.0-10.189-0.189","","","","Rate your confidence","1",""
"584.8999998569489","e","choice","left","e","experimental","1700","1210738","0.0-4.0-8.190","true","191","3.7500000000000004","","",""
"1297.7999999523163","6","confid","","","html-slider-response","1702","1212540","0.0-4.0-10.190-0.190","","","","Rate your confidence","1",""
"490.40000009536743","i","choice","right","i","experimental","1709","1214833","0.0-4.0-8.191","true","192","3.6500000000000004","","",""
"1543.8999998569489","5","confid","","","html-slider-response","1711","1216882","0.0-4.0-10.191-0.191","","","","Rate your confidence","1",""
"476.5","e","choice","right","i","experimental","1718","1219166","0.0-4.0-8.192","false","193","3.6500000000000004","","",""
"1915.7000000476837","4","confid","","","html-slider-response","1720","1221588","0.0-4.0-10.192-0.192","","","","Rate your confidence","1",""
"381.10000014305115","e","choice","left","e","experimental","1727","1223778","0.0-4.0-8.193","true","194","3.7500000000000004","","",""
"1461.5","4","confid","","","html-slider-response","1729","1225744","0.0-4.0-10.193-0.193","","","","Rate your confidence","1","30651"
