"rt","response","task","target_side","correct_response","trial_type","trial_index","time_elapsed","internal_node_id","correct","trial_number","n_dots","stimulus","slider_start","participant"
"952","e","choice","left","e","practice","10","131044","0.0-4.0-8.0","true","1","4.25","","",""
"496.19999998807907","i","choice","right","i","practice","18","133846","0.0-4.0-8.1","true","2","4.25","","",""
"405.5","i","choice","right","i","practice","26","136539","0.0-4.0-8.2","true","3","3.85","","",""
"403.30000001192093","e","choice","left","e","practice","34","139236","0.0-4.0-8.3","true","4","3.85","","",""
"281.89999997615814","i","choice","right","i","practice","42","141813","0.0-4.0-8.4","true","5","3.45","","",""
"2.900000035762787","e","choice","left","e","practice","50","144120","0.0-4.0-8.5","true","6","3.45","","",""
"59.30000001192093","i","choice","right","i","practice","58","146471","0.0-4.0-8.6","true","7","3.25","","",""
"234","e","choice","left","e","practice","66","148987","0.0-4.0-8.7","true","8","3.25","","",""
"778.5","e","choice","right","i","practice","74","152059","0.0-4.0-8.8","false","9","3.05","","",""
"240.69999998807907","e","choice","left","e","practice","82","154605","0.0-4.0-8.9","true","10","3.25","","",""
"460","i","choice","right","i","practice","90","157351","0.0-4.0-8.10","true","11","3.25","","",""
"519.5","e","choice","left","e","practice","98","160174","0.0-4.0-8.11","true","12","3.15","","",""
"272.60000002384186","e","choice","left","e","practice","106","162745","0.0-4.0-8.12","true","13","3.15","","",""
"222","e","choice","right","i","practice","114","165276","0.0-4.0-8.13","false","14","3.05","","",""
"110.80000001192093","e","choice","left","e","practice","122","167664","0.0-4.0-8.14","true","15","3.15","","",""
"463.80000001192093","e","choice","right","i","practice","130","170407","0.0-4.0-8.15","false","16","3.15","","",""
"327.4000000357628","e","choice","left","e","practice","138","173034","0.0-4.0-8.16","true","17","3.25","","",""
"139","e","choice","right","i","practice","146","175463","0.0-4.0-8.17","false","18","3.25","","",""
"602.4000000357628","i","choice","right","i","practice","154","178369","0.0-4.0-8.18","true","19","3.35","","",""
"191.69999998807907","e","choice","left","e","practice","162","180866","0.0-4.0-8.19","true","20","3.35","","",""
"395.0999999642372","i","choice","right","i","practice","170","183544","0.0-4.0-8.20","true","21","3.25","","",""
"561.2999999523163","e","choice","left","e","practice","178","186403","0.0-4.0-8.21","true","22","3.25","","",""
"466","e","choice","right","i","practice","186","189173","0.0-4.0-8.22","false","23","3.15","","",""
"646.6999999880791","e","choice","left","e","practice","194","192105","0.0-4.0-8.23","true","24","3.25","","",""
"535.1000000238419","e","choice","right","i","practice","202","194927","0.0-4.0-8.24","false","25","3.25","","",""
"307.80000001192093","e","choice","left","e","practice","210","197531","0.0-4.0-8.25","true","26","3.35","","",""
"2449.5","i","choice","right","i","experimental","221","243472","0.0-4.0-8.26","true","27","3.35","","",""
"9023.200000047684","1","confid","","","html-slider-response","223","253001","0.0-4.0-10.26-0.26","","","","Rate your confidence","1",""
"437","e","choice","left","e","experimental","230","255242","0.0-4.0-8.27","true","28","3.25","","",""
"3165.300000011921","4","confid","","","html-slider-response","232","258911","0.0-4.0-10.27-0.27","","","","Rate your confidence","1",""
"879.9000000357628","e","choice","left","e","experimental","239","261583","0.0-4.0-8.28","true","29","3.25","","",""
"2024.0999999642372","3","confid","","","html-slider-response","241","264111","0.0-4.0-10.28-0.28","","","","Rate your confidence","1",""
"2645.800000011921","i","choice","right","i","experimental","248","268546","0.0-4.0-8.29","true","30","3.15","","",""
"1871.800000011921","2","confid","","","html-slider-response","250","270922","0.0-4.0-10.29-0.29","","","","Rate your confidence","1",""
"587.6999999880791","e","choice","right","i","experimental","257","273309","0.0-4.0-8.30","false","31","3.15","","",""
"1986.800000011921","4","confid","","","html-slider-response","259","275799","0.0-4.0-10.30-0.30","","","","Rate your confidence","1",""
"368.60000002384186","e","choice","left","e","experimental","266","277963","0.0-4.0-8.31","true","32","3.25","","",""
"3625.800000011921","5","confid","","","html-slider-response","268","282095","0.0-4.0-10.31-0.31","","","","Rate your confidence","1",""
"327.80000001192093","e","choice","left","e","experimental","275","284221","0.0-4.0-8.32","true","33","3.25","","",""
"1682.300000011921","5","confid","","","html-slider-response","277","286407","0.0-4.0-10.32-0.32","","","","Rate your confidence","1",""
"826.8000000119209","e","choice","right","i","experimental","284","289015","0.0-4.0-8.33","false","34","3.15","","",""
"2880.400000035763","3","confid","","","html-slider-response","286","292400","0.0-4.0-10.33-0.33","","","","Rate your confidence","1",""
"1500.199999988079","e","choice","left","e","experimental","293","295687","0.0-4.0-8.34","true","35","3.25","","",""
"2155.800000011921","3","confid","","","html-slider-response","295","298347","0.0-4.0-10.34-0.34","","","","Rate your confidence","1",""
"502.69999998807907","i","choice","right","i","experimental","302","300650","0.0-4.0-8.35","true","36","3.25","","",""
"2549.300000011921","4","confid","","","html-slider-response","304","303703","0.0-4.0-10.35-0.35","","","","Rate your confidence","1",""
"3167.199999988079","e","choice","left","e","experimental","311","308656","0.0-4.0-8.36","true","37","3.15","","",""
"2810.699999988079","2","confid","","","html-slider-response","313","311970","0.0-4.0-10.36-0.36","","","","Rate your confidence","1",""
"457.69999998807907","i","choice","right","i","experimental","320","314227","0.0-4.0-8.37","true","38","3.15","","",""
"1570.5","5","confid","","","html-slider-response","322","316302","0.0-4.0-10.37-0.37","","","","Rate your confidence","1",""
"1272.6000000238419","e","choice","left","e","experimental","329","319365","0.0-4.0-8.38","true","39","3.05","","",""
"4347.600000023842","4","confid","","","html-slider-response","331","324216","0.0-4.0-10.38-0.38","","","","Rate your confidence","1",""
"801.6999999880791","e","choice","right","i","experimental","338","326814","0.0-4.0-8.39","false","40","3.05","","",""
"2489.199999988079","3","confid","","","html-slider-response","340","329808","0.0-4.0-10.39-0.39","","","","Rate your confidence","1",""
"855.4000000357628","e","choice","left","e","experimental","347","332468","0.0-4.0-8.40","true","41","3.15","","",""
"3514.600000023842","3","confid","","","html-slider-response","349","336487","0.0-4.0-10.40-0.40","","","","Rate your confidence","1",""
"711.8000000119209","i","choice","right","i","experimental","356","338996","0.0-4.0-8.41","true","42","3.15","","",""
"1442.0999999642372","2","confid","","","html-slider-response","358","340944","0.0-4.0-10.41-0.41","","","","Rate your confidence","1",""
"903.1999999880791","i","choice","left","e","experimental","365","343636","0.0-4.0-8.42","false","43","3.05","","",""
"1487.9000000357628","2","confid","","","html-slider-response","367","345627","0.0-4.0-10.42-0.42","","","","Rate your confidence","1",""
"1677.4000000357628","e","choice","right","i","experimental","374","349088","0.0-4.0-8.43","false","44","3.15","","",""
"5878.300000011921","1","confid","","","html-slider-response","376","355471","0.0-4.0-10.43-0.43","","","","Rate your confidence","1",""
"862.3999999761581","i","choice","right","i","experimental","383","358119","0.0-4.0-8.44","true","45","3.25","","",""
"4139.600000023842","3","confid","","","html-slider-response","385","362764","0.0-4.0-10.44-0.44","","","","Rate your confidence","1",""
"416","e","choice","left","e","experimental","392","364982","0.0-4.0-8.45","true","46","3.25","","",""
"5677.400000035763","5","confid","","","html-slider-response","394","371163","0.0-4.0-10.45-0.45","","","","Rate your confidence","1",""
"1190.6000000238419","e","choice","left","e","experimental","401","374143","0.0-4.0-8.46","true","47","3.15","","",""
"2384.599999964237","5","confid","","","html-slider-response","403","377048","0.0-4.0-10.46-0.46","","","","Rate your confidence","1",""
"1052.300000011921","e","choice","right","i","experimental","410","379888","0.0-4.0-8.47","false","48","3.15","","",""
"3128.5","3","confid","","","html-slider-response","412","383520","0.0-4.0-10.47-0.47","","","","Rate your confidence","1",""
"1469","i","choice","right","i","experimental","419","386790","0.0-4.0-8.48","true","49","3.25","","",""
"3256.600000023842","2","confid","","","html-slider-response","421","390550","0.0-4.0-10.48-0.48","","","","Rate your confidence","1",""
"652.6999999880791","e","choice","left","e","experimental","428","392998","0.0-4.0-8.49","true","50","3.25","","",""
"2160.199999988079","5","confid","","","html-slider-response","430","395661","0.0-4.0-10.49-0.49","","","","Rate your confidence","1",""
"439.2000000476837","e","choice","left","e","experimental","437","397904","0.0-4.0-8.50","true","51","3.15","","",""
"2081.699999988079","5","confid","","","html-slider-response","439","400490","0.0-4.0-10.50-0.50","","","","Rate your confidence","1",""
"787.8999999761581","i","choice","right","i","experimental","446","403074","0.0-4.0-8.51","true","52","3.15","","",""
"2903.399999976158","3","confid","","","html-slider-response","448","406481","0.0-4.0-10.51-0.51","","","","Rate your confidence","1",""
"703.6000000238419","i","choice","right","i","experimental","455","408969","0.0-4.0-8.52","true","53","3.05","","",""
"2416.699999988079","2","confid","","","html-slider-response","457","411892","0.0-4.0-10.52-0.52","","","","Rate your confidence","1",""
"441.60000002384186","e","choice","left","e","experimental","464","414115","0.0-4.0-8.53","true","54","3.05","","",""
"2707.2000000476837","5","confid","","","html-slider-response","466","417326","0.0-4.0-10.53-0.53","","","","Rate your confidence","1",""
"382.30000001192093","e","choice","left","e","experimental","473","419517","0.0-4.0-8.54","true","55","2.9499999999999997","","",""
"2472","6","confid","","","html-slider-response","475","422493","0.0-4.0-10.54-0.54","","","","Rate your confidence","1",""
"1299.1000000238419","e","choice","right","i","experimental","482","425591","0.0-4.0-8.55","false","56","2.9499999999999997","","",""
"2622.600000023842","3","confid","","","html-slider-response","484","428717","0.0-4.0-10.55-0.55","","","","Rate your confidence","1",""
"813.8000000119209","e","choice","right","i","experimental","491","431316","0.0-4.0-8.56","false","57","3.05","","",""
"3434.900000035763","3","confid","","","html-slider-response","493","435273","0.0-4.0-10.56-0.56","","","","Rate your confidence","1",""
"2029.800000011921","i","choice","left","e","experimental","500","439080","0.0-4.0-8.57","false","58","3.15","","",""
"1632.8999999761581","2","confid","","","html-slider-response","502","441219","0.0-4.0-10.57-0.57","","","","Rate your confidence","1",""
"3936.899999976158","e","choice","right","i","experimental","509","446957","0.0-4.0-8.58","false","59","3.25","","",""
"2830","1","confid","","","html-slider-response","511","450291","0.0-4.0-10.58-0.58","","","","Rate your confidence","1",""
"310.10000002384186","e","choice","left","e","experimental","518","452395","0.0-4.0-8.59","true","60","3.35","","",""
"2776.7000000476837","5","confid","","","html-slider-response","520","455676","0.0-4.0-10.59-0.59","","","","Rate your confidence","1",""
"725.5","e","choice","right","i","experimental","527","458198","0.0-4.0-8.60","false","61","3.35","","",""
"2577.599999964237","2","confid","","","html-slider-response","529","461279","0.0-4.0-10.60-0.60","","","","Rate your confidence","1",""
"608.7999999523163","e","choice","left","e","experimental","536","463665","0.0-4.0-8.61","true","62","3.45","","",""
"1426","3","confid","","","html-slider-response","538","465609","0.0-4.0-10.61-0.61","","","","Rate your confidence","1",""
"668","i","choice","right","i","experimental","545","468063","0.0-4.0-8.62","true","63","3.45","","",""
"1665.8999999761581","2","confid","","","html-slider-response","547","470233","0.0-4.0-10.62-0.62","","","","Rate your confidence","1",""
"618.8000000119209","e","choice","left","e","experimental","554","472645","0.0-4.0-8.63","true","64","3.35","","",""
"2526.400000035763","2","confid","","","html-slider-response","556","475673","0.0-4.0-10.63-0.63","","","","Rate your confidence","1",""
"546.3000000119209","i","choice","right","i","experimental","563","478008","0.0-4.0-8.64","true","65","3.35","","",""
"1587.199999988079","2","confid","","","html-slider-response","565","480101","0.0-4.0-10.64-0.64","","","","Rate your confidence","1",""
"369","e","choice","left","e","experimental","572","482263","0.0-4.0-8.65","true","66","3.25","","",""
"2796.399999976158","4","confid","","","html-slider-response","574","485565","0.0-4.0-10.65-0.65","","","","Rate your confidence","1",""
"352.69999998807907","i","choice","right","i","experimental","581","487704","0.0-4.0-8.66","true","67","3.25","","",""
"2558.099999964237","3","confid","","","html-slider-response","583","490767","0.0-4.0-10.66-0.66","","","","Rate your confidence","1",""
"242.5","e","choice","left","e","experimental","590","492804","0.0-4.0-8.67","true","68","3.15","","",""
"2278.7000000476837","5","confid","","","html-slider-response","592","495586","0.0-4.0-10.67-0.67","","","","Rate your confidence","1",""
"877.4000000357628","e","choice","right","i","experimental","600","512278","0.0-4.0-8.68","false","69","3.15","","",""
"5742.899999976158","2","confid","","","html-slider-response","602","518525","0.0-4.0-10.68-0.68","","","","Rate your confidence","1",""
"785.5999999642372","e","choice","left","e","experimental","609","521097","0.0-4.0-8.69","true","70","3.25","","",""
"3294.5","2","confid","","","html-slider-response","611","524896","0.0-4.0-10.69-0.69","","","","Rate your confidence","1",""
"567.5999999642372","i","choice","right","i","experimental","618","527247","0.0-4.0-8.70","true","71","3.25","","",""
"2042.8999999761581","2","confid","","","html-slider-response","620","529796","0.0-4.0-10.70-0.70","","","","Rate your confidence","1",""
"320.5","e","choice","left","e","experimental","627","531901","0.0-4.0-8.71","true","72","3.15","","",""
"2669.300000011921","4","confid","","","html-slider-response","629","535074","0.0-4.0-10.71-0.71","","","","Rate your confidence","1",""
"691.9000000357628","e","choice","left","e","experimental","636","537553","0.0-4.0-8.72","true","73","3.15","","",""
"2684.399999976158","5","confid","","","html-slider-response","638","540741","0.0-4.0-10.72-0.72","","","","Rate your confidence","1",""
"832.0999999642372","i","choice","right","i","experimental","645","543361","0.0-4.0-8.73","true","74","3.05","","",""
"3075.600000023842","3","confid","","","html-slider-response","647","546940","0.0-4.0-10.73-0.73","","","","Rate your confidence","1",""
"163.30000001192093","e","choice","right","i","experimental","654","548902","0.0-4.0-8.74","false","75","3.05","","",""
"2267.199999988079","5","confid","","","html-slider-response","656","551672","0.0-4.0-10.74-0.74","","","","Rate your confidence","1",""
"1576.8999999761581","i","choice","left","e","experimental","663","555042","0.0-4.0-8.75","false","76","3.15","","",""
"1845.5","1","confid","","","html-slider-response","665","557394","0.0-4.0-10.75-0.75","","","","Rate your confidence","1",""
"3446.900000035763","i","choice","left","e","experimental","672","562639","0.0-4.0-8.76","false","77","3.25","","",""
"3261.100000023842","1","confid","","","html-slider-response","674","566406","0.0-4.0-10.76-0.76","","","","Rate your confidence","1",""
"1783.4000000357628","e","choice","right","i","experimental","681","569979","0.0-4.0-8.77","false","78","3.35","","",""
"1780.300000011921","1","confid","","","html-slider-response","683","572282","0.0-4.0-10.77-0.77","","","","Rate your confidence","1",""
"414.69999998807907","e","choice","left","e","experimental","690","574483","0.0-4.0-8.78","true","79","3.45","","",""
"2644.5","2","confid","","","html-slider-response","692","577631","0.0-4.0-10.78-0.78","","","","Rate your confidence","1",""
"327.2999999523163","i","choice","right","i","experimental","699","579755","0.0-4.0-8.79","true","80","3.45","","",""
"1633.5999999642372","2","confid","","","html-slider-response","701","581893","0.0-4.0-10.79-0.79","","","","Rate your confidence","1",""
"1541","i","choice","left","e","experimental","708","585230","0.0-4.0-8.80","false","81","3.35","","",""
"4986.600000023842","1","confid","","","html-slider-response","710","590720","0.0-4.0-10.80-0.80","","","","Rate your confidence","1",""
"332","i","choice","right","i","experimental","717","592845","0.0-4.0-8.81","true","82","3.45","","",""
"1497.8999999761581","2","confid","","","html-slider-response","719","594847","0.0-4.0-10.81-0.81","","","","Rate your confidence","1",""
"761.4000000357628","i","choice","left","e","experimental","726","597390","0.0-4.0-8.82","false","83","3.45","","",""
"1327.0999999642372","2","confid","","","html-slider-response","728","599221","0.0-4.0-10.82-0.82","","","","Rate your confidence","1",""
"348","i","choice","right","i","experimental","735","601360","0.0-4.0-8.83","true","84","3.5500000000000003","","",""
"2289.600000023842","3","confid","","","html-slider-response","737","604171","0.0-4.0-10.83-0.83","","","","Rate your confidence","1",""
"386.19999998807907","i","choice","right","i","experimental","744","606350","0.0-4.0-8.84","true","85","3.5500000000000003","","",""
"1497.5","3","confid","","","html-slider-response","746","608351","0.0-4.0-10.84-0.84","","","","Rate your confidence","1",""
"311.80000001192093","e","choice","left","e","experimental","753","610466","0.0-4.0-8.85","true","86","3.45","","",""
"2199.800000011921","5","confid","","","html-slider-response","755","613171","0.0-4.0-10.85-0.85","","","","Rate your confidence","1",""
"3020.899999976158","e","choice","right","i","experimental","762","617997","0.0-4.0-8.86","false","87","3.45","","",""
"1776.199999988079","1","confid","","","html-slider-response","764","620276","0.0-4.0-10.86-0.86","","","","Rate your confidence","1",""
"758.9000000357628","e","choice","left","e","experimental","771","622822","0.0-4.0-8.87","true","88","3.5500000000000003","","",""
"2027.2999999523163","3","confid","","","html-slider-response","773","625354","0.0-4.0-10.87-0.87","","","","Rate your confidence","1",""
"595.1999999880791","e","choice","left","e","experimental","780","627734","0.0-4.0-8.88","true","89","3.5500000000000003","","",""
"1233.9000000357628","4","confid","","","html-slider-response","782","629472","0.0-4.0-10.88-0.88","","","","Rate your confidence","1",""
"368.80000001192093","i","choice","right","i","experimental","789","631643","0.0-4.0-8.89","true","90","3.45","","",""
"1684.5","3","confid","","","html-slider-response","791","633831","0.0-4.0-10.89-0.89","","","","Rate your confidence","1",""
"186","e","choice","left","e","experimental","798","635813","0.0-4.0-8.90","true","91","3.45","","",""
"2026.2000000476837","5","confid","","","html-slider-response","800","638342","0.0-4.0-10.90-0.90","","","","Rate your confidence","1",""
"782.5","i","choice","right","i","experimental","807","640909","0.0-4.0-8.91","true","92","3.35","","",""
"1630.800000011921","3","confid","","","html-slider-response","809","643043","0.0-4.0-10.91-0.91","","","","Rate your confidence","1",""
"1002","i","choice","right","i","experimental","816","645835","0.0-4.0-8.92","true","93","3.35","","",""
"1508.800000011921","2","confid","","","html-slider-response","818","647848","0.0-4.0-10.92-0.92","","","","Rate your confidence","1",""
"414","e","choice","left","e","experimental","825","650063","0.0-4.0-8.93","true","94","3.25","","",""
"2931.100000023842","2","confid","","","html-slider-response","827","653498","0.0-4.0-10.93-0.93","","","","Rate your confidence","1",""
"293.5999999642372","e","choice","left","e","experimental","834","655590","0.0-4.0-8.94","true","95","3.25","","",""
"4707.800000011921","3","confid","","","html-slider-response","836","660804","0.0-4.0-10.94-0.94","","","","Rate your confidence","1",""
"362.4000000357628","i","choice","right","i","experimental","843","662960","0.0-4.0-8.95","true","96","3.15","","",""
"2261.199999988079","1","confid","","","html-slider-response","845","665727","0.0-4.0-10.95-0.95","","","","Rate your confidence","1",""
"56.09999996423721","i","choice","right","i","experimental","852","667572","0.0-4.0-8.96","true","97","3.15","","",""
"1370.300000011921","3","confid","","","html-slider-response","854","669446","0.0-4.0-10.96-0.96","","","","Rate your confidence","1",""
"2059.300000011921","i","choice","left","e","experimental","861","673287","0.0-4.0-8.97","false","98","3.05","","",""
"2321.5","1","confid","","","html-slider-response","863","676112","0.0-4.0-10.97-0.97","","","","Rate your confidence","1",""
"360.5","e","choice","left","e","experimental","870","678271","0.0-4.0-8.98","true","99","3.15","","",""
"1518.199999988079","2","confid","","","html-slider-response","872","680293","0.0-4.0-10.98-0.98","","","","Rate your confidence","1",""
"187.0999999642372","i","choice","right","i","experimental","879","682265","0.0-4.0-8.99","true","100","3.15","","",""
"2374","2","confid","","","html-slider-response","881","685144","0.0-4.0-10.99-0.99","","","","Rate your confidence","1",""
"255.69999998807907","e","choice","left","e","experimental","888","687191","0.0-4.0-8.100","true","101","3.05","","",""
"1936","3","confid","","","html-slider-response","890","689631","0.0-4.0-10.100-0.100","","","","Rate your confidence","1",""
"1033.0999999642372","i","choice","right","i","experimental","897","692454","0.0-4.0-8.101","true","102","3.05","","",""
"1980.5","2","confid","","","html-slider-response","899","694939","0.0-4.0-10.101-0.101","","","","Rate your confidence","1",""
"1003.8999999761581","i","choice","right","i","experimental","906","697746","0.0-4.0-8.102","true","103","2.9499999999999997","","",""
"2307.800000011921","2","confid","","","html-slider-response","908","700559","0.0-4.0-10.102-0.102","","","","Rate your confidence","1",""
"363.60000002384186","e","choice","left","e","experimental","915","702726","0.0-4.0-8.103","true","104","2.9499999999999997","","",""
"1610.6000000238419","2","confid","","","html-slider-response","917","704841","0.0-4.0-10.103-0.103","","","","Rate your confidence","1",""
"395.30000001192093","e","choice","left","e","experimental","924","707043","0.0-4.0-8.104","true","105","2.8499999999999996","","",""
"1383.7000000476837","2","confid","","","html-slider-response","926","708932","0.0-4.0-10.104-0.104","","","","Rate your confidence","1",""
"284.7000000476837","i","choice","right","i","experimental","933","711002","0.0-4.0-8.105","true","106","2.8499999999999996","","",""
"2889.199999988079","2","confid","","","html-slider-response","935","714395","0.0-4.0-10.105-0.105","","","","Rate your confidence","1",""
"502.80000001192093","i","choice","left","e","experimental","942","716681","0.0-4.0-8.106","false","107","2.7499999999999996","","",""
"1697.5999999642372","2","confid","","","html-slider-response","944","718885","0.0-4.0-10.106-0.106","","","","Rate your confidence","1",""
"587.3999999761581","e","choice","right","i","experimental","951","721252","0.0-4.0-8.107","false","108","2.8499999999999996","","",""
"2269.300000011921","1","confid","","","html-slider-response","953","724025","0.0-4.0-10.107-0.107","","","","Rate your confidence","1",""
"1068.800000011921","i","choice","right","i","experimental","960","726896","0.0-4.0-8.108","true","109","2.9499999999999997","","",""
"2176.5","1","confid","","","html-slider-response","962","729576","0.0-4.0-10.108-0.108","","","","Rate your confidence","1",""
"427.69999998807907","e","choice","left","e","experimental","969","731794","0.0-4.0-8.109","true","110","2.9499999999999997","","",""
"2429.100000023842","2","confid","","","html-slider-response","971","734729","0.0-4.0-10.109-0.109","","","","Rate your confidence","1",""
"418.9000000357628","e","choice","left","e","experimental","979","840948","0.0-4.0-8.110","true","111","2.8499999999999996","","",""
"3309.199999988079","2","confid","","","html-slider-response","981","844763","0.0-4.0-10.110-0.110","","","","Rate your confidence","1",""
"346.69999998807907","i","choice","right","i","experimental","988","846908","0.0-4.0-8.111","true","112","2.8499999999999996","","",""
"1858","2","confid","","","html-slider-response","990","849270","0.0-4.0-10.111-0.111","","","","Rate your confidence","1",""
"329.80000001192093","e","choice","left","e","experimental","997","851408","0.0-4.0-8.112","true","113","2.7499999999999996","","",""
"2090.199999988079","3","confid","","","html-slider-response","999","854002","0.0-4.0-10.112-0.112","","","","Rate your confidence","1",""
"376","e","choice","right","i","experimental","1006","856159","0.0-4.0-8.113","false","114","2.7499999999999996","","",""
"2429.7999999523163","2","confid","","","html-slider-response","1008","859093","0.0-4.0-10.113-0.113","","","","Rate your confidence","1",""
"959.0999999642372","e","choice","right","i","experimental","1015","861835","0.0-4.0-8.114","false","115","2.8499999999999996","","",""
"4012.199999988079","2","confid","","","html-slider-response","1017","866352","0.0-4.0-10.114-0.114","","","","Rate your confidence","1",""
"308.7000000476837","e","choice","left","e","experimental","1024","868460","0.0-4.0-8.115","true","116","2.9499999999999997","","",""
"2328.399999976158","2","confid","","","html-slider-response","1026","871292","0.0-4.0-10.115-0.115","","","","Rate your confidence","1",""
"453.5","e","choice","left","e","experimental","1033","873554","0.0-4.0-8.116","true","117","2.9499999999999997","","",""
"1660.9000000357628","4","confid","","","html-slider-response","1035","875719","0.0-4.0-10.116-0.116","","","","Rate your confidence","1",""
"239.39999997615814","e","choice","right","i","experimental","1042","877746","0.0-4.0-8.117","false","118","2.8499999999999996","","",""
"1455.300000011921","3","confid","","","html-slider-response","1044","879723","0.0-4.0-10.117-0.117","","","","Rate your confidence","1",""
"1284","e","choice","left","e","experimental","1051","882790","0.0-4.0-8.118","true","119","2.9499999999999997","","",""
"3188.100000023842","2","confid","","","html-slider-response","1053","886482","0.0-4.0-10.118-0.118","","","","Rate your confidence","1",""
"864.8000000119209","i","choice","right","i","experimental","1060","889154","0.0-4.0-8.119","true","120","2.9499999999999997","","",""
"1490.1000000238419","2","confid","","","html-slider-response","1062","891148","0.0-4.0-10.119-0.119","","","","Rate your confidence","1",""
"288","i","choice","right","i","experimental","1069","893240","0.0-4.0-8.120","true","121","2.8499999999999996","","",""
"1771.300000011921","3","confid","","","html-slider-response","1071","895515","0.0-4.0-10.120-0.120","","","","Rate your confidence","1",""
"1588.1000000238419","e","choice","left","e","experimental","1078","898893","0.0-4.0-8.121","true","122","2.8499999999999996","","",""
"2265.300000011921","1","confid","","","html-slider-response","1080","901661","0.0-4.0-10.121-0.121","","","","Rate your confidence","1",""
"579.3000000119209","e","choice","left","e","experimental","1087","904033","0.0-4.0-8.122","true","123","2.7499999999999996","","",""
"1830.800000011921","1","confid","","","html-slider-response","1089","906367","0.0-4.0-10.122-0.122","","","","Rate your confidence","1",""
"546.7000000476837","i","choice","right","i","experimental","1096","908715","0.0-4.0-8.123","true","124","2.7499999999999996","","",""
"1457.300000011921","2","confid","","","html-slider-response","1098","910676","0.0-4.0-10.123-0.123","","","","Rate your confidence","1",""
"209.30000001192093","e","choice","left","e","experimental","1105","912687","0.0-4.0-8.124","true","125","2.6499999999999995","","",""
"1746.5999999642372","5","confid","","","html-slider-response","1107","914939","0.0-4.0-10.124-0.124","","","","Rate your confidence","1",""
"1749.6000000238419","i","choice","right","i","experimental","1114","918473","0.0-4.0-8.125","true","126","2.6499999999999995","","",""
"1329.0999999642372","1","confid","","","html-slider-response","1116","920305","0.0-4.0-10.125-0.125","","","","Rate your confidence","1",""
"341.9000000357628","e","choice","right","i","experimental","1123","922431","0.0-4.0-8.126","false","127","2.5499999999999994","","",""
"3218.599999964237","2","confid","","","html-slider-response","1125","926155","0.0-4.0-10.126-0.126","","","","Rate your confidence","1",""
"477.5999999642372","e","choice","left","e","experimental","1132","928430","0.0-4.0-8.127","true","128","2.6499999999999995","","",""
"2418.100000023842","2","confid","","","html-slider-response","1134","931355","0.0-4.0-10.127-0.127","","","","Rate your confidence","1",""
"1426.5","e","choice","right","i","experimental","1141","934561","0.0-4.0-8.128","false","129","2.6499999999999995","","",""
"1696.9000000357628","2","confid","","","html-slider-response","1143","936762","0.0-4.0-10.128-0.128","","","","Rate your confidence","1",""
"1534.8999999761581","e","choice","left","e","experimental","1150","940086","0.0-4.0-8.129","true","130","2.7499999999999996","","",""
"1462.8999999761581","1","confid","","","html-slider-response","1152","942053","0.0-4.0-10.129-0.129","","","","Rate your confidence","1",""
"723.8999999761581","i","choice","right","i","experimental","1159","944563","0.0-4.0-8.130","true","131","2.7499999999999996","","",""
"1636.0999999642372","2","confid","","","html-slider-response","1161","946702","0.0-4.0-10.130-0.130","","","","Rate your confidence","1",""
"73","e","choice","left","e","experimental","1168","948579","0.0-4.0-8.131","true","132","2.6499999999999995","","",""
"2002.1000000238419","3","confid","","","html-slider-response","1170","951084","0.0-4.0-10.131-0.131","","","","Rate your confidence","1",""
"508.60000002384186","e","choice","left","e","experimental","1177","953393","0.0-4.0-8.132","true","133","2.6499999999999995","","",""
"2711.300000011921","2","confid","","","html-slider-response","1179","956608","0.0-4.0-10.132-0.132","","","","Rate your confidence","1",""
"1095.699999988079","e","choice","right","i","experimental","1186","959490","0.0-4.0-8.133","false","134","2.5499999999999994","","",""
"1927.199999988079","2","confid","","","html-slider-response","1188","961921","0.0-4.0-10.133-0.133","","","","Rate your confidence","1",""
"631","i","choice","right","i","experimental","1195","964332","0.0-4.0-8.134","true","135","2.6499999999999995","","",""
"1466.5999999642372","1","confid","","","html-slider-response","1197","966304","0.0-4.0-10.134-0.134","","","","Rate your confidence","1",""
"1405.6000000238419","i","choice","left","e","experimental","1204","969512","0.0-4.0-8.135","false","136","2.6499999999999995","","",""
"2003.3999999761581","2","confid","","","html-slider-response","1206","972021","0.0-4.0-10.135-0.135","","","","Rate your confidence","1",""
"1077.6000000238419","i","choice","right","i","experimental","1213","974901","0.0-4.0-8.136","true","137","2.7499999999999996","","",""
"2552.5","1","confid","","","html-slider-response","1215","977958","0.0-4.0-10.136-0.136","","","","Rate your confidence","1",""
"657.6000000238419","e","choice","left","e","experimental","1222","980396","0.0-4.0-8.137","true","138","2.7499999999999996","","",""
"4984.900000035763","1","confid","","","html-slider-response","1224","985886","0.0-4.0-10.137-0.137","","","","Rate your confidence","1",""
"1365.3999999761581","e","choice","left","e","experimental","1231","989035","0.0-4.0-8.138","true","139","2.6499999999999995","","",""
"1260.0999999642372","3","confid","","","html-slider-response","1233","990801","0.0-4.0-10.138-0.138","","","","Rate your confidence","1",""
"571","e","choice","right","i","experimental","1240","993174","0.0-4.0-8.139","false","140","2.6499999999999995","","",""
"1953","2","confid","","","html-slider-response","1242","995633","0.0-4.0-10.139-0.139","","","","Rate your confidence","1",""
"406.30000001192093","i","choice","right","i","experimental","1249","997843","0.0-4.0-8.140","true","141","2.7499999999999996","","",""
"1297.9000000357628","2","confid","","","html-slider-response","1251","999645","0.0-4.0-10.140-0.140","","","","Rate your confidence","1",""
"67.39999997615814","e","choice","left","e","experimental","1258","1001518","0.0-4.0-8.141","true","142","2.7499999999999996","","",""
"3680.599999964237","6","confid","","","html-slider-response","1260","1005703","0.0-4.0-10.141-0.141","","","","Rate your confidence","1",""
"828.3000000119209","i","choice","right","i","experimental","1267","1008312","0.0-4.0-8.142","true","143","2.6499999999999995","","",""
"3084","4","confid","","","html-slider-response","1269","1011900","0.0-4.0-10.142-0.142","","","","Rate your confidence","1",""
"372.89999997615814","e","choice","left","e","experimental","1276","1014059","0.0-4.0-8.143","true","144","2.6499999999999995","","",""
"4018.5","2","confid","","","html-slider-response","1278","1018586","0.0-4.0-10.143-0.143","","","","Rate your confidence","1",""
"1566.3999999761581","e","choice","left","e","experimental","1285","1021965","0.0-4.0-8.144","true","145","2.5499999999999994","","",""
"1231.199999988079","1","confid","","","html-slider-response","1287","1023701","0.0-4.0-10.144-0.144","","","","Rate your confidence","1",""
"632.1999999880791","i","choice","right","i","experimental","1294","1026138","0.0-4.0-8.145","true","146","2.5499999999999994","","",""
"2994","2","confid","","","html-slider-response","1296","1029640","0.0-4.0-10.145-0.145","","","","Rate your confidence","1",""
"336.30000001192093","e","choice","right","i","experimental","1303","1031775","0.0-4.0-8.146","false","147","2.4499999999999993","","",""
"1367.1000000238419","3","confid","","","html-slider-response","1305","1033647","0.0-4.0-10.146-0.146","","","","Rate your confidence","1",""
"485.5","e","choice","left","e","experimental","1312","1035916","0.0-4.0-8.147","true","148","2.5499999999999994","","",""
"1911.1000000238419","3","confid","","","html-slider-response","1314","1038331","0.0-4.0-10.147-0.147","","","","Rate your confidence","1",""
"556.8000000119209","e","choice","left","e","experimental","1321","1040687","0.0-4.0-8.148","true","149","2.5499999999999994","","",""
"1879.1000000238419","2","confid","","","html-slider-response","1323","1043073","0.0-4.0-10.148-0.148","","","","Rate your confidence","1",""
"352","e","choice","right","i","experimental","1330","1045226","0.0-4.0-8.149","false","150","2.4499999999999993","","",""
"3449","2","confid","","","html-slider-response","1332","1049181","0.0-4.0-10.149-0.149","","","","Rate your confidence","1",""
"740","e","choice","left","e","experimental","1339","1051705","0.0-4.0-8.150","true","151","2.5499999999999994","","",""
"2126.599999964237","1","confid","","","html-slider-response","1341","1054337","0.0-4.0-10.150-0.150","","","","Rate your confidence","1",""
"700.2000000476837","e","choice","right","i","experimental","1348","1056818","0.0-4.0-8.151","false","152","2.5499999999999994","","",""
"1490.0999999642372","3","confid","","","html-slider-response","1350","1058815","0.0-4.0-10.151-0.151","","","","Rate your confidence","1",""
"825.6999999880791","e","choice","right","i","experimental","1358","1068022","0.0-4.0-8.152","false","153","2.6499999999999995","","",""
"2335.699999988079","2","confid","","","html-slider-response","1360","1070861","0.0-4.0-10.152-0.152","","","","Rate your confidence","1",""
"598.3000000119209","i","choice","left","e","experimental","1367","1073255","0.0-4.0-8.153","false","154","2.7499999999999996","","",""
"2109.900000035763","1","confid","","","html-slider-response","1369","1075867","0.0-4.0-10.153-0.153","","","","Rate your confidence","1",""
"246.5999999642372","e","choice","left","e","experimental","1376","1077890","0.0-4.0-8.154","true","155","2.8499999999999996","","",""
"1214.1000000238419","3","confid","","","html-slider-response","1378","1079608","0.0-4.0-10.154-0.154","","","","Rate your confidence","1",""
"862.1000000238419","i","choice","right","i","experimental","1385","1082259","0.0-4.0-8.155","true","156","2.8499999999999996","","",""
"1444.2000000476837","2","confid","","","html-slider-response","1387","1084207","0.0-4.0-10.155-0.155","","","","Rate your confidence","1",""
"99.20000004768372","i","choice","right","i","experimental","1394","1086091","0.0-4.0-8.156","true","157","2.7499999999999996","","",""
"1091.2000000476837","3","confid","","","html-slider-response","1396","1087687","0.0-4.0-10.156-0.156","","","","Rate your confidence","1",""
"964.6000000238419","e","choice","left","e","experimental","1403","1090455","0.0-4.0-8.157","true","158","2.7499999999999996","","",""
"1808.5","2","confid","","","html-slider-response","1405","1092768","0.0-4.0-10.157-0.157","","","","Rate your confidence","1",""
"186.19999998807907","i","choice","right","i","experimental","1412","1094748","0.0-4.0-8.158","true","159","2.6499999999999995","","",""
"1318.1000000238419","4","confid","","","html-slider-response","1414","1096569","0.0-4.0-10.158-0.158","","","","Rate your confidence","1",""
"605.8999999761581","i","choice","left","e","experimental","1421","1098977","0.0-4.0-8.159","false","160","2.6499999999999995","","",""
"2000.1000000238419","3","confid","","","html-slider-response","1423","1101481","0.0-4.0-10.159-0.159","","","","Rate your confidence","1",""
"396.80000001192093","i","choice","right","i","experimental","1430","1103674","0.0-4.0-8.160","true","161","2.7499999999999996","","",""
"2225.199999988079","3","confid","","","html-slider-response","1432","1106403","0.0-4.0-10.160-0.160","","","","Rate your confidence","1",""
"297.5999999642372","e","choice","left","e","experimental","1439","1108488","0.0-4.0-8.161","true","162","2.7499999999999996","","",""
"2563.199999988079","2","confid","","","html-slider-response","1441","1111573","0.0-4.0-10.161-0.161","","","","Rate your confidence","1",""
"1644.6000000238419","e","choice","right","i","experimental","1448","1115003","0.0-4.0-8.162","false","163","2.6499999999999995","","",""
"1521.9000000357628","1","confid","","","html-slider-response","1450","1117031","0.0-4.0-10.162-0.162","","","","Rate your confidence","1",""
"316.5","e","choice","left","e","experimental","1457","1119147","0.0-4.0-8.163","true","164","2.7499999999999996","","",""
"1326.800000011921","2","confid","","","html-slider-response","1459","1120978","0.0-4.0-10.163-0.163","","","","Rate your confidence","1",""
"863.5999999642372","e","choice","left","e","experimental","1466","1123630","0.0-4.0-8.164","true","165","2.7499999999999996","","",""
"2121.199999988079","5","confid","","","html-slider-response","1468","1126254","0.0-4.0-10.164-0.164","","","","Rate your confidence","1",""
"668","i","choice","right","i","experimental","1475","1128704","0.0-4.0-8.165","true","166","2.6499999999999995","","",""
"1087.1000000238419","4","confid","","","html-slider-response","1477","1130295","0.0-4.0-10.165-0.165","","","","Rate your confidence","1",""
"377.19999998807907","e","choice","left","e","experimental","1484","1132466","0.0-4.0-8.166","true","167","2.6499999999999995","","",""
"1136.1000000238419","4","confid","","","html-slider-response","1486","1134106","0.0-4.0-10.166-0.166","","","","Rate your confidence","1",""
"860","e","choice","right","i","experimental","1493","1136752","0.0-4.0-8.167","false","168","2.5499999999999994","","",""
"1093.4000000357628","3","confid","","","html-slider-response","1495","1138349","0.0-4.0-10.167-0.167","","","","Rate your confidence","1",""
"237.60000002384186","i","choice","right","i","experimental","1502","1140386","0.0-4.0-8.168","true","169","2.6499999999999995","","",""
"3681.199999988079","3","confid","","","html-slider-response","1504","1144573","0.0-4.0-10.168-0.168","","","","Rate your confidence","1",""
"669.1000000238419","e","choice","left","e","experimental","1511","1147047","0.0-4.0-8.169","true","170","2.6499999999999995","","",""
"1920.9000000357628","4","confid","","","html-slider-response","1513","1149472","0.0-4.0-10.169-0.169","","","","Rate your confidence","1",""
"580.3000000119209","i","choice","right","i","experimental","1520","1151843","0.0-4.0-8.170","true","171","2.5499999999999994","","",""
"2727.699999988079","2","confid","","","html-slider-response","1522","1155074","0.0-4.0-10.170-0.170","","","","Rate your confidence","1",""
"272.5999999642372","e","choice","left","e","experimental","1529","1157131","0.0-4.0-8.171","true","172","2.5499999999999994","","",""
"1545.3999999761581","5","confid","","","html-slider-response","1531","1159180","0.0-4.0-10.171-0.171","","","","Rate your confidence","1",""
"858.7999999523163","i","choice","left","e","experimental","1538","1161818","0.0-4.0-8.172","false","173","2.4499999999999993","","",""
"1293.5","1","confid","","","html-slider-response","1540","1163616","0.0-4.0-10.172-0.172","","","","Rate your confidence","1",""
"401.80000001192093","i","choice","right","i","experimental","1547","1165820","0.0-4.0-8.173","true","174","2.5499999999999994","","",""
"2593.800000011921","4","confid","","","html-slider-response","1549","1168918","0.0-4.0-10.173-0.173","","","","Rate your confidence","1",""
"336.10000002384186","e","choice","left","e","experimental","1556","1171040","0.0-4.0-8.174","true","175","2.5499999999999994","","",""
"1445.3999999761581","4","confid","","","html-slider-response","1558","1172990","0.0-4.0-10.174-0.174","","","","Rate your confidence","1",""
"732.5","i","choice","right","i","experimental","1565","1175511","0.0-4.0-8.175","true","176","2.4499999999999993","","",""
"1592.199999988079","2","confid","","","html-slider-response","1567","1177607","0.0-4.0-10.175-0.175","","","","Rate your confidence","1",""
"421.30000001192093","i","choice","left","e","experimental","1574","1179816","0.0-4.0-8.176","false","177","2.4499999999999993","","",""
"2085.899999976158","3","confid","","","html-slider-response","1576","1182406","0.0-4.0-10.176-0.176","","","","Rate your confidence","1",""
"229.19999998807907","i","choice","right","i","experimental","1583","1184422","0.0-4.0-8.177","true","178","2.5499999999999994","","",""
"1776.5999999642372","4","confid","","","html-slider-response","1585","1186703","0.0-4.0-10.177-0.177","","","","Rate your confidence","1",""
"938.3999999761581","e","choice","left","e","experimental","1592","1189424","0.0-4.0-8.178","true","179","2.5499999999999994","","",""
"1514.199999988079","2","confid","","","html-slider-response","1594","1191445","0.0-4.0-10.178-0.178","","","","Rate your confidence","1",""
"543.5999999642372","i","choice","right","i","experimental","1601","1193793","0.0-4.0-8.179","true","180","2.4499999999999993","","",""
"1750.3999999761581","4","confid","","","html-slider-response","1603","1196050","0.0-4.0-10.179-0.179","","","","Rate your confidence","1",""
"159.89999997615814","i","choice","right","i","experimental","1610","1198006","0.0-4.0-8.180","true","181","2.4499999999999993","","",""
"1254.699999988079","5","confid","","","html-slider-response","1612","1199778","0.0-4.0-10.180-0.180","","","","Rate your confidence","1",""
"734.6999999880791","i","choice","left","e","experimental","1619","1202309","0.0-4.0-8.181","false","182","2.349999999999999","","",""
"1882.300000011921","3","confid","","","html-slider-response","1621","1204695","0.0-4.0-10.181-0.181","","","","Rate your confidence","1",""
"1476.300000011921","e","choice","left","e","experimental","1628","1207963","0.0-4.0-8.182","true","183","2.4499999999999993","","",""
"1577.7000000476837","2","confid","","","html-slider-response","1630","1210044","0.0-4.0-10.182-0.182","","","","Rate your confidence","1",""
"702.8000000119209","i","choice","right","i","experimental","1637","1212554","0.0-4.0-8.183","true","184","2.4499999999999993","","",""
"3020.300000011921","3","confid","","","html-slider-response","1639","1216079","0.0-4.0-10.183-0.183","","","","Rate your confidence","1",""
"784.8999999761581","e","choice","left","e","experimental","1646","1218653","0.0-4.0-8.184","true","185","2.349999999999999","","",""
"1205.300000011921","2","confid","","","html-slider-response","1648","1220363","0.0-4.0-10.184-0.184","","","","Rate your confidence","1",""
"459.0999999642372","i","choice","right","i","experimental","1655","1222605","0.0-4.0-8.185","true","186","2.349999999999999","","",""
"1063.8999999761581","2","confid","","","html-slider-response","1657","1224173","0.0-4.0-10.185-0.185","","","","Rate your confidence","1",""
"291.89999997615814","i","choice","left","e","experimental","1664","1226257","0.0-4.0-8.186","false","187","2.249999999999999","","",""
"2807.199999988079","4","confid","","","html-slider-response","1666","1229569","0.0-4.0-10.186-0.186","","","","Rate your confidence","1",""
"410","e","choice","right","i","experimental","1673","1231777","0.0-4.0-8.187","false","188","2.349999999999999","","",""
"4070.399999976158","3","confid","","","html-slider-response","1675","1236355","0.0-4.0-10.187-0.187","","","","Rate your confidence","1",""
"958.3000000119209","i","choice","right","i","experimental","1682","1239120","0.0-4.0-8.188","true","189","2.4499999999999993","","",""
"2738.899999976158","2","confid","","","html-slider-response","1684","1242364","0.0-4.0-10.188-0.188","","","","Rate your confidence","1",""
"257.9000000357628","e","choice","left","e","experimental","1691","1244412","0.0-4.0-8.189","true","190","2.4499999999999993","","",""
"2066.600000023842","4","confid","","","html-slider-response","1693","1246986","0.0-4.0-10.189-0.189","","","","Rate your confidence","1",""
"418.10000002384186","e","choice","left","e","experimental","1700","1249184","0.0-4.0-8.190","true","191","2.349999999999999","","",""
"1252.8999999761581","4","confid","","","html-slider-response","1702","1250941","0.0-4.0-10.190-0.190","","","","Rate your confidence","1",""
"292.89999997615814","i","choice","right","i","experimental","1709","1253037","0.0-4.0-8.191","true","192","2.349999999999999","","",""
"1764.8999999761581","4","confid","","","html-slider-response","1711","1255306","0.0-4.0-10.191-0.191","","","","Rate your confidence","1",""
"42.60000002384186","e","choice","right","i","experimental","1718","1257139","0.0-4.0-8.192","false","193","2.249999999999999","","",""
"1500.699999988079","5","confid","","","html-slider-response","1720","1259143","0.0-4.0-10.192-0.192","","","","Rate your confidence","1",""
"937.6999999880791","e","choice","left","e","experimental","1727","1261868","0.0-4.0-8.193","true","194","2.349999999999999","","",""
"3216.899999976158","3","confid","","","html-slider-response","1729","1265591","0.0-4.0-10.193-0.193","","","","Rate your confidence","1","69449"
