"rt","response","task","target_side","correct_response","trial_type","trial_index","time_elapsed","internal_node_id","correct","trial_number","n_dots","stimulus","slider_start","participant"
"2913","e","choice","right","i","practice","10","147265","0.0-4.0-8.0","false","1","4.25","","",""
"421.30000001192093","e","choice","left","e","practice","18","150011","0.0-4.0-8.1","true","2","4.65","","",""
"453.80000001192093","i","choice","right","i","practice","26","152803","0.0-4.0-8.2","true","3","4.65","","",""
"420.80000001192093","e","choice","left","e","practice","34","155553","0.0-4.0-8.3","true","4","4.25","","",""
"470.19999998807907","i","choice","right","i","practice","42","158356","0.0-4.0-8.4","true","5","4.25","","",""
"489.4000000357628","e","choice","left","e","practice","50","161191","0.0-4.0-8.5","true","6","3.85","","",""
"319.89999997615814","e","choice","left","e","practice","58","163827","0.0-4.0-8.6","true","7","3.85","","",""
"993.6999999880791","i","choice","right","i","practice","66","167125","0.0-4.0-8.7","true","8","3.65","","",""
"604.5","e","choice","left","e","practice","74","170047","0.0-4.0-8.8","true","9","3.65","","",""
"756.3999999761581","i","choice","right","i","practice","82","173110","0.0-4.0-8.9","true","10","3.4499999999999997","","",""
"724.3999999761581","i","choice","right","i","practice","90","176149","0.0-4.0-8.10","true","11","3.4499999999999997","","",""
"374.30000001192093","e","choice","left","e","practice","98","178839","0.0-4.0-8.11","true","12","3.3499999999999996","","",""
"309.9000000357628","e","choice","left","e","practice","106","181485","0.0-4.0-8.12","true","13","3.3499999999999996","","",""
"3.199999988079071","i","choice","right","i","practice","114","183811","0.0-4.0-8.13","true","14","3.2499999999999996","","",""
"836.9000000357628","e","choice","left","e","practice","122","186972","0.0-4.0-8.14","true","15","3.2499999999999996","","",""
"313.5","i","choice","right","i","practice","130","189623","0.0-4.0-8.15","true","16","3.1499999999999995","","",""
"455.39999997615814","i","choice","right","i","practice","138","192404","0.0-4.0-8.16","true","17","3.1499999999999995","","",""
"659.3999999761581","e","choice","left","e","practice","146","195391","0.0-4.0-8.17","true","18","3.0499999999999994","","",""
"266.0999999642372","i","choice","right","i","practice","154","198006","0.0-4.0-8.18","true","19","3.0499999999999994","","",""
"410.69999998807907","e","choice","left","e","practice","162","200768","0.0-4.0-8.19","true","20","2.9499999999999993","","",""
"334","i","choice","right","i","practice","170","203434","0.0-4.0-8.20","true","21","2.9499999999999993","","",""
"337.5999999642372","e","choice","left","e","practice","178","206086","0.0-4.0-8.21","true","22","2.849999999999999","","",""
"453.39999997615814","i","choice","right","i","practice","186","208858","0.0-4.0-8.22","true","23","2.849999999999999","","",""
"638.6000000238419","i","choice","left","e","practice","194","211825","0.0-4.0-8.23","false","24","2.749999999999999","","",""
"572.2000000476837","i","choice","right","i","practice","202","214718","0.0-4.0-8.24","true","25","2.849999999999999","","",""
"374.19999998807907","e","choice","left","e","practice","210","217422","0.0-4.0-8.25","true","26","2.849999999999999","","",""
"478.60000002384186","e","choice","left","e","experimental","221","264635","0.0-4.0-8.26","true","27","2.749999999999999","","",""
"13366","4","confid","","","html-slider-response","223","278506","0.0-4.0-10.26-0.26","","","","Rate your confidence","1",""
"737.3000000119209","i","choice","right","i","experimental","230","281075","0.0-4.0-8.27","true","28","2.749999999999999","","",""
"5313.699999988079","4","confid","","","html-slider-response","232","286899","0.0-4.0-10.27-0.27","","","","Rate your confidence","1",""
"921.5","e","choice","left","e","experimental","239","289660","0.0-4.0-8.28","true","29","2.649999999999999","","",""
"4143.800000011921","5","confid","","","html-slider-response","241","294312","0.0-4.0-10.28-0.28","","","","Rate your confidence","1",""
"1192.300000011921","e","choice","right","i","experimental","248","297320","0.0-4.0-8.29","false","30","2.649999999999999","","",""
"3997.5","2","confid","","","html-slider-response","250","301836","0.0-4.0-10.29-0.29","","","","Rate your confidence","1",""
"1174.5","e","choice","right","i","experimental","257","304844","0.0-4.0-8.30","false","31","2.749999999999999","","",""
"4982.900000035763","2","confid","","","html-slider-response","259","310333","0.0-4.0-10.30-0.30","","","","Rate your confidence","1",""
"572.5","e","choice","left","e","experimental","266","312721","0.0-4.0-8.31","true","32","2.849999999999999","","",""
"4079.7000000476837","3","confid","","","html-slider-response","268","317307","0.0-4.0-10.31-0.31","","","","Rate your confidence","1",""
"722.8000000119209","i","choice","right","i","experimental","275","319841","0.0-4.0-8.32","true","33","2.849999999999999","","",""
"4380.800000011921","4","confid","","","html-slider-response","277","324744","0.0-4.0-10.32-0.32","","","","Rate your confidence","1",""
"534.5","e","choice","left","e","experimental","284","327089","0.0-4.0-8.33","true","34","2.749999999999999","","",""
"4143.699999988079","4","confid","","","html-slider-response","286","331737","0.0-4.0-10.33-0.33","","","","Rate your confidence","1",""
"713.2999999523163","i","choice","right","i","experimental","293","334281","0.0-4.0-8.34","true","35","2.749999999999999","","",""
"5666","4","confid","","","html-slider-response","295","340457","0.0-4.0-10.34-0.34","","","","Rate your confidence","1",""
"467.19999998807907","e","choice","left","e","experimental","302","342730","0.0-4.0-8.35","true","36","2.649999999999999","","",""
"3793","5","confid","","","html-slider-response","304","347030","0.0-4.0-10.35-0.35","","","","Rate your confidence","1",""
"506.5","e","choice","left","e","experimental","311","349342","0.0-4.0-8.36","true","37","2.649999999999999","","",""
"3369.300000011921","3","confid","","","html-slider-response","313","353220","0.0-4.0-10.36-0.36","","","","Rate your confidence","1",""
"462.9000000357628","i","choice","right","i","experimental","320","355499","0.0-4.0-8.37","true","38","2.549999999999999","","",""
"3417.7999999523163","4","confid","","","html-slider-response","322","359420","0.0-4.0-10.37-0.37","","","","Rate your confidence","1",""
"832.4000000357628","e","choice","left","e","experimental","329","362067","0.0-4.0-8.38","true","39","2.549999999999999","","",""
"3977.399999976158","3","confid","","","html-slider-response","331","366556","0.0-4.0-10.38-0.38","","","","Rate your confidence","1",""
"487.19999998807907","e","choice","right","i","experimental","338","368867","0.0-4.0-8.39","false","40","2.449999999999999","","",""
"4657.400000035763","3","confid","","","html-slider-response","340","374029","0.0-4.0-10.39-0.39","","","","Rate your confidence","1",""
"596.2999999523163","i","choice","right","i","experimental","347","376431","0.0-4.0-8.40","true","41","2.549999999999999","","",""
"4564.599999964237","4","confid","","","html-slider-response","349","381513","0.0-4.0-10.40-0.40","","","","Rate your confidence","1",""
"477.10000002384186","e","choice","left","e","experimental","356","383808","0.0-4.0-8.41","true","42","2.549999999999999","","",""
"3988","5","confid","","","html-slider-response","358","388302","0.0-4.0-10.41-0.41","","","","Rate your confidence","1",""
"977.9000000357628","e","choice","right","i","experimental","365","391100","0.0-4.0-8.42","false","43","2.449999999999999","","",""
"4818.199999988079","3","confid","","","html-slider-response","367","396426","0.0-4.0-10.42-0.42","","","","Rate your confidence","1",""
"458","i","choice","left","e","experimental","374","398689","0.0-4.0-8.43","false","44","2.549999999999999","","",""
"3666.399999976158","2","confid","","","html-slider-response","376","402875","0.0-4.0-10.43-0.43","","","","Rate your confidence","1",""
"443.80000001192093","e","choice","left","e","experimental","383","405127","0.0-4.0-8.44","true","45","2.649999999999999","","",""
"4166.800000011921","4","confid","","","html-slider-response","385","409800","0.0-4.0-10.44-0.44","","","","Rate your confidence","1",""
"969.8999999761581","i","choice","right","i","experimental","392","412602","0.0-4.0-8.45","true","46","2.649999999999999","","",""
"3456.300000011921","2","confid","","","html-slider-response","394","416576","0.0-4.0-10.45-0.45","","","","Rate your confidence","1",""
"480.19999998807907","e","choice","right","i","experimental","401","418879","0.0-4.0-8.46","false","47","2.549999999999999","","",""
"4511.800000011921","3","confid","","","html-slider-response","403","423901","0.0-4.0-10.46-0.46","","","","Rate your confidence","1",""
"390.80000001192093","i","choice","left","e","experimental","410","426116","0.0-4.0-8.47","false","48","2.649999999999999","","",""
"3225.699999988079","4","confid","","","html-slider-response","412","429845","0.0-4.0-10.47-0.47","","","","Rate your confidence","1",""
"331.5","e","choice","left","e","experimental","419","431996","0.0-4.0-8.48","true","49","2.749999999999999","","",""
"4044.900000035763","4","confid","","","html-slider-response","421","436549","0.0-4.0-10.48-0.48","","","","Rate your confidence","1",""
"268","e","choice","right","i","experimental","428","438635","0.0-4.0-8.49","false","50","2.749999999999999","","",""
"3951.199999988079","4","confid","","","html-slider-response","430","443095","0.0-4.0-10.49-0.49","","","","Rate your confidence","1",""
"403.2000000476837","e","choice","left","e","experimental","437","445322","0.0-4.0-8.50","true","51","2.849999999999999","","",""
"4213.799999952316","2","confid","","","html-slider-response","439","450043","0.0-4.0-10.50-0.50","","","","Rate your confidence","1",""
"455.89999997615814","e","choice","right","i","experimental","446","452318","0.0-4.0-8.51","false","52","2.849999999999999","","",""
"5339.600000023842","4","confid","","","html-slider-response","448","458168","0.0-4.0-10.51-0.51","","","","Rate your confidence","1",""
"381","e","choice","left","e","experimental","455","460371","0.0-4.0-8.52","true","53","2.9499999999999993","","",""
"2974","2","confid","","","html-slider-response","457","463859","0.0-4.0-10.52-0.52","","","","Rate your confidence","1",""
"464.30000001192093","e","choice","right","i","experimental","464","466157","0.0-4.0-8.53","false","54","2.9499999999999993","","",""
"3240.5","3","confid","","","html-slider-response","466","469908","0.0-4.0-10.53-0.53","","","","Rate your confidence","1",""
"624.3999999761581","e","choice","right","i","experimental","473","472347","0.0-4.0-8.54","false","55","3.0499999999999994","","",""
"4194","2","confid","","","html-slider-response","475","477060","0.0-4.0-10.54-0.54","","","","Rate your confidence","1",""
"1163.4000000357628","e","choice","left","e","experimental","482","480028","0.0-4.0-8.55","true","56","3.1499999999999995","","",""
"2770.100000023842","4","confid","","","html-slider-response","484","483313","0.0-4.0-10.55-0.55","","","","Rate your confidence","1",""
"527.5999999642372","i","choice","left","e","experimental","491","485655","0.0-4.0-8.56","false","57","3.1499999999999995","","",""
"2773.699999988079","3","confid","","","html-slider-response","493","488941","0.0-4.0-10.56-0.56","","","","Rate your confidence","1",""
"1020.1999999880791","i","choice","right","i","experimental","500","491778","0.0-4.0-8.57","true","58","3.2499999999999996","","",""
"3936.900000035763","3","confid","","","html-slider-response","502","496222","0.0-4.0-10.57-0.57","","","","Rate your confidence","1",""
"1277.9000000357628","i","choice","right","i","experimental","509","499307","0.0-4.0-8.58","true","59","3.2499999999999996","","",""
"4352.200000047684","2","confid","","","html-slider-response","511","504157","0.0-4.0-10.58-0.58","","","","Rate your confidence","1",""
"450.5999999642372","e","choice","left","e","experimental","518","506431","0.0-4.0-8.59","true","60","3.1499999999999995","","",""
"4507","5","confid","","","html-slider-response","520","511454","0.0-4.0-10.59-0.59","","","","Rate your confidence","1",""
"454.5","e","choice","left","e","experimental","527","513737","0.0-4.0-8.60","true","61","3.1499999999999995","","",""
"3655.199999988079","5","confid","","","html-slider-response","529","517897","0.0-4.0-10.60-0.60","","","","Rate your confidence","1",""
"310.19999998807907","e","choice","right","i","experimental","536","520024","0.0-4.0-8.61","false","62","3.0499999999999994","","",""
"3981.199999988079","5","confid","","","html-slider-response","538","524510","0.0-4.0-10.61-0.61","","","","Rate your confidence","1",""
"555.6000000238419","e","choice","left","e","experimental","545","526888","0.0-4.0-8.62","true","63","3.1499999999999995","","",""
"3545.699999988079","3","confid","","","html-slider-response","547","530938","0.0-4.0-10.62-0.62","","","","Rate your confidence","1",""
"651.4000000357628","i","choice","right","i","experimental","554","533402","0.0-4.0-8.63","true","64","3.1499999999999995","","",""
"9673","2","confid","","","html-slider-response","556","543583","0.0-4.0-10.63-0.63","","","","Rate your confidence","1",""
"359.69999998807907","e","choice","left","e","experimental","563","545756","0.0-4.0-8.64","true","65","3.0499999999999994","","",""
"2969.400000035763","5","confid","","","html-slider-response","565","549236","0.0-4.0-10.64-0.64","","","","Rate your confidence","1",""
"489.0999999642372","i","choice","right","i","experimental","572","551548","0.0-4.0-8.65","true","66","3.0499999999999994","","",""
"2943.199999988079","4","confid","","","html-slider-response","574","555009","0.0-4.0-10.65-0.65","","","","Rate your confidence","1",""
"353.19999998807907","e","choice","left","e","experimental","581","557187","0.0-4.0-8.66","true","67","2.9499999999999993","","",""
"3616.699999988079","4","confid","","","html-slider-response","583","561318","0.0-4.0-10.66-0.66","","","","Rate your confidence","1",""
"497.10000002384186","i","choice","right","i","experimental","590","563647","0.0-4.0-8.67","true","68","2.9499999999999993","","",""
"2847.800000011921","4","confid","","","html-slider-response","592","567005","0.0-4.0-10.67-0.67","","","","Rate your confidence","1",""
"858.2000000476837","i","choice","right","i","experimental","600","672966","0.0-4.0-8.68","true","69","2.849999999999999","","",""
"9758.199999988079","3","confid","","","html-slider-response","602","683244","0.0-4.0-10.68-0.68","","","","Rate your confidence","1",""
"462.5","e","choice","left","e","experimental","609","685520","0.0-4.0-8.69","true","70","2.849999999999999","","",""
"9500.299999952316","5","confid","","","html-slider-response","611","695524","0.0-4.0-10.69-0.69","","","","Rate your confidence","1",""
"587.9000000357628","i","choice","right","i","experimental","618","697941","0.0-4.0-8.70","true","71","2.749999999999999","","",""
"2748.899999976158","2","confid","","","html-slider-response","620","701198","0.0-4.0-10.70-0.70","","","","Rate your confidence","1",""
"275","e","choice","left","e","experimental","627","703309","0.0-4.0-8.71","true","72","2.749999999999999","","",""
"3913.100000023842","4","confid","","","html-slider-response","629","707737","0.0-4.0-10.71-0.71","","","","Rate your confidence","1",""
"6890.399999976158","e","choice","left","e","experimental","636","716450","0.0-4.0-8.72","true","73","2.649999999999999","","",""
"2792.5","4","confid","","","html-slider-response","638","719750","0.0-4.0-10.72-0.72","","","","Rate your confidence","1",""
"496.2999999523163","i","choice","right","i","experimental","645","722062","0.0-4.0-8.73","true","74","2.649999999999999","","",""
"3950.7000000476837","4","confid","","","html-slider-response","647","726523","0.0-4.0-10.73-0.73","","","","Rate your confidence","1",""
"510.69999998807907","i","choice","left","e","experimental","654","728849","0.0-4.0-8.74","false","75","2.549999999999999","","",""
"3089.399999976158","2","confid","","","html-slider-response","656","732447","0.0-4.0-10.74-0.74","","","","Rate your confidence","1",""
"307.80000001192093","e","choice","right","i","experimental","663","734562","0.0-4.0-8.75","false","76","2.649999999999999","","",""
"3053.600000023842","3","confid","","","html-slider-response","665","738123","0.0-4.0-10.75-0.75","","","","Rate your confidence","1",""
"568.9000000357628","e","choice","right","i","experimental","672","740518","0.0-4.0-8.76","false","77","2.749999999999999","","",""
"3985.600000023842","3","confid","","","html-slider-response","674","745013","0.0-4.0-10.76-0.76","","","","Rate your confidence","1",""
"275.5","e","choice","left","e","experimental","681","747111","0.0-4.0-8.77","true","78","2.849999999999999","","",""
"4011.5","4","confid","","","html-slider-response","683","751630","0.0-4.0-10.77-0.77","","","","Rate your confidence","1",""
"379.30000001192093","e","choice","left","e","experimental","690","753822","0.0-4.0-8.78","true","79","2.849999999999999","","",""
"3104.5","4","confid","","","html-slider-response","692","757434","0.0-4.0-10.78-0.78","","","","Rate your confidence","1",""
"615.7000000476837","i","choice","right","i","experimental","699","759873","0.0-4.0-8.79","true","80","2.749999999999999","","",""
"6988.900000035763","2","confid","","","html-slider-response","701","767365","0.0-4.0-10.79-0.79","","","","Rate your confidence","1",""
"928.0999999642372","i","choice","left","e","experimental","708","770111","0.0-4.0-8.80","false","81","2.749999999999999","","",""
"6042.100000023842","3","confid","","","html-slider-response","710","776664","0.0-4.0-10.80-0.80","","","","Rate your confidence","1",""
"613.9000000357628","i","choice","right","i","experimental","717","779084","0.0-4.0-8.81","true","82","2.849999999999999","","",""
"2487.800000011921","3","confid","","","html-slider-response","719","782077","0.0-4.0-10.81-0.81","","","","Rate your confidence","1",""
"768.1000000238419","i","choice","right","i","experimental","726","784652","0.0-4.0-8.82","true","83","2.849999999999999","","",""
"2788.800000011921","3","confid","","","html-slider-response","728","787944","0.0-4.0-10.82-0.82","","","","Rate your confidence","1",""
"784.5","e","choice","left","e","experimental","735","790550","0.0-4.0-8.83","true","84","2.749999999999999","","",""
"3385.599999964237","4","confid","","","html-slider-response","737","794455","0.0-4.0-10.83-0.83","","","","Rate your confidence","1",""
"676","e","choice","left","e","experimental","744","796937","0.0-4.0-8.84","true","85","2.749999999999999","","",""
"3077.2000000476837","4","confid","","","html-slider-response","746","800530","0.0-4.0-10.84-0.84","","","","Rate your confidence","1",""
"1717.6000000238419","e","choice","right","i","experimental","753","804064","0.0-4.0-8.85","false","86","2.649999999999999","","",""
"4247.899999976158","4","confid","","","html-slider-response","755","808827","0.0-4.0-10.85-0.85","","","","Rate your confidence","1",""
"1930.2000000476837","e","choice","left","e","experimental","762","812573","0.0-4.0-8.86","true","87","2.749999999999999","","",""
"2752.400000035763","4","confid","","","html-slider-response","764","815847","0.0-4.0-10.86-0.86","","","","Rate your confidence","1",""
"1183.0999999642372","i","choice","right","i","experimental","771","818842","0.0-4.0-8.87","true","88","2.749999999999999","","",""
"2082.099999964237","3","confid","","","html-slider-response","773","821436","0.0-4.0-10.87-0.87","","","","Rate your confidence","1",""
"1280.300000011921","i","choice","right","i","experimental","780","824546","0.0-4.0-8.88","true","89","2.649999999999999","","",""
"3576.899999976158","3","confid","","","html-slider-response","782","828633","0.0-4.0-10.88-0.88","","","","Rate your confidence","1",""
"1942.7999999523163","e","choice","left","e","experimental","789","832398","0.0-4.0-8.89","true","90","2.649999999999999","","",""
"3757.5","3","confid","","","html-slider-response","791","836660","0.0-4.0-10.89-0.89","","","","Rate your confidence","1",""
"783.8000000119209","i","choice","right","i","experimental","798","839270","0.0-4.0-8.90","true","91","2.549999999999999","","",""
"2843.600000023842","4","confid","","","html-slider-response","800","842617","0.0-4.0-10.90-0.90","","","","Rate your confidence","1",""
"789.5","e","choice","left","e","experimental","807","845226","0.0-4.0-8.91","true","92","2.549999999999999","","",""
"3784.5","5","confid","","","html-slider-response","809","849516","0.0-4.0-10.91-0.91","","","","Rate your confidence","1",""
"750.1000000238419","i","choice","right","i","experimental","816","852084","0.0-4.0-8.92","true","93","2.449999999999999","","",""
"2205.900000035763","5","confid","","","html-slider-response","818","854795","0.0-4.0-10.92-0.92","","","","Rate your confidence","1",""
"825.8999999761581","e","choice","left","e","experimental","825","857446","0.0-4.0-8.93","true","94","2.449999999999999","","",""
"2147.400000035763","4","confid","","","html-slider-response","827","860103","0.0-4.0-10.93-0.93","","","","Rate your confidence","1",""
"603.1999999880791","e","choice","left","e","experimental","834","862535","0.0-4.0-8.94","true","95","2.3499999999999988","","",""
"2754.899999976158","5","confid","","","html-slider-response","836","865806","0.0-4.0-10.94-0.94","","","","Rate your confidence","1",""
"1280.699999988079","e","choice","right","i","experimental","843","868916","0.0-4.0-8.95","false","96","2.3499999999999988","","",""
"3602.899999976158","2","confid","","","html-slider-response","845","873037","0.0-4.0-10.95-0.95","","","","Rate your confidence","1",""
"589.2999999523163","e","choice","left","e","experimental","852","875455","0.0-4.0-8.96","true","97","2.449999999999999","","",""
"2208","4","confid","","","html-slider-response","854","878180","0.0-4.0-10.96-0.96","","","","Rate your confidence","1",""
"641.2000000476837","e","choice","right","i","experimental","861","880636","0.0-4.0-8.97","false","98","2.449999999999999","","",""
"3206.599999964237","4","confid","","","html-slider-response","863","884360","0.0-4.0-10.97-0.97","","","","Rate your confidence","1",""
"589.8000000119209","i","choice","right","i","experimental","870","886783","0.0-4.0-8.98","true","99","2.549999999999999","","",""
"2359.100000023842","4","confid","","","html-slider-response","872","889648","0.0-4.0-10.98-0.98","","","","Rate your confidence","1",""
"1519.0999999642372","e","choice","left","e","experimental","879","892999","0.0-4.0-8.99","true","100","2.549999999999999","","",""
"9132.100000023842","3","confid","","","html-slider-response","881","902643","0.0-4.0-10.99-0.99","","","","Rate your confidence","1",""
"879.6000000238419","e","choice","left","e","experimental","888","905340","0.0-4.0-8.100","true","101","2.449999999999999","","",""
"3022.5","3","confid","","","html-slider-response","890","908885","0.0-4.0-10.100-0.100","","","","Rate your confidence","1",""
"1843.6000000238419","e","choice","right","i","experimental","897","912541","0.0-4.0-8.101","false","102","2.449999999999999","","",""
"3277.699999988079","2","confid","","","html-slider-response","899","916326","0.0-4.0-10.101-0.101","","","","Rate your confidence","1",""
"784.1999999880791","i","choice","left","e","experimental","906","918935","0.0-4.0-8.102","false","103","2.549999999999999","","",""
"2736.800000011921","3","confid","","","html-slider-response","908","922183","0.0-4.0-10.102-0.102","","","","Rate your confidence","1",""
"1001.9000000357628","e","choice","right","i","experimental","915","925000","0.0-4.0-8.103","false","104","2.649999999999999","","",""
"3346.899999976158","3","confid","","","html-slider-response","917","928856","0.0-4.0-10.103-0.103","","","","Rate your confidence","1",""
"676.9000000357628","e","choice","left","e","experimental","924","931353","0.0-4.0-8.104","true","105","2.749999999999999","","",""
"2351.7000000476837","3","confid","","","html-slider-response","926","934223","0.0-4.0-10.104-0.104","","","","Rate your confidence","1",""
"1304.4000000357628","i","choice","right","i","experimental","933","937332","0.0-4.0-8.105","true","106","2.749999999999999","","",""
"2545.199999988079","3","confid","","","html-slider-response","935","940396","0.0-4.0-10.105-0.105","","","","Rate your confidence","1",""
"1653.3999999761581","e","choice","left","e","experimental","942","943864","0.0-4.0-8.106","true","107","2.649999999999999","","",""
"3349.599999964237","3","confid","","","html-slider-response","944","947719","0.0-4.0-10.106-0.106","","","","Rate your confidence","1",""
"778.1999999880791","i","choice","right","i","experimental","951","950328","0.0-4.0-8.107","true","108","2.649999999999999","","",""
"2976.600000023842","4","confid","","","html-slider-response","953","953809","0.0-4.0-10.107-0.107","","","","Rate your confidence","1",""
"732","i","choice","right","i","experimental","960","956364","0.0-4.0-8.108","true","109","2.549999999999999","","",""
"2443.2000000476837","4","confid","","","html-slider-response","962","959322","0.0-4.0-10.108-0.108","","","","Rate your confidence","1",""
"581.6999999880791","i","choice","left","e","experimental","969","961725","0.0-4.0-8.109","false","110","2.549999999999999","","",""
"1941.7999999523163","4","confid","","","html-slider-response","971","964171","0.0-4.0-10.109-0.109","","","","Rate your confidence","1",""
"1226.8999999761581","e","choice","left","e","experimental","979","1385035","0.0-4.0-8.110","true","111","2.649999999999999","","",""
"4524","2","confid","","","html-slider-response","981","1390081","0.0-4.0-10.110-0.110","","","","Rate your confidence","1",""
"671.3000000119209","i","choice","right","i","experimental","988","1392566","0.0-4.0-8.111","true","112","2.649999999999999","","",""
"2520.2000000476837","4","confid","","","html-slider-response","990","1395590","0.0-4.0-10.111-0.111","","","","Rate your confidence","1",""
"692.8000000119209","i","choice","right","i","experimental","997","1398121","0.0-4.0-8.112","true","113","2.549999999999999","","",""
"2545.600000023842","4","confid","","","html-slider-response","999","1401181","0.0-4.0-10.112-0.112","","","","Rate your confidence","1",""
"786","e","choice","left","e","experimental","1006","1403789","0.0-4.0-8.113","true","114","2.549999999999999","","",""
"2288.800000011921","4","confid","","","html-slider-response","1008","1406588","0.0-4.0-10.113-0.113","","","","Rate your confidence","1",""
"601.6999999880791","e","choice","left","e","experimental","1015","1409004","0.0-4.0-8.114","true","115","2.449999999999999","","",""
"2643.400000035763","4","confid","","","html-slider-response","1017","1412157","0.0-4.0-10.114-0.114","","","","Rate your confidence","1",""
"967.7000000476837","e","choice","right","i","experimental","1024","1414929","0.0-4.0-8.115","false","116","2.449999999999999","","",""
"2582.800000011921","2","confid","","","html-slider-response","1026","1418041","0.0-4.0-10.115-0.115","","","","Rate your confidence","1",""
"759","i","choice","right","i","experimental","1033","1420606","0.0-4.0-8.116","true","117","2.549999999999999","","",""
"11325.300000011921","3","confid","","","html-slider-response","1035","1432436","0.0-4.0-10.116-0.116","","","","Rate your confidence","1",""
"638","i","choice","left","e","experimental","1042","1434885","0.0-4.0-8.117","false","118","2.549999999999999","","",""
"2072.5","4","confid","","","html-slider-response","1044","1437476","0.0-4.0-10.117-0.117","","","","Rate your confidence","1",""
"598.0999999642372","i","choice","right","i","experimental","1051","1439889","0.0-4.0-8.118","true","119","2.649999999999999","","",""
"4190.099999964237","4","confid","","","html-slider-response","1053","1444584","0.0-4.0-10.118-0.118","","","","Rate your confidence","1",""
"551.5999999642372","e","choice","left","e","experimental","1060","1446961","0.0-4.0-8.119","true","120","2.649999999999999","","",""
"2314.400000035763","4","confid","","","html-slider-response","1062","1449795","0.0-4.0-10.119-0.119","","","","Rate your confidence","1",""
"808.2000000476837","i","choice","right","i","experimental","1069","1452417","0.0-4.0-8.120","true","121","2.549999999999999","","",""
"4426.599999964237","2","confid","","","html-slider-response","1071","1457355","0.0-4.0-10.120-0.120","","","","Rate your confidence","1",""
"835.6999999880791","i","choice","left","e","experimental","1078","1460002","0.0-4.0-8.121","false","122","2.549999999999999","","",""
"2379.5","4","confid","","","html-slider-response","1080","1462889","0.0-4.0-10.121-0.121","","","","Rate your confidence","1",""
"581.5","e","choice","left","e","experimental","1087","1465291","0.0-4.0-8.122","true","123","2.649999999999999","","",""
"2681.699999988079","3","confid","","","html-slider-response","1089","1468478","0.0-4.0-10.122-0.122","","","","Rate your confidence","1",""
"811.3000000119209","i","choice","right","i","experimental","1096","1471119","0.0-4.0-8.123","true","124","2.649999999999999","","",""
"3003.800000011921","2","confid","","","html-slider-response","1098","1474647","0.0-4.0-10.123-0.123","","","","Rate your confidence","1",""
"889.8000000119209","i","choice","right","i","experimental","1105","1477351","0.0-4.0-8.124","true","125","2.549999999999999","","",""
"2694","2","confid","","","html-slider-response","1107","1480557","0.0-4.0-10.124-0.124","","","","Rate your confidence","1",""
"504.2999999523163","e","choice","left","e","experimental","1114","1482893","0.0-4.0-8.125","true","126","2.549999999999999","","",""
"2089.5","3","confid","","","html-slider-response","1116","1485486","0.0-4.0-10.125-0.125","","","","Rate your confidence","1",""
"899.5","e","choice","left","e","experimental","1123","1488201","0.0-4.0-8.126","true","127","2.449999999999999","","",""
"3312.300000011921","3","confid","","","html-slider-response","1125","1492020","0.0-4.0-10.126-0.126","","","","Rate your confidence","1",""
"790.3999999761581","i","choice","right","i","experimental","1132","1494633","0.0-4.0-8.127","true","128","2.449999999999999","","",""
"2302.399999976158","5","confid","","","html-slider-response","1134","1497441","0.0-4.0-10.127-0.127","","","","Rate your confidence","1",""
"577.3000000119209","i","choice","right","i","experimental","1141","1499842","0.0-4.0-8.128","true","129","2.3499999999999988","","",""
"1832.8999999761581","4","confid","","","html-slider-response","1143","1502186","0.0-4.0-10.128-0.128","","","","Rate your confidence","1",""
"951","e","choice","left","e","experimental","1150","1504952","0.0-4.0-8.129","true","130","2.3499999999999988","","",""
"1723.300000011921","2","confid","","","html-slider-response","1152","1507179","0.0-4.0-10.129-0.129","","","","Rate your confidence","1",""
"607.1999999880791","i","choice","right","i","experimental","1159","1509623","0.0-4.0-8.130","true","131","2.2499999999999987","","",""
"2422.5","4","confid","","","html-slider-response","1161","1512549","0.0-4.0-10.130-0.130","","","","Rate your confidence","1",""
"905.1000000238419","e","choice","left","e","experimental","1168","1515272","0.0-4.0-8.131","true","132","2.2499999999999987","","",""
"2195.2999999523163","2","confid","","","html-slider-response","1170","1517986","0.0-4.0-10.131-0.131","","","","Rate your confidence","1",""
"560.4000000357628","i","choice","right","i","experimental","1177","1520367","0.0-4.0-8.132","true","133","2.1499999999999986","","",""
"2731.600000023842","3","confid","","","html-slider-response","1179","1523610","0.0-4.0-10.132-0.132","","","","Rate your confidence","1",""
"661.1999999880791","i","choice","left","e","experimental","1186","1526076","0.0-4.0-8.133","false","134","2.1499999999999986","","",""
"1785.8999999761581","3","confid","","","html-slider-response","1188","1528375","0.0-4.0-10.133-0.133","","","","Rate your confidence","1",""
"766.5999999642372","i","choice","right","i","experimental","1195","1530948","0.0-4.0-8.134","true","135","2.2499999999999987","","",""
"5928.199999988079","1","confid","","","html-slider-response","1197","1537388","0.0-4.0-10.134-0.134","","","","Rate your confidence","1",""
"1252.6000000238419","e","choice","left","e","experimental","1204","1540465","0.0-4.0-8.135","true","136","2.2499999999999987","","",""
"1808.800000011921","2","confid","","","html-slider-response","1206","1542778","0.0-4.0-10.135-0.135","","","","Rate your confidence","1",""
"737.8999999761581","i","choice","right","i","experimental","1213","1545331","0.0-4.0-8.136","true","137","2.1499999999999986","","",""
"1592.3999999761581","4","confid","","","html-slider-response","1215","1547433","0.0-4.0-10.136-0.136","","","","Rate your confidence","1",""
"631","i","choice","left","e","experimental","1222","1549888","0.0-4.0-8.137","false","138","2.1499999999999986","","",""
"2865.300000011921","3","confid","","","html-slider-response","1224","1553257","0.0-4.0-10.137-0.137","","","","Rate your confidence","1",""
"668.5","e","choice","right","i","experimental","1231","1555757","0.0-4.0-8.138","false","139","2.2499999999999987","","",""
"2749.5","3","confid","","","html-slider-response","1233","1559008","0.0-4.0-10.138-0.138","","","","Rate your confidence","1",""
"774.8999999761581","i","choice","left","e","experimental","1240","1561593","0.0-4.0-8.139","false","140","2.3499999999999988","","",""
"3808.800000011921","2","confid","","","html-slider-response","1242","1565914","0.0-4.0-10.139-0.139","","","","Rate your confidence","1",""
"635.1999999880791","i","choice","left","e","experimental","1249","1568365","0.0-4.0-8.140","false","141","2.449999999999999","","",""
"2027.800000011921","2","confid","","","html-slider-response","1251","1570909","0.0-4.0-10.140-0.140","","","","Rate your confidence","1",""
"751.6999999880791","e","choice","right","i","experimental","1258","1573490","0.0-4.0-8.141","false","142","2.549999999999999","","",""
"5330.5","2","confid","","","html-slider-response","1260","1579324","0.0-4.0-10.141-0.141","","","","Rate your confidence","1",""
"863.5","i","choice","left","e","experimental","1267","1582001","0.0-4.0-8.142","false","143","2.649999999999999","","",""
"3014.400000035763","3","confid","","","html-slider-response","1269","1585528","0.0-4.0-10.142-0.142","","","","Rate your confidence","1",""
"831.5","e","choice","right","i","experimental","1276","1588176","0.0-4.0-8.143","false","144","2.749999999999999","","",""
"1958.3999999761581","2","confid","","","html-slider-response","1278","1590646","0.0-4.0-10.143-0.143","","","","Rate your confidence","1",""
"670.1999999880791","i","choice","left","e","experimental","1285","1593126","0.0-4.0-8.144","false","145","2.849999999999999","","",""
"2198.300000011921","3","confid","","","html-slider-response","1287","1595838","0.0-4.0-10.144-0.144","","","","Rate your confidence","1",""
"728.8000000119209","i","choice","right","i","experimental","1294","1598392","0.0-4.0-8.145","true","146","2.9499999999999993","","",""
"2544","3","confid","","","html-slider-response","1296","1601446","0.0-4.0-10.145-0.145","","","","Rate your confidence","1",""
"1405.6000000238419","e","choice","left","e","experimental","1303","1604684","0.0-4.0-8.146","true","147","2.9499999999999993","","",""
"1748.0999999642372","3","confid","","","html-slider-response","1305","1606937","0.0-4.0-10.146-0.146","","","","Rate your confidence","1",""
"616.5","i","choice","right","i","experimental","1312","1609373","0.0-4.0-8.147","true","148","2.849999999999999","","",""
"2161.400000035763","3","confid","","","html-slider-response","1314","1612045","0.0-4.0-10.147-0.147","","","","Rate your confidence","1",""
"662.8000000119209","e","choice","right","i","experimental","1321","1614522","0.0-4.0-8.148","false","149","2.849999999999999","","",""
"2873.5","3","confid","","","html-slider-response","1323","1617901","0.0-4.0-10.148-0.148","","","","Rate your confidence","1",""
"803.6000000238419","e","choice","left","e","experimental","1330","1620519","0.0-4.0-8.149","true","150","2.9499999999999993","","",""
"3096.5","3","confid","","","html-slider-response","1332","1624122","0.0-4.0-10.149-0.149","","","","Rate your confidence","1",""
"785.5","e","choice","left","e","experimental","1339","1626723","0.0-4.0-8.150","true","151","2.9499999999999993","","",""
"5359.200000047684","2","confid","","","html-slider-response","1341","1632592","0.0-4.0-10.150-0.150","","","","Rate your confidence","1",""
"1655.199999988079","i","choice","right","i","experimental","1348","1636070","0.0-4.0-8.151","true","152","2.849999999999999","","",""
"2377.800000011921","1","confid","","","html-slider-response","1350","1638951","0.0-4.0-10.151-0.151","","","","Rate your confidence","1",""
"775.6999999880791","i","choice","right","i","experimental","1358","2139606","0.0-4.0-8.152","true","153","2.849999999999999","","",""
"3737.7000000476837","3","confid","","","html-slider-response","1360","2143847","0.0-4.0-10.152-0.152","","","","Rate your confidence","1",""
"971.7999999523163","e","choice","left","e","experimental","1367","2146632","0.0-4.0-8.153","true","154","2.749999999999999","","",""
"2445.099999964237","2","confid","","","html-slider-response","1369","2149584","0.0-4.0-10.153-0.153","","","","Rate your confidence","1",""
"627.8000000119209","i","choice","right","i","experimental","1376","2152023","0.0-4.0-8.154","true","155","2.749999999999999","","",""
"3624.800000011921","5","confid","","","html-slider-response","1378","2156155","0.0-4.0-10.154-0.154","","","","Rate your confidence","1",""
"510.4000000357628","i","choice","left","e","experimental","1385","2158487","0.0-4.0-8.155","false","156","2.649999999999999","","",""
"1838.6000000238419","2","confid","","","html-slider-response","1387","2160831","0.0-4.0-10.155-0.155","","","","Rate your confidence","1",""
"909.3999999761581","e","choice","left","e","experimental","1394","2163564","0.0-4.0-8.156","true","157","2.749999999999999","","",""
"1961","3","confid","","","html-slider-response","1396","2166031","0.0-4.0-10.156-0.156","","","","Rate your confidence","1",""
"463.69999998807907","i","choice","right","i","experimental","1403","2168318","0.0-4.0-8.157","true","158","2.749999999999999","","",""
"2345.899999976158","5","confid","","","html-slider-response","1405","2171183","0.0-4.0-10.157-0.157","","","","Rate your confidence","1",""
"550.8000000119209","i","choice","left","e","experimental","1412","2173571","0.0-4.0-8.158","false","159","2.649999999999999","","",""
"2352.699999988079","3","confid","","","html-slider-response","1414","2176436","0.0-4.0-10.158-0.158","","","","Rate your confidence","1",""
"831.1999999880791","i","choice","right","i","experimental","1421","2179090","0.0-4.0-8.159","true","160","2.749999999999999","","",""
"56859.89999997616","3","confid","","","html-slider-response","1423","2236459","0.0-4.0-10.159-0.159","","","","Rate your confidence","1",""
"705.3000000119209","i","choice","left","e","experimental","1430","2238991","0.0-4.0-8.160","false","161","2.749999999999999","","",""
"2040.699999988079","3","confid","","","html-slider-response","1432","2241542","0.0-4.0-10.160-0.160","","","","Rate your confidence","1",""
"637.2999999523163","i","choice","right","i","experimental","1439","2244018","0.0-4.0-8.161","true","162","2.849999999999999","","",""
"2499.400000035763","2","confid","","","html-slider-response","1441","2247032","0.0-4.0-10.161-0.161","","","","Rate your confidence","1",""
"648.9000000357628","i","choice","right","i","experimental","1448","2249500","0.0-4.0-8.162","true","163","2.849999999999999","","",""
"3766.800000011921","3","confid","","","html-slider-response","1450","2253777","0.0-4.0-10.162-0.162","","","","Rate your confidence","1",""
"955.6999999880791","e","choice","left","e","experimental","1457","2256559","0.0-4.0-8.163","true","164","2.749999999999999","","",""
"3097.5","3","confid","","","html-slider-response","1459","2260171","0.0-4.0-10.163-0.163","","","","Rate your confidence","1",""
"1237","e","choice","left","e","experimental","1466","2263233","0.0-4.0-8.164","true","165","2.749999999999999","","",""
"1864.6000000238419","3","confid","","","html-slider-response","1468","2265605","0.0-4.0-10.164-0.164","","","","Rate your confidence","1",""
"774.5999999642372","i","choice","right","i","experimental","1475","2268187","0.0-4.0-8.165","true","166","2.649999999999999","","",""
"3184.400000035763","2","confid","","","html-slider-response","1477","2271876","0.0-4.0-10.165-0.165","","","","Rate your confidence","1",""
"1053.9000000357628","i","choice","right","i","experimental","1484","2274745","0.0-4.0-8.166","true","167","2.649999999999999","","",""
"2088.899999976158","2","confid","","","html-slider-response","1486","2277339","0.0-4.0-10.166-0.166","","","","Rate your confidence","1",""
"856","e","choice","left","e","experimental","1493","2280010","0.0-4.0-8.167","true","168","2.549999999999999","","",""
"4216.100000023842","2","confid","","","html-slider-response","1495","2284730","0.0-4.0-10.167-0.167","","","","Rate your confidence","1",""
"622.6000000238419","e","choice","left","e","experimental","1502","2287160","0.0-4.0-8.168","true","169","2.549999999999999","","",""
"2730.800000011921","2","confid","","","html-slider-response","1504","2290395","0.0-4.0-10.168-0.168","","","","Rate your confidence","1",""
"721.6000000238419","e","choice","right","i","experimental","1511","2292946","0.0-4.0-8.169","false","170","2.449999999999999","","",""
"1958.300000011921","2","confid","","","html-slider-response","1513","2295423","0.0-4.0-10.169-0.169","","","","Rate your confidence","1",""
"1382","e","choice","right","i","experimental","1520","2298643","0.0-4.0-8.170","false","171","2.549999999999999","","",""
"1687","3","confid","","","html-slider-response","1522","2300835","0.0-4.0-10.170-0.170","","","","Rate your confidence","1",""
"720.5","e","choice","left","e","experimental","1529","2303364","0.0-4.0-8.171","true","172","2.649999999999999","","",""
"2184.900000035763","3","confid","","","html-slider-response","1531","2306059","0.0-4.0-10.171-0.171","","","","Rate your confidence","1",""
"750.5","e","choice","left","e","experimental","1538","2308640","0.0-4.0-8.172","true","173","2.649999999999999","","",""
"2190.099999964237","4","confid","","","html-slider-response","1540","2311343","0.0-4.0-10.172-0.172","","","","Rate your confidence","1",""
"735.5","i","choice","right","i","experimental","1547","2313896","0.0-4.0-8.173","true","174","2.549999999999999","","",""
"2324.699999988079","4","confid","","","html-slider-response","1549","2316740","0.0-4.0-10.173-0.173","","","","Rate your confidence","1",""
"1260.800000011921","e","choice","left","e","experimental","1556","2319813","0.0-4.0-8.174","true","175","2.549999999999999","","",""
"2586.699999988079","3","confid","","","html-slider-response","1558","2322917","0.0-4.0-10.174-0.174","","","","Rate your confidence","1",""
"2458.5","e","choice","right","i","experimental","1565","2327193","0.0-4.0-8.175","false","176","2.449999999999999","","",""
"1795.5","1","confid","","","html-slider-response","1567","2329496","0.0-4.0-10.175-0.175","","","","Rate your confidence","1",""
"768.5","e","choice","left","e","experimental","1574","2332094","0.0-4.0-8.176","true","177","2.549999999999999","","",""
"3255.199999988079","4","confid","","","html-slider-response","1576","2335860","0.0-4.0-10.176-0.176","","","","Rate your confidence","1",""
"986.4000000357628","e","choice","right","i","experimental","1583","2338671","0.0-4.0-8.177","false","178","2.549999999999999","","",""
"8323.199999988079","2","confid","","","html-slider-response","1585","2347505","0.0-4.0-10.177-0.177","","","","Rate your confidence","1",""
"565.1999999880791","e","choice","left","e","experimental","1592","2349897","0.0-4.0-8.178","true","179","2.649999999999999","","",""
"2602.600000023842","2","confid","","","html-slider-response","1594","2353005","0.0-4.0-10.178-0.178","","","","Rate your confidence","1",""
"578","i","choice","right","i","experimental","1601","2355404","0.0-4.0-8.179","true","180","2.649999999999999","","",""
"2503.7000000476837","2","confid","","","html-slider-response","1603","2358417","0.0-4.0-10.179-0.179","","","","Rate your confidence","1",""
"576.8000000119209","i","choice","right","i","experimental","1610","2360801","0.0-4.0-8.180","true","181","2.549999999999999","","",""
"1794","4","confid","","","html-slider-response","1612","2363105","0.0-4.0-10.180-0.180","","","","Rate your confidence","1",""
"694.3000000119209","e","choice","left","e","experimental","1619","2365613","0.0-4.0-8.181","true","182","2.549999999999999","","",""
"2446.599999964237","3","confid","","","html-slider-response","1621","2368565","0.0-4.0-10.181-0.181","","","","Rate your confidence","1",""
"1596.1000000238419","e","choice","left","e","experimental","1628","2372001","0.0-4.0-8.182","true","183","2.449999999999999","","",""
"3736","2","confid","","","html-slider-response","1630","2376253","0.0-4.0-10.182-0.182","","","","Rate your confidence","1",""
"571.6000000238419","i","choice","right","i","experimental","1637","2378656","0.0-4.0-8.183","true","184","2.449999999999999","","",""
"3275.800000011921","4","confid","","","html-slider-response","1639","2382447","0.0-4.0-10.183-0.183","","","","Rate your confidence","1",""
"702.5","e","choice","left","e","experimental","1646","2384969","0.0-4.0-8.184","true","185","2.3499999999999988","","",""
"3436.899999976158","2","confid","","","html-slider-response","1648","2388910","0.0-4.0-10.184-0.184","","","","Rate your confidence","1",""
"851.1999999880791","e","choice","right","i","experimental","1655","2391574","0.0-4.0-8.185","false","186","2.3499999999999988","","",""
"3236.7000000476837","2","confid","","","html-slider-response","1657","2395317","0.0-4.0-10.185-0.185","","","","Rate your confidence","1",""
"866.2999999523163","e","choice","right","i","experimental","1664","2398011","0.0-4.0-8.186","false","187","2.449999999999999","","",""
"2177.400000035763","2","confid","","","html-slider-response","1666","2400697","0.0-4.0-10.186-0.186","","","","Rate your confidence","1",""
"1592.5","i","choice","left","e","experimental","1673","2404113","0.0-4.0-8.187","false","188","2.549999999999999","","",""
"2377","1","confid","","","html-slider-response","1675","2407000","0.0-4.0-10.187-0.187","","","","Rate your confidence","1",""
"936.1999999880791","e","choice","left","e","experimental","1682","2409750","0.0-4.0-8.188","true","189","2.649999999999999","","",""
"2149.2000000476837","2","confid","","","html-slider-response","1684","2412410","0.0-4.0-10.188-0.188","","","","Rate your confidence","1",""
"729.6999999880791","i","choice","right","i","experimental","1691","2414950","0.0-4.0-8.189","true","190","2.649999999999999","","",""
"2376.899999976158","4","confid","","","html-slider-response","1693","2417830","0.0-4.0-10.189-0.189","","","","Rate your confidence","1",""
"740","i","choice","left","e","experimental","1700","2420392","0.0-4.0-8.190","false","191","2.549999999999999","","",""
"2126.399999976158","3","confid","","","html-slider-response","1702","2423026","0.0-4.0-10.190-0.190","","","","Rate your confidence","1",""
"652.5","i","choice","right","i","experimental","1709","2425487","0.0-4.0-8.191","true","192","2.649999999999999","","",""
"2598.899999976158","4","confid","","","html-slider-response","1711","2428593","0.0-4.0-10.191-0.191","","","","Rate your confidence","1",""
"1089.6000000238419","i","choice","left","e","experimental","1718","2431492","0.0-4.0-8.192","false","193","2.649999999999999","","",""
"2814.600000023842","2","confid","","","html-slider-response","1720","2434824","0.0-4.0-10.192-0.192","","","","Rate your confidence","1",""
"884.5","e","choice","right","i","experimental","1727","2437542","0.0-4.0-8.193","false","194","2.749999999999999","","",""
"5546.899999976158","2","confid","","","html-slider-response","1729","2443595","0.0-4.0-10.193-0.193","","","","Rate your confidence","1","83769"
