"rt","response","task","target_side","correct_response","trial_type","trial_index","time_elapsed","internal_node_id","correct","trial_number","n_dots","stimulus","slider_start","participant"
"1150.3999999985099","e","choice","right","i","practice","10","53479","0.0-4.0-8.0","false","1","4.25","","",""
"192.39999999850988","e","choice","left","e","practice","18","55963","0.0-4.0-8.1","true","2","4.65","","",""
"354.19999999925494","i","choice","right","i","practice","26","58606","0.0-4.0-8.2","true","3","4.65","","",""
"284","e","choice","left","e","practice","34","61178","0.0-4.0-8.3","true","4","4.25","","",""
"692.1000000014901","i","choice","right","i","practice","42","64166","0.0-4.0-8.4","true","5","4.25","","",""
"630.5999999977648","i","choice","left","e","practice","50","67089","0.0-4.0-8.5","false","6","3.85","","",""
"377.0999999977648","i","choice","right","i","practice","58","69762","0.0-4.0-8.6","true","7","4.05","","",""
"233.19999999925494","e","choice","left","e","practice","66","72290","0.0-4.0-8.7","true","8","4.05","","",""
"125.09999999776483","i","choice","left","e","practice","74","74708","0.0-4.0-8.8","false","9","3.8499999999999996","","",""
"554","i","choice","right","i","practice","82","77551","0.0-4.0-8.9","true","10","4.05","","",""
"28.799999997019768","e","choice","left","e","practice","90","79876","0.0-4.0-8.10","true","11","4.05","","",""
"419.80000000074506","i","choice","right","i","practice","98","82581","0.0-4.0-8.11","true","12","3.9499999999999997","","",""
"1.300000000745058","e","choice","left","e","practice","106","84885","0.0-4.0-8.12","true","13","3.9499999999999997","","",""
"436.4000000022352","i","choice","right","i","practice","114","87607","0.0-4.0-8.13","true","14","3.8499999999999996","","",""
"1079.699999999255","e","choice","left","e","practice","122","90975","0.0-4.0-8.14","true","15","3.8499999999999996","","",""
"0.30000000074505806","i","choice","right","i","practice","130","93261","0.0-4.0-8.15","true","16","3.7499999999999996","","",""
"476.5","i","choice","left","e","practice","138","96035","0.0-4.0-8.16","false","17","3.7499999999999996","","",""
"2.2999999970197678","i","choice","right","i","practice","146","98328","0.0-4.0-8.17","true","18","3.8499999999999996","","",""
"88.30000000074506","e","choice","left","e","practice","154","100715","0.0-4.0-8.18","true","19","3.8499999999999996","","",""
"279.70000000298023","i","choice","right","i","practice","162","103282","0.0-4.0-8.19","true","20","3.7499999999999996","","",""
"276.69999999925494","i","choice","right","i","practice","170","105858","0.0-4.0-8.20","true","21","3.7499999999999996","","",""
"208.10000000149012","e","choice","left","e","practice","178","108361","0.0-4.0-8.21","true","22","3.6499999999999995","","",""
"640.6000000014901","i","choice","right","i","practice","186","111287","0.0-4.0-8.22","true","23","3.6499999999999995","","",""
"264.5","e","choice","left","e","practice","194","113839","0.0-4.0-8.23","true","24","3.5499999999999994","","",""
"578.5","i","choice","left","e","practice","202","116713","0.0-4.0-8.24","false","25","3.5499999999999994","","",""
"929.1000000014901","e","choice","right","i","practice","210","119944","0.0-4.0-8.25","false","26","3.6499999999999995","","",""
"131","e","choice","left","e","experimental","221","168182","0.0-4.0-8.26","true","27","3.7499999999999996","","",""
"2973","3","confid","","","html-slider-response","223","171659","0.0-4.0-10.26-0.26","","","","Rate your confidence","1",""
"0.8000000007450581","i","choice","right","i","experimental","230","173435","0.0-4.0-8.27","true","28","3.7499999999999996","","",""
"2735.300000000745","6","confid","","","html-slider-response","232","176672","0.0-4.0-10.27-0.27","","","","Rate your confidence","1",""
"323.69999999925494","e","choice","left","e","experimental","239","178783","0.0-4.0-8.28","true","29","3.6499999999999995","","",""
"3548.099999997765","4","confid","","","html-slider-response","241","182837","0.0-4.0-10.28-0.28","","","","Rate your confidence","1",""
"65","i","choice","right","i","experimental","248","184689","0.0-4.0-8.29","true","30","3.6499999999999995","","",""
"1788.8999999985099","4","confid","","","html-slider-response","250","186981","0.0-4.0-10.29-0.29","","","","Rate your confidence","1",""
"175.5","i","choice","right","i","experimental","257","188957","0.0-4.0-8.30","true","31","3.5499999999999994","","",""
"1903.199999999255","4","confid","","","html-slider-response","259","191363","0.0-4.0-10.30-0.30","","","","Rate your confidence","1",""
"327.5","e","choice","left","e","experimental","266","193488","0.0-4.0-8.31","true","32","3.5499999999999994","","",""
"3287.199999999255","5","confid","","","html-slider-response","268","197282","0.0-4.0-10.31-0.31","","","","Rate your confidence","1",""
"264","e","choice","left","e","experimental","275","199329","0.0-4.0-8.32","true","33","3.4499999999999993","","",""
"7320.699999999255","5","confid","","","html-slider-response","277","207153","0.0-4.0-10.32-0.32","","","","Rate your confidence","1",""
"221.30000000074506","i","choice","right","i","experimental","284","209158","0.0-4.0-8.33","true","34","3.4499999999999993","","",""
"3729.39999999851","2","confid","","","html-slider-response","286","213390","0.0-4.0-10.33-0.33","","","","Rate your confidence","1",""
"792.5","e","choice","left","e","experimental","293","215963","0.0-4.0-8.34","true","35","3.349999999999999","","",""
"6261.300000000745","1","confid","","","html-slider-response","295","222728","0.0-4.0-10.34-0.34","","","","Rate your confidence","1",""
"1298.7000000029802","i","choice","right","i","experimental","302","225820","0.0-4.0-8.35","true","36","3.349999999999999","","",""
"2140.5","3","confid","","","html-slider-response","304","228463","0.0-4.0-10.35-0.35","","","","Rate your confidence","1",""
"196.5","i","choice","right","i","experimental","311","230455","0.0-4.0-8.36","true","37","3.249999999999999","","",""
"1900.699999999255","3","confid","","","html-slider-response","313","232859","0.0-4.0-10.36-0.36","","","","Rate your confidence","1",""
"194.5","e","choice","left","e","experimental","320","234836","0.0-4.0-8.37","true","38","3.249999999999999","","",""
"4066.10000000149","3","confid","","","html-slider-response","322","239407","0.0-4.0-10.37-0.37","","","","Rate your confidence","1",""
"176.19999999925494","i","choice","right","i","experimental","329","241369","0.0-4.0-8.38","true","39","3.149999999999999","","",""
"2832.5","5","confid","","","html-slider-response","331","244704","0.0-4.0-10.38-0.38","","","","Rate your confidence","1",""
"170.39999999850988","e","choice","left","e","experimental","338","246675","0.0-4.0-8.39","true","40","3.149999999999999","","",""
"1985.9000000022352","4","confid","","","html-slider-response","340","249166","0.0-4.0-10.39-0.39","","","","Rate your confidence","1",""
"133.30000000074506","e","choice","right","i","experimental","347","251087","0.0-4.0-8.40","false","41","3.049999999999999","","",""
"2289.900000002235","4","confid","","","html-slider-response","349","253882","0.0-4.0-10.40-0.40","","","","Rate your confidence","1",""
"494.1000000014901","e","choice","left","e","experimental","356","256164","0.0-4.0-8.41","true","42","3.149999999999999","","",""
"2582.800000000745","3","confid","","","html-slider-response","358","259260","0.0-4.0-10.41-0.41","","","","Rate your confidence","1",""
"231","i","choice","right","i","experimental","365","261280","0.0-4.0-8.42","true","43","3.149999999999999","","",""
"2523.699999999255","4","confid","","","html-slider-response","367","264310","0.0-4.0-10.42-0.42","","","","Rate your confidence","1",""
"204","i","choice","left","e","experimental","374","266301","0.0-4.0-8.43","false","44","3.049999999999999","","",""
"1997.5999999977648","5","confid","","","html-slider-response","376","268802","0.0-4.0-10.43-0.43","","","","Rate your confidence","1",""
"236","e","choice","left","e","experimental","383","270835","0.0-4.0-8.44","true","45","3.149999999999999","","",""
"3092.5","5","confid","","","html-slider-response","385","274433","0.0-4.0-10.44-0.44","","","","Rate your confidence","1",""
"134","i","choice","right","i","experimental","392","276355","0.0-4.0-8.45","true","46","3.149999999999999","","",""
"2257.7999999970198","4","confid","","","html-slider-response","394","279116","0.0-4.0-10.45-0.45","","","","Rate your confidence","1",""
"81.70000000298023","i","choice","right","i","experimental","401","280996","0.0-4.0-8.46","true","47","3.049999999999999","","",""
"2107.10000000149","3","confid","","","html-slider-response","403","283609","0.0-4.0-10.46-0.46","","","","Rate your confidence","1",""
"233.5","i","choice","left","e","experimental","410","285629","0.0-4.0-8.47","false","48","3.049999999999999","","",""
"1889.4000000022352","5","confid","","","html-slider-response","412","288024","0.0-4.0-10.47-0.47","","","","Rate your confidence","1",""
"502.80000000074506","e","choice","right","i","experimental","419","290316","0.0-4.0-8.48","false","49","3.149999999999999","","",""
"17556.70000000298","3","confid","","","html-slider-response","421","308377","0.0-4.0-10.48-0.48","","","","Rate your confidence","1",""
"550.5","e","choice","left","e","experimental","428","310717","0.0-4.0-8.49","true","50","3.249999999999999","","",""
"6915.300000000745","3","confid","","","html-slider-response","430","318135","0.0-4.0-10.49-0.49","","","","Rate your confidence","1",""
"562.8000000007451","i","choice","right","i","experimental","437","320487","0.0-4.0-8.50","true","51","3.249999999999999","","",""
"4702","3","confid","","","html-slider-response","439","325694","0.0-4.0-10.50-0.50","","","","Rate your confidence","1",""
"436.8999999985099","e","choice","left","e","experimental","446","327926","0.0-4.0-8.51","true","52","3.149999999999999","","",""
"3711","4","confid","","","html-slider-response","448","332139","0.0-4.0-10.51-0.51","","","","Rate your confidence","1",""
"1236.699999999255","e","choice","right","i","experimental","455","335177","0.0-4.0-8.52","false","53","3.149999999999999","","",""
"40045","1","confid","","","html-slider-response","457","375728","0.0-4.0-10.52-0.52","","","","Rate your confidence","1",""
"95.30000000074506","e","choice","left","e","experimental","464","377612","0.0-4.0-8.53","true","54","3.249999999999999","","",""
"3424.699999999255","4","confid","","","html-slider-response","466","381540","0.0-4.0-10.53-0.53","","","","Rate your confidence","1",""
"227.30000000074506","e","choice","right","i","experimental","473","383549","0.0-4.0-8.54","false","55","3.249999999999999","","",""
"3921.5","3","confid","","","html-slider-response","475","387976","0.0-4.0-10.54-0.54","","","","Rate your confidence","1",""
"51","e","choice","left","e","experimental","482","389814","0.0-4.0-8.55","true","56","3.349999999999999","","",""
"3288.300000000745","5","confid","","","html-slider-response","484","393606","0.0-4.0-10.55-0.55","","","","Rate your confidence","1",""
"72.39999999850988","e","choice","left","e","experimental","491","395479","0.0-4.0-8.56","true","57","3.349999999999999","","",""
"1935","5","confid","","","html-slider-response","493","397917","0.0-4.0-10.56-0.56","","","","Rate your confidence","1",""
"39.69999999925494","i","choice","right","i","experimental","500","399753","0.0-4.0-8.57","true","58","3.249999999999999","","",""
"2421.199999999255","4","confid","","","html-slider-response","502","402679","0.0-4.0-10.57-0.57","","","","Rate your confidence","1",""
"237.09999999776483","e","choice","left","e","experimental","509","404705","0.0-4.0-8.58","true","59","3.249999999999999","","",""
"3488.800000000745","4","confid","","","html-slider-response","511","408699","0.0-4.0-10.58-0.58","","","","Rate your confidence","1",""
"245.69999999925494","i","choice","right","i","experimental","518","410729","0.0-4.0-8.59","true","60","3.149999999999999","","",""
"2413.60000000149","4","confid","","","html-slider-response","520","413646","0.0-4.0-10.59-0.59","","","","Rate your confidence","1",""
"592.1000000014901","i","choice","left","e","experimental","527","416037","0.0-4.0-8.60","false","61","3.149999999999999","","",""
"2398.89999999851","2","confid","","","html-slider-response","529","418941","0.0-4.0-10.60-0.60","","","","Rate your confidence","1",""
"12","e","choice","right","i","experimental","536","420751","0.0-4.0-8.61","false","62","3.249999999999999","","",""
"3685.10000000149","3","confid","","","html-slider-response","538","424940","0.0-4.0-10.61-0.61","","","","Rate your confidence","1",""
"83.80000000074506","i","choice","right","i","experimental","545","426811","0.0-4.0-8.62","true","63","3.349999999999999","","",""
"2088.5","4","confid","","","html-slider-response","547","429402","0.0-4.0-10.62-0.62","","","","Rate your confidence","1",""
"547.3000000007451","e","choice","left","e","experimental","554","431738","0.0-4.0-8.63","true","64","3.349999999999999","","",""
"2236.800000000745","4","confid","","","html-slider-response","556","434481","0.0-4.0-10.63-0.63","","","","Rate your confidence","1",""
"441","e","choice","left","e","experimental","563","436717","0.0-4.0-8.64","true","65","3.249999999999999","","",""
"2542.89999999851","4","confid","","","html-slider-response","565","439763","0.0-4.0-10.64-0.64","","","","Rate your confidence","1",""
"16.5","i","choice","right","i","experimental","572","441567","0.0-4.0-8.65","true","66","3.249999999999999","","",""
"2723.10000000149","3","confid","","","html-slider-response","574","444793","0.0-4.0-10.65-0.65","","","","Rate your confidence","1",""
"208.10000000149012","i","choice","right","i","experimental","581","446800","0.0-4.0-8.66","true","67","3.149999999999999","","",""
"2570.39999999851","4","confid","","","html-slider-response","583","449873","0.0-4.0-10.66-0.66","","","","Rate your confidence","1",""
"325","e","choice","left","e","experimental","590","452000","0.0-4.0-8.67","true","68","3.149999999999999","","",""
"2148.699999999255","4","confid","","","html-slider-response","592","454653","0.0-4.0-10.67-0.67","","","","Rate your confidence","1",""
"278.8999999985099","i","choice","right","i","experimental","600","458507","0.0-4.0-8.68","true","69","3.049999999999999","","",""
"4301.300000000745","5","confid","","","html-slider-response","602","463313","0.0-4.0-10.68-0.68","","","","Rate your confidence","1",""
"543.6999999992549","i","choice","left","e","experimental","609","465642","0.0-4.0-8.69","false","70","3.049999999999999","","",""
"3128.7999999970198","4","confid","","","html-slider-response","611","469275","0.0-4.0-10.69-0.69","","","","Rate your confidence","1",""
"3432.699999999255","i","choice","right","i","experimental","618","474497","0.0-4.0-8.70","true","71","3.149999999999999","","",""
"2381","2","confid","","","html-slider-response","620","477383","0.0-4.0-10.70-0.70","","","","Rate your confidence","1",""
"379.8999999985099","e","choice","left","e","experimental","627","479552","0.0-4.0-8.71","true","72","3.149999999999999","","",""
"2035.6000000014901","3","confid","","","html-slider-response","629","482093","0.0-4.0-10.71-0.71","","","","Rate your confidence","1",""
"906.5","e","choice","left","e","experimental","636","484785","0.0-4.0-8.72","true","73","3.049999999999999","","",""
"3439.300000000745","3","confid","","","html-slider-response","638","488728","0.0-4.0-10.72-0.72","","","","Rate your confidence","1",""
"172.09999999776483","i","choice","right","i","experimental","645","490688","0.0-4.0-8.73","true","74","3.049999999999999","","",""
"2265.5","4","confid","","","html-slider-response","647","493460","0.0-4.0-10.73-0.73","","","","Rate your confidence","1",""
"363.1000000014901","e","choice","left","e","experimental","654","495608","0.0-4.0-8.74","true","75","2.949999999999999","","",""
"2928.5","4","confid","","","html-slider-response","656","499039","0.0-4.0-10.74-0.74","","","","Rate your confidence","1",""
"563","e","choice","right","i","experimental","663","501401","0.0-4.0-8.75","false","76","2.949999999999999","","",""
"5388","4","confid","","","html-slider-response","665","507294","0.0-4.0-10.75-0.75","","","","Rate your confidence","1",""
"155","i","choice","right","i","experimental","672","509234","0.0-4.0-8.76","true","77","3.049999999999999","","",""
"2786.199999999255","5","confid","","","html-slider-response","674","512526","0.0-4.0-10.76-0.76","","","","Rate your confidence","1",""
"750.5","e","choice","left","e","experimental","681","515069","0.0-4.0-8.77","true","78","3.049999999999999","","",""
"2868.60000000149","4","confid","","","html-slider-response","683","518441","0.0-4.0-10.77-0.77","","","","Rate your confidence","1",""
"301.19999999925494","i","choice","right","i","experimental","690","520526","0.0-4.0-8.78","true","79","2.949999999999999","","",""
"2300.900000002235","5","confid","","","html-slider-response","692","523341","0.0-4.0-10.78-0.78","","","","Rate your confidence","1",""
"203.79999999701977","e","choice","left","e","experimental","699","525333","0.0-4.0-8.79","true","80","2.949999999999999","","",""
"2049","3","confid","","","html-slider-response","701","527886","0.0-4.0-10.79-0.79","","","","Rate your confidence","1",""
"152.80000000074506","i","choice","right","i","experimental","708","529837","0.0-4.0-8.80","true","81","2.8499999999999988","","",""
"2421.10000000149","3","confid","","","html-slider-response","710","532764","0.0-4.0-10.80-0.80","","","","Rate your confidence","1",""
"102","e","choice","left","e","experimental","717","534657","0.0-4.0-8.81","true","82","2.8499999999999988","","",""
"2064.10000000149","5","confid","","","html-slider-response","719","537225","0.0-4.0-10.81-0.81","","","","Rate your confidence","1",""
"77.19999999925494","e","choice","left","e","experimental","726","539099","0.0-4.0-8.82","true","83","2.7499999999999987","","",""
"2216.2000000029802","3","confid","","","html-slider-response","728","541824","0.0-4.0-10.82-0.82","","","","Rate your confidence","1",""
"127.59999999776483","i","choice","right","i","experimental","735","543751","0.0-4.0-8.83","true","84","2.7499999999999987","","",""
"2443.89999999851","3","confid","","","html-slider-response","737","546701","0.0-4.0-10.83-0.83","","","","Rate your confidence","1",""
"662.6000000014901","i","choice","left","e","experimental","744","549161","0.0-4.0-8.84","false","85","2.6499999999999986","","",""
"2971.60000000149","3","confid","","","html-slider-response","746","552636","0.0-4.0-10.84-0.84","","","","Rate your confidence","1",""
"152.39999999850988","i","choice","right","i","experimental","753","554576","0.0-4.0-8.85","true","86","2.7499999999999987","","",""
"2670.699999999255","3","confid","","","html-slider-response","755","557750","0.0-4.0-10.85-0.85","","","","Rate your confidence","1",""
"435.3999999985099","i","choice","right","i","experimental","762","559975","0.0-4.0-8.86","true","87","2.7499999999999987","","",""
"2099","3","confid","","","html-slider-response","764","562577","0.0-4.0-10.86-0.86","","","","Rate your confidence","1",""
"255.39999999850988","e","choice","left","e","experimental","771","564622","0.0-4.0-8.87","true","88","2.6499999999999986","","",""
"3318.300000000745","3","confid","","","html-slider-response","773","568443","0.0-4.0-10.87-0.87","","","","Rate your confidence","1",""
"625.5999999977648","i","choice","left","e","experimental","780","570873","0.0-4.0-8.88","false","89","2.6499999999999986","","",""
"2350.300000000745","3","confid","","","html-slider-response","782","573726","0.0-4.0-10.88-0.88","","","","Rate your confidence","1",""
"441.3999999985099","i","choice","right","i","experimental","789","575971","0.0-4.0-8.89","true","90","2.7499999999999987","","",""
"2063.60000000149","3","confid","","","html-slider-response","791","578538","0.0-4.0-10.89-0.89","","","","Rate your confidence","1",""
"631.8000000007451","i","choice","left","e","experimental","798","580956","0.0-4.0-8.90","false","91","2.7499999999999987","","",""
"2606.699999999255","4","confid","","","html-slider-response","800","584069","0.0-4.0-10.90-0.90","","","","Rate your confidence","1",""
"209.30000000074506","i","choice","right","i","experimental","807","586066","0.0-4.0-8.91","true","92","2.8499999999999988","","",""
"2648","3","confid","","","html-slider-response","809","589218","0.0-4.0-10.91-0.91","","","","Rate your confidence","1",""
"749.4000000022352","i","choice","left","e","experimental","816","591768","0.0-4.0-8.92","false","93","2.8499999999999988","","",""
"1943.9000000022352","3","confid","","","html-slider-response","818","594215","0.0-4.0-10.92-0.92","","","","Rate your confidence","1",""
"8.100000001490116","i","choice","right","i","experimental","825","596024","0.0-4.0-8.93","true","94","2.949999999999999","","",""
"3351","5","confid","","","html-slider-response","827","599878","0.0-4.0-10.93-0.93","","","","Rate your confidence","1",""
"188","e","choice","left","e","experimental","834","601855","0.0-4.0-8.94","true","95","2.949999999999999","","",""
"3927.5","4","confid","","","html-slider-response","836","606295","0.0-4.0-10.94-0.94","","","","Rate your confidence","1",""
"457.5","i","choice","right","i","experimental","843","608542","0.0-4.0-8.95","true","96","2.8499999999999988","","",""
"2649.10000000149","4","confid","","","html-slider-response","845","611697","0.0-4.0-10.95-0.95","","","","Rate your confidence","1",""
"6085.900000002235","e","choice","right","i","experimental","852","619576","0.0-4.0-8.96","false","97","2.8499999999999988","","",""
"2497.199999999255","3","confid","","","html-slider-response","854","622576","0.0-4.0-10.96-0.96","","","","Rate your confidence","1",""
"436.0999999977648","i","choice","left","e","experimental","861","624810","0.0-4.0-8.97","false","98","2.949999999999999","","",""
"2472.099999997765","4","confid","","","html-slider-response","863","627786","0.0-4.0-10.97-0.97","","","","Rate your confidence","1",""
"889.2999999970198","e","choice","left","e","experimental","870","630476","0.0-4.0-8.98","true","99","3.049999999999999","","",""
"2655.800000000745","3","confid","","","html-slider-response","872","633636","0.0-4.0-10.98-0.98","","","","Rate your confidence","1",""
"300","i","choice","right","i","experimental","879","635735","0.0-4.0-8.99","true","100","3.049999999999999","","",""
"2442.900000002235","3","confid","","","html-slider-response","881","638682","0.0-4.0-10.99-0.99","","","","Rate your confidence","1",""
"421.4000000022352","e","choice","right","i","experimental","888","640890","0.0-4.0-8.100","false","101","2.949999999999999","","",""
"2569.900000002235","3","confid","","","html-slider-response","890","643963","0.0-4.0-10.100-0.100","","","","Rate your confidence","1",""
"1205.9000000022352","e","choice","left","e","experimental","897","646954","0.0-4.0-8.101","true","102","3.049999999999999","","",""
"3789.300000000745","3","confid","","","html-slider-response","899","651250","0.0-4.0-10.101-0.101","","","","Rate your confidence","1",""
"317.1000000014901","e","choice","left","e","experimental","906","653369","0.0-4.0-8.102","true","103","3.049999999999999","","",""
"2022.9000000022352","6","confid","","","html-slider-response","908","655895","0.0-4.0-10.102-0.102","","","","Rate your confidence","1",""
"85.69999999925494","i","choice","right","i","experimental","915","657766","0.0-4.0-8.103","true","104","2.949999999999999","","",""
"1953.7999999970198","2","confid","","","html-slider-response","917","660224","0.0-4.0-10.103-0.103","","","","Rate your confidence","1",""
"213","e","choice","left","e","experimental","924","662225","0.0-4.0-8.104","true","105","2.949999999999999","","",""
"1724.5999999977648","3","confid","","","html-slider-response","926","664453","0.0-4.0-10.104-0.104","","","","Rate your confidence","1",""
"150.40000000223517","i","choice","right","i","experimental","933","666391","0.0-4.0-8.105","true","106","2.8499999999999988","","",""
"1819.9000000022352","3","confid","","","html-slider-response","935","668714","0.0-4.0-10.105-0.105","","","","Rate your confidence","1",""
"433.5","e","choice","left","e","experimental","942","670947","0.0-4.0-8.106","true","107","2.8499999999999988","","",""
"1962.199999999255","4","confid","","","html-slider-response","944","673412","0.0-4.0-10.106-0.106","","","","Rate your confidence","1",""
"148.39999999850988","e","choice","right","i","experimental","951","675345","0.0-4.0-8.107","false","108","2.7499999999999987","","",""
"3309.2999999970198","4","confid","","","html-slider-response","953","679160","0.0-4.0-10.107-0.107","","","","Rate your confidence","1",""
"284.30000000074506","e","choice","left","e","experimental","960","681232","0.0-4.0-8.108","true","109","2.8499999999999988","","",""
"2303.60000000149","4","confid","","","html-slider-response","962","684040","0.0-4.0-10.108-0.108","","","","Rate your confidence","1",""
"372.5","i","choice","right","i","experimental","969","686211","0.0-4.0-8.109","true","110","2.8499999999999988","","",""
"3642.5","4","confid","","","html-slider-response","971","690358","0.0-4.0-10.109-0.109","","","","Rate your confidence","1",""
"448.6000000014901","e","choice","right","i","experimental","979","733727","0.0-4.0-8.110","false","111","2.7499999999999987","","",""
"3285","3","confid","","","html-slider-response","981","737515","0.0-4.0-10.110-0.110","","","","Rate your confidence","1",""
"416.1000000014901","e","choice","left","e","experimental","988","739718","0.0-4.0-8.111","true","112","2.8499999999999988","","",""
"2173.800000000745","3","confid","","","html-slider-response","990","742394","0.0-4.0-10.111-0.111","","","","Rate your confidence","1",""
"422","i","choice","right","i","experimental","997","744620","0.0-4.0-8.112","true","113","2.8499999999999988","","",""
"4661.70000000298","2","confid","","","html-slider-response","999","749784","0.0-4.0-10.112-0.112","","","","Rate your confidence","1",""
"386.69999999925494","e","choice","left","e","experimental","1006","751971","0.0-4.0-8.113","true","114","2.7499999999999987","","",""
"1918.9000000022352","2","confid","","","html-slider-response","1008","754394","0.0-4.0-10.113-0.113","","","","Rate your confidence","1",""
"636.6999999992549","e","choice","left","e","experimental","1015","756818","0.0-4.0-8.114","true","115","2.7499999999999987","","",""
"2955.10000000149","2","confid","","","html-slider-response","1017","760277","0.0-4.0-10.114-0.114","","","","Rate your confidence","1",""
"732.6999999992549","i","choice","right","i","experimental","1024","762798","0.0-4.0-8.115","true","116","2.6499999999999986","","",""
"3475.5","1","confid","","","html-slider-response","1026","766777","0.0-4.0-10.115-0.115","","","","Rate your confidence","1",""
"496.69999999925494","e","choice","left","e","experimental","1033","769063","0.0-4.0-8.116","true","117","2.6499999999999986","","",""
"2142.699999999255","4","confid","","","html-slider-response","1035","771711","0.0-4.0-10.116-0.116","","","","Rate your confidence","1",""
"114.80000000074506","e","choice","right","i","experimental","1042","773604","0.0-4.0-8.117","false","118","2.5499999999999985","","",""
"12273.400000002235","4","confid","","","html-slider-response","1044","786382","0.0-4.0-10.117-0.117","","","","Rate your confidence","1",""
"977.5999999977648","e","choice","right","i","experimental","1051","789158","0.0-4.0-8.118","false","119","2.6499999999999986","","",""
"4139.699999999255","3","confid","","","html-slider-response","1053","793801","0.0-4.0-10.118-0.118","","","","Rate your confidence","1",""
"190.40000000223517","e","choice","left","e","experimental","1060","795786","0.0-4.0-8.119","true","120","2.7499999999999987","","",""
"3423.5","4","confid","","","html-slider-response","1062","799716","0.0-4.0-10.119-0.119","","","","Rate your confidence","1",""
"413.1000000014901","e","choice","right","i","experimental","1069","801919","0.0-4.0-8.120","false","121","2.7499999999999987","","",""
"3510.2000000029802","2","confid","","","html-slider-response","1071","805933","0.0-4.0-10.120-0.120","","","","Rate your confidence","1",""
"566.5","e","choice","left","e","experimental","1078","808287","0.0-4.0-8.121","true","122","2.8499999999999988","","",""
"2438.800000000745","3","confid","","","html-slider-response","1080","811230","0.0-4.0-10.121-0.121","","","","Rate your confidence","1",""
"789.2000000029802","i","choice","right","i","experimental","1087","813813","0.0-4.0-8.122","true","123","2.8499999999999988","","",""
"4249.699999999255","4","confid","","","html-slider-response","1089","818567","0.0-4.0-10.122-0.122","","","","Rate your confidence","1",""
"566.8999999985099","e","choice","left","e","experimental","1096","820919","0.0-4.0-8.123","true","124","2.7499999999999987","","",""
"6639.199999999255","3","confid","","","html-slider-response","1098","828062","0.0-4.0-10.123-0.123","","","","Rate your confidence","1",""
"111.19999999925494","e","choice","left","e","experimental","1105","829963","0.0-4.0-8.124","true","125","2.7499999999999987","","",""
"2078.800000000745","5","confid","","","html-slider-response","1107","832558","0.0-4.0-10.124-0.124","","","","Rate your confidence","1",""
"249.80000000074506","i","choice","right","i","experimental","1114","834597","0.0-4.0-8.125","true","126","2.6499999999999986","","",""
"2398.39999999851","5","confid","","","html-slider-response","1116","837501","0.0-4.0-10.125-0.125","","","","Rate your confidence","1",""
"61.69999999925494","e","choice","right","i","experimental","1123","839347","0.0-4.0-8.126","false","127","2.6499999999999986","","",""
"2663","4","confid","","","html-slider-response","1125","842514","0.0-4.0-10.126-0.126","","","","Rate your confidence","1",""
"128.30000000074506","e","choice","left","e","experimental","1132","844429","0.0-4.0-8.127","true","128","2.7499999999999987","","",""
"2577.89999999851","4","confid","","","html-slider-response","1134","847511","0.0-4.0-10.127-0.127","","","","Rate your confidence","1",""
"711","e","choice","left","e","experimental","1141","850019","0.0-4.0-8.128","true","129","2.7499999999999987","","",""
"3759.5","4","confid","","","html-slider-response","1143","854282","0.0-4.0-10.128-0.128","","","","Rate your confidence","1",""
"139.69999999925494","i","choice","right","i","experimental","1150","856214","0.0-4.0-8.129","true","130","2.6499999999999986","","",""
"2780","3","confid","","","html-slider-response","1152","859511","0.0-4.0-10.129-0.129","","","","Rate your confidence","1",""
"147.19999999925494","e","choice","left","e","experimental","1159","861446","0.0-4.0-8.130","true","131","2.6499999999999986","","",""
"1805.6000000014901","3","confid","","","html-slider-response","1161","863755","0.0-4.0-10.130-0.130","","","","Rate your confidence","1",""
"475.3999999985099","i","choice","right","i","experimental","1168","866032","0.0-4.0-8.131","true","132","2.5499999999999985","","",""
"1982.699999999255","3","confid","","","html-slider-response","1170","868519","0.0-4.0-10.131-0.131","","","","Rate your confidence","1",""
"36.19999999925494","e","choice","left","e","experimental","1177","870338","0.0-4.0-8.132","true","133","2.5499999999999985","","",""
"2522.7999999970198","2","confid","","","html-slider-response","1179","873365","0.0-4.0-10.132-0.132","","","","Rate your confidence","1",""
"918.6000000014901","i","choice","right","i","experimental","1186","876074","0.0-4.0-8.133","true","134","2.4499999999999984","","",""
"2954","4","confid","","","html-slider-response","1188","879532","0.0-4.0-10.133-0.133","","","","Rate your confidence","1",""
"33.69999999925494","e","choice","left","e","experimental","1195","881354","0.0-4.0-8.134","true","135","2.4499999999999984","","",""
"3720.800000000745","3","confid","","","html-slider-response","1197","885581","0.0-4.0-10.134-0.134","","","","Rate your confidence","1",""
"709.8999999985099","i","choice","right","i","experimental","1204","888079","0.0-4.0-8.135","true","136","2.3499999999999983","","",""
"2599.800000000745","4","confid","","","html-slider-response","1206","891182","0.0-4.0-10.135-0.135","","","","Rate your confidence","1",""
"418.30000000074506","i","choice","right","i","experimental","1213","893393","0.0-4.0-8.136","true","137","2.3499999999999983","","",""
"2713.5","3","confid","","","html-slider-response","1215","896613","0.0-4.0-10.136-0.136","","","","Rate your confidence","1",""
"476.69999999925494","e","choice","left","e","experimental","1222","898893","0.0-4.0-8.137","true","138","2.2499999999999982","","",""
"3296.199999999255","2","confid","","","html-slider-response","1224","902693","0.0-4.0-10.137-0.137","","","","Rate your confidence","1",""
"94.19999999925494","i","choice","right","i","experimental","1231","904588","0.0-4.0-8.138","true","139","2.2499999999999982","","",""
"3854","4","confid","","","html-slider-response","1233","908946","0.0-4.0-10.138-0.138","","","","Rate your confidence","1",""
"557.1999999992549","e","choice","left","e","experimental","1240","911293","0.0-4.0-8.139","true","140","2.149999999999998","","",""
"2595.699999999255","3","confid","","","html-slider-response","1242","914444","0.0-4.0-10.139-0.139","","","","Rate your confidence","1",""
"280.5999999977648","e","choice","right","i","experimental","1249","916507","0.0-4.0-8.140","false","141","2.149999999999998","","",""
"2427.7999999970198","3","confid","","","html-slider-response","1251","919439","0.0-4.0-10.140-0.140","","","","Rate your confidence","1",""
"644.3000000007451","i","choice","left","e","experimental","1258","921883","0.0-4.0-8.141","false","142","2.2499999999999982","","",""
"1814.6000000014901","4","confid","","","html-slider-response","1260","924203","0.0-4.0-10.141-0.141","","","","Rate your confidence","1",""
"460","i","choice","left","e","experimental","1267","926462","0.0-4.0-8.142","false","143","2.3499999999999983","","",""
"3618.5","5","confid","","","html-slider-response","1269","930587","0.0-4.0-10.142-0.142","","","","Rate your confidence","1",""
"161.60000000149012","e","choice","right","i","experimental","1276","932539","0.0-4.0-8.143","false","144","2.4499999999999984","","",""
"2495.599999997765","2","confid","","","html-slider-response","1278","935550","0.0-4.0-10.143-0.143","","","","Rate your confidence","1",""
"340.5","i","choice","right","i","experimental","1285","937678","0.0-4.0-8.144","true","145","2.5499999999999985","","",""
"3238.300000000745","3","confid","","","html-slider-response","1287","941419","0.0-4.0-10.144-0.144","","","","Rate your confidence","1",""
"90.30000000074506","e","choice","left","e","experimental","1294","943299","0.0-4.0-8.145","true","146","2.5499999999999985","","",""
"2325.199999999255","3","confid","","","html-slider-response","1296","946128","0.0-4.0-10.145-0.145","","","","Rate your confidence","1",""
"98.10000000149012","e","choice","right","i","experimental","1303","948026","0.0-4.0-8.146","false","147","2.4499999999999984","","",""
"4152.5","3","confid","","","html-slider-response","1305","952682","0.0-4.0-10.146-0.146","","","","Rate your confidence","1",""
"535.1999999992549","i","choice","left","e","experimental","1312","955017","0.0-4.0-8.147","false","148","2.5499999999999985","","",""
"3428.400000002235","2","confid","","","html-slider-response","1314","958949","0.0-4.0-10.147-0.147","","","","Rate your confidence","1",""
"183.59999999776483","e","choice","right","i","experimental","1321","960920","0.0-4.0-8.148","false","149","2.6499999999999986","","",""
"4846.39999999851","2","confid","","","html-slider-response","1323","966283","0.0-4.0-10.148-0.148","","","","Rate your confidence","1",""
"321.8999999985099","e","choice","left","e","experimental","1330","968391","0.0-4.0-8.149","true","150","2.7499999999999987","","",""
"2387.10000000149","2","confid","","","html-slider-response","1332","971283","0.0-4.0-10.149-0.149","","","","Rate your confidence","1",""
"41.70000000298023","e","choice","left","e","experimental","1339","973123","0.0-4.0-8.150","true","151","2.7499999999999987","","",""
"2201.599999997765","3","confid","","","html-slider-response","1341","975829","0.0-4.0-10.150-0.150","","","","Rate your confidence","1",""
"476.30000000074506","e","choice","right","i","experimental","1348","978098","0.0-4.0-8.151","false","152","2.6499999999999986","","",""
"2270.099999997765","3","confid","","","html-slider-response","1350","980872","0.0-4.0-10.151-0.151","","","","Rate your confidence","1",""
"216.29999999701977","e","choice","left","e","experimental","1358","984444","0.0-4.0-8.152","true","153","2.7499999999999987","","",""
"3625.900000002235","4","confid","","","html-slider-response","1360","988577","0.0-4.0-10.152-0.152","","","","Rate your confidence","1",""
"208.09999999776483","i","choice","right","i","experimental","1367","990572","0.0-4.0-8.153","true","154","2.7499999999999987","","",""
"3433.199999999255","4","confid","","","html-slider-response","1369","994510","0.0-4.0-10.153-0.153","","","","Rate your confidence","1",""
"594.7000000029802","e","choice","left","e","experimental","1376","996908","0.0-4.0-8.154","true","155","2.6499999999999986","","",""
"2044.8999999985099","3","confid","","","html-slider-response","1378","999459","0.0-4.0-10.154-0.154","","","","Rate your confidence","1",""
"146","e","choice","right","i","experimental","1385","1001392","0.0-4.0-8.155","false","156","2.6499999999999986","","",""
"3292.199999999255","3","confid","","","html-slider-response","1387","1005188","0.0-4.0-10.155-0.155","","","","Rate your confidence","1",""
"346.9000000022352","i","choice","right","i","experimental","1394","1007325","0.0-4.0-8.156","true","157","2.7499999999999987","","",""
"2226.199999999255","4","confid","","","html-slider-response","1396","1010055","0.0-4.0-10.156-0.156","","","","Rate your confidence","1",""
"423.6000000014901","e","choice","left","e","experimental","1403","1012266","0.0-4.0-8.157","true","158","2.7499999999999987","","",""
"2910.2999999970198","3","confid","","","html-slider-response","1405","1015683","0.0-4.0-10.157-0.157","","","","Rate your confidence","1",""
"678.5999999977648","i","choice","left","e","experimental","1412","1018152","0.0-4.0-8.158","false","159","2.6499999999999986","","",""
"2292.5","4","confid","","","html-slider-response","1414","1020950","0.0-4.0-10.158-0.158","","","","Rate your confidence","1",""
"534.1000000014901","e","choice","right","i","experimental","1421","1023273","0.0-4.0-8.159","false","160","2.7499999999999987","","",""
"2692.599999997765","2","confid","","","html-slider-response","1423","1026482","0.0-4.0-10.159-0.159","","","","Rate your confidence","1",""
"172.39999999850988","i","choice","right","i","experimental","1430","1028444","0.0-4.0-8.160","true","161","2.8499999999999988","","",""
"1976","5","confid","","","html-slider-response","1432","1030925","0.0-4.0-10.160-0.160","","","","Rate your confidence","1",""
"260.6000000014901","e","choice","left","e","experimental","1439","1032985","0.0-4.0-8.161","true","162","2.8499999999999988","","",""
"1497","4","confid","","","html-slider-response","1441","1034986","0.0-4.0-10.161-0.161","","","","Rate your confidence","1",""
"87.40000000223517","i","choice","right","i","experimental","1448","1036872","0.0-4.0-8.162","true","163","2.7499999999999987","","",""
"9278.89999999851","4","confid","","","html-slider-response","1450","1046654","0.0-4.0-10.162-0.162","","","","Rate your confidence","1",""
"166.80000000074506","e","choice","left","e","experimental","1457","1048620","0.0-4.0-8.163","true","164","2.7499999999999987","","",""
"2156.699999999255","3","confid","","","html-slider-response","1459","1051279","0.0-4.0-10.163-0.163","","","","Rate your confidence","1",""
"168.19999999925494","i","choice","right","i","experimental","1466","1053237","0.0-4.0-8.164","true","165","2.6499999999999986","","",""
"2638.699999999255","3","confid","","","html-slider-response","1468","1056379","0.0-4.0-10.164-0.164","","","","Rate your confidence","1",""
"380.3999999985099","e","choice","left","e","experimental","1475","1058548","0.0-4.0-8.165","true","166","2.6499999999999986","","",""
"3339.5","3","confid","","","html-slider-response","1477","1062392","0.0-4.0-10.165-0.165","","","","Rate your confidence","1",""
"322.6000000014901","e","choice","right","i","experimental","1484","1064505","0.0-4.0-8.166","false","167","2.5499999999999985","","",""
"2597.5","2","confid","","","html-slider-response","1486","1067607","0.0-4.0-10.166-0.166","","","","Rate your confidence","1",""
"232.59999999776483","e","choice","left","e","experimental","1493","1069643","0.0-4.0-8.167","true","168","2.6499999999999986","","",""
"2791.599999997765","3","confid","","","html-slider-response","1495","1072938","0.0-4.0-10.167-0.167","","","","Rate your confidence","1",""
"304.20000000298023","e","choice","left","e","experimental","1502","1075034","0.0-4.0-8.168","true","169","2.6499999999999986","","",""
"2898.5","3","confid","","","html-slider-response","1504","1078437","0.0-4.0-10.168-0.168","","","","Rate your confidence","1",""
"913","i","choice","right","i","experimental","1511","1081143","0.0-4.0-8.169","true","170","2.5499999999999985","","",""
"1987.2000000029802","4","confid","","","html-slider-response","1513","1083634","0.0-4.0-10.169-0.169","","","","Rate your confidence","1",""
"673.2999999970198","i","choice","left","e","experimental","1520","1086097","0.0-4.0-8.170","false","171","2.5499999999999985","","",""
"2296.199999999255","3","confid","","","html-slider-response","1522","1088898","0.0-4.0-10.170-0.170","","","","Rate your confidence","1",""
"323.1000000014901","e","choice","right","i","experimental","1529","1091017","0.0-4.0-8.171","false","172","2.6499999999999986","","",""
"4178.199999999255","3","confid","","","html-slider-response","1531","1095699","0.0-4.0-10.171-0.171","","","","Rate your confidence","1",""
"411.0999999977648","e","choice","right","i","experimental","1538","1097909","0.0-4.0-8.172","false","173","2.7499999999999987","","",""
"3005.39999999851","4","confid","","","html-slider-response","1540","1101418","0.0-4.0-10.172-0.172","","","","Rate your confidence","1",""
"995.3999999985099","i","choice","left","e","experimental","1547","1104203","0.0-4.0-8.173","false","174","2.8499999999999988","","",""
"2488.699999999255","4","confid","","","html-slider-response","1549","1107197","0.0-4.0-10.173-0.173","","","","Rate your confidence","1",""
"551.8000000007451","i","choice","right","i","experimental","1556","1109541","0.0-4.0-8.174","true","175","2.949999999999999","","",""
"1982.800000000745","3","confid","","","html-slider-response","1558","1112028","0.0-4.0-10.174-0.174","","","","Rate your confidence","1",""
"269.4000000022352","e","choice","left","e","experimental","1565","1114097","0.0-4.0-8.175","true","176","2.949999999999999","","",""
"3073.5","3","confid","","","html-slider-response","1567","1117675","0.0-4.0-10.175-0.175","","","","Rate your confidence","1",""
"1593.6000000014901","i","choice","right","i","experimental","1574","1121070","0.0-4.0-8.176","true","177","2.8499999999999988","","",""
"4894.300000000745","2","confid","","","html-slider-response","1576","1126469","0.0-4.0-10.176-0.176","","","","Rate your confidence","1",""
"413","i","choice","left","e","experimental","1583","1128669","0.0-4.0-8.177","false","178","2.8499999999999988","","",""
"2144.400000002235","3","confid","","","html-slider-response","1585","1131317","0.0-4.0-10.177-0.177","","","","Rate your confidence","1",""
"84.59999999776483","i","choice","right","i","experimental","1592","1133189","0.0-4.0-8.178","true","179","2.949999999999999","","",""
"3032","4","confid","","","html-slider-response","1594","1136727","0.0-4.0-10.178-0.178","","","","Rate your confidence","1",""
"469.5","e","choice","left","e","experimental","1601","1138986","0.0-4.0-8.179","true","180","2.949999999999999","","",""
"2333.10000000149","5","confid","","","html-slider-response","1603","1141824","0.0-4.0-10.179-0.179","","","","Rate your confidence","1",""
"419.69999999925494","e","choice","left","e","experimental","1610","1144046","0.0-4.0-8.180","true","181","2.8499999999999988","","",""
"2056.5","4","confid","","","html-slider-response","1612","1146607","0.0-4.0-10.180-0.180","","","","Rate your confidence","1",""
"500.19999999925494","i","choice","right","i","experimental","1619","1148898","0.0-4.0-8.181","true","182","2.8499999999999988","","",""
"3318.300000000745","3","confid","","","html-slider-response","1621","1152720","0.0-4.0-10.181-0.181","","","","Rate your confidence","1",""
"367.1000000014901","i","choice","right","i","experimental","1628","1154895","0.0-4.0-8.182","true","183","2.7499999999999987","","",""
"2705.699999999255","4","confid","","","html-slider-response","1630","1158104","0.0-4.0-10.182-0.182","","","","Rate your confidence","1",""
"237.80000000074506","e","choice","left","e","experimental","1637","1160133","0.0-4.0-8.183","true","184","2.7499999999999987","","",""
"4249.400000002235","3","confid","","","html-slider-response","1639","1164887","0.0-4.0-10.183-0.183","","","","Rate your confidence","1",""
"500.79999999701977","e","choice","right","i","experimental","1646","1167179","0.0-4.0-8.184","false","185","2.6499999999999986","","",""
"2617.60000000149","3","confid","","","html-slider-response","1648","1170301","0.0-4.0-10.184-0.184","","","","Rate your confidence","1",""
"679.2000000029802","i","choice","left","e","experimental","1655","1172768","0.0-4.0-8.185","false","186","2.7499999999999987","","",""
"1990.199999999255","4","confid","","","html-slider-response","1657","1175264","0.0-4.0-10.185-0.185","","","","Rate your confidence","1",""
"6570.199999999255","e","choice","left","e","experimental","1664","1183626","0.0-4.0-8.186","true","187","2.8499999999999988","","",""
"2953.10000000149","4","confid","","","html-slider-response","1666","1187082","0.0-4.0-10.186-0.186","","","","Rate your confidence","1",""
"303.4000000022352","i","choice","right","i","experimental","1673","1189172","0.0-4.0-8.187","true","188","2.8499999999999988","","",""
"4332.800000000745","3","confid","","","html-slider-response","1675","1194015","0.0-4.0-10.187-0.187","","","","Rate your confidence","1",""
"812.3000000007451","i","choice","left","e","experimental","1682","1196627","0.0-4.0-8.188","false","189","2.7499999999999987","","",""
"4657.099999997765","4","confid","","","html-slider-response","1684","1201789","0.0-4.0-10.188-0.188","","","","Rate your confidence","1",""
"441.8999999985099","e","choice","right","i","experimental","1691","1204020","0.0-4.0-8.189","false","190","2.8499999999999988","","",""
"2779.60000000149","2","confid","","","html-slider-response","1693","1207303","0.0-4.0-10.189-0.189","","","","Rate your confidence","1",""
"840.5","e","choice","right","i","experimental","1700","1209933","0.0-4.0-8.190","false","191","2.949999999999999","","",""
"2998.300000000745","3","confid","","","html-slider-response","1702","1213435","0.0-4.0-10.190-0.190","","","","Rate your confidence","1",""
"845.2999999970198","e","choice","left","e","experimental","1709","1216067","0.0-4.0-8.191","true","192","3.049999999999999","","",""
"2626.89999999851","4","confid","","","html-slider-response","1711","1219201","0.0-4.0-10.191-0.191","","","","Rate your confidence","1",""
"586.1000000014901","i","choice","right","i","experimental","1718","1221586","0.0-4.0-8.192","true","193","3.049999999999999","","",""
"2441.5","3","confid","","","html-slider-response","1720","1224532","0.0-4.0-10.192-0.192","","","","Rate your confidence","1",""
"97.80000000074506","e","choice","left","e","experimental","1727","1226427","0.0-4.0-8.193","true","194","2.949999999999999","","",""
"1977.8999999985099","3","confid","","","html-slider-response","1729","1228911","0.0-4.0-10.193-0.193","","","","Rate your confidence","1","71627"
