"rt","response","task","target_side","correct_response","trial_type","trial_index","time_elapsed","internal_node_id","correct","trial_number","n_dots","stimulus","slider_start","participant"
"128.40000009536743","e","choice","left","e","practice","10","397260","0.0-4.0-8.0","true","1","4.25","","",""
"456.69999980926514","i","choice","right","i","practice","18","400034","0.0-4.0-8.1","true","2","4.25","","",""
"541.8999996185303","e","choice","left","e","practice","26","402892","0.0-4.0-8.2","true","3","3.85","","",""
"311.69999980926514","i","choice","right","i","practice","34","405498","0.0-4.0-8.3","true","4","3.85","","",""
"209.59999990463257","e","choice","left","e","practice","42","408017","0.0-4.0-8.4","true","5","3.45","","",""
"533.5","e","choice","right","i","practice","50","410863","0.0-4.0-8.5","false","6","3.45","","",""
"232.59999990463257","e","choice","left","e","practice","58","413407","0.0-4.0-8.6","true","7","3.6500000000000004","","",""
"404.5","i","choice","right","i","practice","66","416103","0.0-4.0-8.7","true","8","3.6500000000000004","","",""
"948.3000001907349","e","choice","right","i","practice","74","419345","0.0-4.0-8.8","false","9","3.45","","",""
"246.80000019073486","e","choice","left","e","practice","82","421889","0.0-4.0-8.9","true","10","3.6500000000000004","","",""
"424.59999990463257","i","choice","right","i","practice","90","424623","0.0-4.0-8.10","true","11","3.6500000000000004","","",""
"416.8999996185303","e","choice","left","e","practice","98","427345","0.0-4.0-8.11","true","12","3.5500000000000003","","",""
"410","i","choice","left","e","practice","106","430051","0.0-4.0-8.12","false","13","3.5500000000000003","","",""
"32","e","choice","right","i","practice","114","432377","0.0-4.0-8.13","false","14","3.6500000000000004","","",""
"168.09999990463257","e","choice","right","i","practice","122","434841","0.0-4.0-8.14","false","15","3.7500000000000004","","",""
"165.19999980926514","e","choice","left","e","practice","130","437317","0.0-4.0-8.15","true","16","3.8500000000000005","","",""
"59.30000019073486","e","choice","left","e","practice","138","439678","0.0-4.0-8.16","true","17","3.8500000000000005","","",""
"332.09999990463257","e","choice","right","i","practice","146","442307","0.0-4.0-8.17","false","18","3.7500000000000004","","",""
"199.40000009536743","i","choice","right","i","practice","154","444815","0.0-4.0-8.18","true","19","3.8500000000000005","","",""
"574","i","choice","left","e","practice","162","447703","0.0-4.0-8.19","false","20","3.8500000000000005","","",""
"378","e","choice","right","i","practice","170","450378","0.0-4.0-8.20","false","21","3.9500000000000006","","",""
"623.4000000953674","e","choice","left","e","practice","178","453305","0.0-4.0-8.21","true","22","4.050000000000001","","",""
"634.7999997138977","e","choice","right","i","practice","186","456250","0.0-4.0-8.22","false","23","4.050000000000001","","",""
"908.1999998092651","e","choice","left","e","practice","194","459455","0.0-4.0-8.23","true","24","4.15","","",""
"520.4000000953674","e","choice","left","e","practice","202","462276","0.0-4.0-8.24","true","25","4.15","","",""
"657.8000001907349","e","choice","right","i","practice","210","465233","0.0-4.0-8.25","false","26","4.050000000000001","","",""
"872.9000000953674","e","choice","right","i","experimental","221","479430","0.0-4.0-8.26","false","27","4.15","","",""
"6983.10000038147","4","confid","","","html-slider-response","223","486917","0.0-4.0-10.26-0.26","","","","Rate your confidence","1",""
"1489.3000001907349","e","choice","left","e","experimental","230","490207","0.0-4.0-8.27","true","28","4.25","","",""
"2699.2999997138977","4","confid","","","html-slider-response","232","493413","0.0-4.0-10.27-0.27","","","","Rate your confidence","1",""
"1738","i","choice","right","i","experimental","239","496946","0.0-4.0-8.28","true","29","4.25","","",""
"2519.4000000953674","4","confid","","","html-slider-response","241","499984","0.0-4.0-10.28-0.28","","","","Rate your confidence","1",""
"1172.8000001907349","i","choice","left","e","experimental","248","502954","0.0-4.0-8.29","false","30","4.15","","",""
"2276.4000000953674","4","confid","","","html-slider-response","250","505738","0.0-4.0-10.29-0.29","","","","Rate your confidence","1",""
"1291","e","choice","left","e","experimental","257","508816","0.0-4.0-8.30","true","31","4.25","","",""
"2915.9000000953674","4","confid","","","html-slider-response","259","512235","0.0-4.0-10.30-0.30","","","","Rate your confidence","1",""
"1468.8000001907349","e","choice","right","i","experimental","266","515494","0.0-4.0-8.31","false","32","4.25","","",""
"11077.5","3","confid","","","html-slider-response","268","527078","0.0-4.0-10.31-0.31","","","","Rate your confidence","1",""
"5667.5","e","choice","left","e","experimental","275","534532","0.0-4.0-8.32","true","33","4.35","","",""
"7049","4","confid","","","html-slider-response","277","542083","0.0-4.0-10.32-0.32","","","","Rate your confidence","1",""
"1566.7000002861023","e","choice","right","i","experimental","284","545431","0.0-4.0-8.33","false","34","4.35","","",""
"3083.5999999046326","4","confid","","","html-slider-response","286","549017","0.0-4.0-10.33-0.33","","","","Rate your confidence","1",""
"614.0999999046326","e","choice","left","e","experimental","293","551410","0.0-4.0-8.34","true","35","4.449999999999999","","",""
"2397.4000000953674","4","confid","","","html-slider-response","295","554323","0.0-4.0-10.34-0.34","","","","Rate your confidence","1",""
"831.5999999046326","i","choice","right","i","experimental","302","556936","0.0-4.0-8.35","true","36","4.449999999999999","","",""
"3602.699999809265","3","confid","","","html-slider-response","304","561043","0.0-4.0-10.35-0.35","","","","Rate your confidence","1",""
"678.8000001907349","e","choice","right","i","experimental","311","563513","0.0-4.0-8.36","false","37","4.35","","",""
"4315.699999809265","3","confid","","","html-slider-response","313","568335","0.0-4.0-10.36-0.36","","","","Rate your confidence","1",""
"1083.7999997138977","e","choice","left","e","experimental","320","571209","0.0-4.0-8.37","true","38","4.449999999999999","","",""
"3503.5999999046326","3","confid","","","html-slider-response","322","575223","0.0-4.0-10.37-0.37","","","","Rate your confidence","1",""
"931.7000002861023","i","choice","right","i","experimental","329","577931","0.0-4.0-8.38","true","39","4.449999999999999","","",""
"7521.5","3","confid","","","html-slider-response","331","585965","0.0-4.0-10.38-0.38","","","","Rate your confidence","1",""
"1157.8000001907349","i","choice","left","e","experimental","338","588899","0.0-4.0-8.39","false","40","4.35","","",""
"4608.700000286102","4","confid","","","html-slider-response","340","594013","0.0-4.0-10.39-0.39","","","","Rate your confidence","1",""
"1007.1000003814697","e","choice","left","e","experimental","347","596816","0.0-4.0-8.40","true","41","4.449999999999999","","",""
"10645.10000038147","3","confid","","","html-slider-response","349","607966","0.0-4.0-10.40-0.40","","","","Rate your confidence","1",""
"939.8000001907349","i","choice","right","i","experimental","356","610697","0.0-4.0-8.41","true","42","4.449999999999999","","",""
"78307.19999980927","4","confid","","","html-slider-response","358","689509","0.0-4.0-10.41-0.41","","","","Rate your confidence","1",""
"776.7999997138977","e","choice","left","e","experimental","365","692061","0.0-4.0-8.42","true","43","4.35","","",""
"2158.699999809265","4","confid","","","html-slider-response","367","694736","0.0-4.0-10.42-0.42","","","","Rate your confidence","1",""
"606.0999999046326","e","choice","right","i","experimental","374","697127","0.0-4.0-8.43","false","44","4.35","","",""
"4048.2000002861023","4","confid","","","html-slider-response","376","701678","0.0-4.0-10.43-0.43","","","","Rate your confidence","1",""
"704.5999999046326","i","choice","right","i","experimental","383","704177","0.0-4.0-8.44","true","45","4.449999999999999","","",""
"1997","4","confid","","","html-slider-response","385","706676","0.0-4.0-10.44-0.44","","","","Rate your confidence","1",""
"621.5999999046326","e","choice","left","e","experimental","392","709085","0.0-4.0-8.45","true","46","4.449999999999999","","",""
"2917.0999999046326","5","confid","","","html-slider-response","394","712507","0.0-4.0-10.45-0.45","","","","Rate your confidence","1",""
"812.5999999046326","i","choice","right","i","experimental","401","715111","0.0-4.0-8.46","true","47","4.35","","",""
"2065.0999999046326","4","confid","","","html-slider-response","403","717683","0.0-4.0-10.46-0.46","","","","Rate your confidence","1",""
"728.5","e","choice","left","e","experimental","410","720199","0.0-4.0-8.47","true","48","4.35","","",""
"1988.5","4","confid","","","html-slider-response","412","722689","0.0-4.0-10.47-0.47","","","","Rate your confidence","1",""
"411.6000003814697","e","choice","left","e","experimental","419","724888","0.0-4.0-8.48","true","49","4.25","","",""
"1641.3999996185303","4","confid","","","html-slider-response","421","727033","0.0-4.0-10.48-0.48","","","","Rate your confidence","1",""
"1106.3000001907349","e","choice","right","i","experimental","428","729932","0.0-4.0-8.49","false","50","4.25","","",""
"6222.199999809265","3","confid","","","html-slider-response","430","736658","0.0-4.0-10.49-0.49","","","","Rate your confidence","1",""
"556.2999997138977","e","choice","left","e","experimental","437","738992","0.0-4.0-8.50","true","51","4.35","","",""
"2908.800000190735","4","confid","","","html-slider-response","439","742406","0.0-4.0-10.50-0.50","","","","Rate your confidence","1",""
"712.8000001907349","e","choice","right","i","experimental","446","744898","0.0-4.0-8.51","false","52","4.35","","",""
"2602.699999809265","3","confid","","","html-slider-response","448","748007","0.0-4.0-10.51-0.51","","","","Rate your confidence","1",""
"189.59999990463257","e","choice","left","e","experimental","455","749976","0.0-4.0-8.52","true","53","4.449999999999999","","",""
"1921.5","4","confid","","","html-slider-response","457","752400","0.0-4.0-10.52-0.52","","","","Rate your confidence","1",""
"631.9000000953674","i","choice","right","i","experimental","464","754808","0.0-4.0-8.53","true","54","4.449999999999999","","",""
"1945.7000002861023","4","confid","","","html-slider-response","466","757256","0.0-4.0-10.53-0.53","","","","Rate your confidence","1",""
"306.2999997138977","i","choice","right","i","experimental","473","759340","0.0-4.0-8.54","true","55","4.35","","",""
"1851.0999999046326","4","confid","","","html-slider-response","475","761693","0.0-4.0-10.54-0.54","","","","Rate your confidence","1",""
"1135.1999998092651","e","choice","left","e","experimental","482","764619","0.0-4.0-8.55","true","56","4.35","","",""
"1412","4","confid","","","html-slider-response","484","766534","0.0-4.0-10.55-0.55","","","","Rate your confidence","1",""
"644.1999998092651","e","choice","left","e","experimental","491","768974","0.0-4.0-8.56","true","57","4.25","","",""
"1842.2000002861023","4","confid","","","html-slider-response","493","771319","0.0-4.0-10.56-0.56","","","","Rate your confidence","1",""
"560.0999999046326","i","choice","right","i","experimental","500","773659","0.0-4.0-8.57","true","58","4.25","","",""
"2187.5999999046326","4","confid","","","html-slider-response","502","776349","0.0-4.0-10.57-0.57","","","","Rate your confidence","1",""
"1001.5","i","choice","right","i","experimental","509","779131","0.0-4.0-8.58","true","59","4.15","","",""
"2684.300000190735","4","confid","","","html-slider-response","511","782317","0.0-4.0-10.58-0.58","","","","Rate your confidence","1",""
"764.4000000953674","e","choice","left","e","experimental","518","784879","0.0-4.0-8.59","true","60","4.15","","",""
"1285.5999999046326","4","confid","","","html-slider-response","520","786668","0.0-4.0-10.59-0.59","","","","Rate your confidence","1",""
"479","i","choice","right","i","experimental","527","788938","0.0-4.0-8.60","true","61","4.050000000000001","","",""
"2714.5","4","confid","","","html-slider-response","529","792157","0.0-4.0-10.60-0.60","","","","Rate your confidence","1",""
"323","e","choice","left","e","experimental","536","794276","0.0-4.0-8.61","true","62","4.050000000000001","","",""
"1848.6999998092651","4","confid","","","html-slider-response","538","796627","0.0-4.0-10.61-0.61","","","","Rate your confidence","1",""
"363.7000002861023","e","choice","left","e","experimental","545","798785","0.0-4.0-8.62","true","63","3.9500000000000006","","",""
"3053.5999999046326","4","confid","","","html-slider-response","547","802344","0.0-4.0-10.62-0.62","","","","Rate your confidence","1",""
"806.7000002861023","e","choice","right","i","experimental","554","804934","0.0-4.0-8.63","false","64","3.9500000000000006","","",""
"1715.7000002861023","4","confid","","","html-slider-response","556","807160","0.0-4.0-10.63-0.63","","","","Rate your confidence","1",""
"841.7000002861023","e","choice","left","e","experimental","563","809777","0.0-4.0-8.64","true","65","4.050000000000001","","",""
"2168","4","confid","","","html-slider-response","565","812449","0.0-4.0-10.64-0.64","","","","Rate your confidence","1",""
"647.8999996185303","e","choice","right","i","experimental","572","814881","0.0-4.0-8.65","false","66","4.050000000000001","","",""
"7376.200000286102","4","confid","","","html-slider-response","574","822759","0.0-4.0-10.65-0.65","","","","Rate your confidence","1",""
"3824.300000190735","e","choice","left","e","experimental","581","828377","0.0-4.0-8.66","true","67","4.15","","",""
"2188.0999999046326","4","confid","","","html-slider-response","583","831067","0.0-4.0-10.66-0.66","","","","Rate your confidence","1",""
"7919","i","choice","right","i","experimental","590","840765","0.0-4.0-8.67","true","68","4.15","","",""
"2441.199999809265","4","confid","","","html-slider-response","592","843709","0.0-4.0-10.67-0.67","","","","Rate your confidence","1",""
"449.2000002861023","i","choice","right","i","experimental","600","849715","0.0-4.0-8.68","true","69","4.050000000000001","","",""
"3462.699999809265","4","confid","","","html-slider-response","602","853683","0.0-4.0-10.68-0.68","","","","Rate your confidence","1",""
"730.7999997138977","e","choice","left","e","experimental","609","856201","0.0-4.0-8.69","true","70","4.050000000000001","","",""
"1638.7999997138977","4","confid","","","html-slider-response","611","858342","0.0-4.0-10.69-0.69","","","","Rate your confidence","1",""
"370.90000009536743","i","choice","right","i","experimental","618","860499","0.0-4.0-8.70","true","71","3.9500000000000006","","",""
"1891.0999999046326","4","confid","","","html-slider-response","620","862892","0.0-4.0-10.70-0.70","","","","Rate your confidence","1",""
"567.1999998092651","e","choice","left","e","experimental","627","865242","0.0-4.0-8.71","true","72","3.9500000000000006","","",""
"1456.6999998092651","4","confid","","","html-slider-response","629","867205","0.0-4.0-10.71-0.71","","","","Rate your confidence","1",""
"543.6000003814697","e","choice","right","i","experimental","636","869523","0.0-4.0-8.72","false","73","3.8500000000000005","","",""
"1642.4000000953674","3","confid","","","html-slider-response","638","871667","0.0-4.0-10.72-0.72","","","","Rate your confidence","1",""
"452.90000009536743","e","choice","left","e","experimental","645","873893","0.0-4.0-8.73","true","74","3.9500000000000006","","",""
"1729","4","confid","","","html-slider-response","647","876138","0.0-4.0-10.73-0.73","","","","Rate your confidence","1",""
"258.80000019073486","i","choice","right","i","experimental","654","878182","0.0-4.0-8.74","true","75","3.9500000000000006","","",""
"1845.0999999046326","4","confid","","","html-slider-response","656","880530","0.0-4.0-10.74-0.74","","","","Rate your confidence","1",""
"200","e","choice","left","e","experimental","663","882525","0.0-4.0-8.75","true","76","3.8500000000000005","","",""
"1690.6999998092651","4","confid","","","html-slider-response","665","884717","0.0-4.0-10.75-0.75","","","","Rate your confidence","1",""
"337.19999980926514","i","choice","right","i","experimental","672","886843","0.0-4.0-8.76","true","77","3.8500000000000005","","",""
"4102","4","confid","","","html-slider-response","674","891451","0.0-4.0-10.76-0.76","","","","Rate your confidence","1",""
"494.19999980926514","e","choice","left","e","experimental","681","893727","0.0-4.0-8.77","true","78","3.7500000000000004","","",""
"2241.300000190735","4","confid","","","html-slider-response","683","896471","0.0-4.0-10.77-0.77","","","","Rate your confidence","1",""
"934.0999999046326","i","choice","left","e","experimental","690","899184","0.0-4.0-8.78","false","79","3.7500000000000004","","",""
"1778.5","4","confid","","","html-slider-response","692","901467","0.0-4.0-10.78-0.78","","","","Rate your confidence","1",""
"789.9000000953674","i","choice","right","i","experimental","699","904052","0.0-4.0-8.79","true","80","3.8500000000000005","","",""
"1782","4","confid","","","html-slider-response","701","906339","0.0-4.0-10.79-0.79","","","","Rate your confidence","1",""
"41989.800000190735","e","choice","left","e","experimental","708","950125","0.0-4.0-8.80","true","81","3.8500000000000005","","",""
"3393.800000190735","4","confid","","","html-slider-response","710","954024","0.0-4.0-10.80-0.80","","","","Rate your confidence","1",""
"676.9000000953674","i","choice","right","i","experimental","717","956485","0.0-4.0-8.81","true","82","3.7500000000000004","","",""
"125654.09999990463","4","confid","","","html-slider-response","719","1082643","0.0-4.0-10.81-0.81","","","","Rate your confidence","1",""
"974.8000001907349","e","choice","left","e","experimental","726","1085404","0.0-4.0-8.82","true","83","3.7500000000000004","","",""
"11747.800000190735","4","confid","","","html-slider-response","728","1097668","0.0-4.0-10.82-0.82","","","","Rate your confidence","1",""
"704.1999998092651","e","choice","right","i","experimental","735","1100155","0.0-4.0-8.83","false","84","3.6500000000000004","","",""
"39768.300000190735","4","confid","","","html-slider-response","737","1140430","0.0-4.0-10.83-0.83","","","","Rate your confidence","1",""
"856","i","choice","right","i","experimental","744","1143075","0.0-4.0-8.84","true","85","3.7500000000000004","","",""
"3260.5","4","confid","","","html-slider-response","746","1146838","0.0-4.0-10.84-0.84","","","","Rate your confidence","1",""
"11235.200000286102","i","choice","left","e","experimental","753","1159868","0.0-4.0-8.85","false","86","3.7500000000000004","","",""
"14261.099999904633","4","confid","","","html-slider-response","755","1174631","0.0-4.0-10.85-0.85","","","","Rate your confidence","1",""
"2128.699999809265","i","choice","right","i","experimental","762","1178555","0.0-4.0-8.86","true","87","3.8500000000000005","","",""
"12301.800000190735","4","confid","","","html-slider-response","764","1191363","0.0-4.0-10.86-0.86","","","","Rate your confidence","1",""
"20108.099999904633","i","choice","left","e","experimental","771","1213250","0.0-4.0-8.87","false","88","3.8500000000000005","","",""
"2759.4000000953674","4","confid","","","html-slider-response","773","1216515","0.0-4.0-10.87-0.87","","","","Rate your confidence","1",""
"36708.300000190735","i","choice","left","e","experimental","780","1254991","0.0-4.0-8.88","false","89","3.9500000000000006","","",""
"3806.5999999046326","4","confid","","","html-slider-response","782","1259305","0.0-4.0-10.88-0.88","","","","Rate your confidence","1",""
"617","i","choice","right","i","experimental","789","1261706","0.0-4.0-8.89","true","90","4.050000000000001","","",""
"2583.2999997138977","3","confid","","","html-slider-response","791","1264792","0.0-4.0-10.89-0.89","","","","Rate your confidence","1",""
"545.9000000953674","e","choice","left","e","experimental","798","1267113","0.0-4.0-8.90","true","91","4.050000000000001","","",""
"2017.0999999046326","3","confid","","","html-slider-response","800","1269632","0.0-4.0-10.90-0.90","","","","Rate your confidence","1",""
"394.40000009536743","i","choice","right","i","experimental","807","1271795","0.0-4.0-8.91","true","92","3.9500000000000006","","",""
"2058.5","4","confid","","","html-slider-response","809","1274355","0.0-4.0-10.91-0.91","","","","Rate your confidence","1",""
"626.4000000953674","i","choice","right","i","experimental","816","1276758","0.0-4.0-8.92","true","93","3.9500000000000006","","",""
"7079.900000095367","4","confid","","","html-slider-response","818","1284341","0.0-4.0-10.92-0.92","","","","Rate your confidence","1",""
"1847.4000000953674","i","choice","left","e","experimental","825","1287966","0.0-4.0-8.93","false","94","3.8500000000000005","","",""
"3124.4000000953674","4","confid","","","html-slider-response","827","1291593","0.0-4.0-10.93-0.93","","","","Rate your confidence","1",""
"2479.699999809265","i","choice","left","e","experimental","834","1295857","0.0-4.0-8.94","false","95","3.9500000000000006","","",""
"2020.6999998092651","3","confid","","","html-slider-response","836","1298383","0.0-4.0-10.94-0.94","","","","Rate your confidence","1",""
"513.4000000953674","i","choice","right","i","experimental","843","1300679","0.0-4.0-8.95","true","96","4.050000000000001","","",""
"2413.0999999046326","4","confid","","","html-slider-response","845","1303595","0.0-4.0-10.95-0.95","","","","Rate your confidence","1",""
"653.1999998092651","i","choice","right","i","experimental","852","1306032","0.0-4.0-8.96","true","97","4.050000000000001","","",""
"24168.89999961853","4","confid","","","html-slider-response","854","1330705","0.0-4.0-10.96-0.96","","","","Rate your confidence","1",""
"1299.3000001907349","e","choice","left","e","experimental","861","1333784","0.0-4.0-8.97","true","98","3.9500000000000006","","",""
"3139.0999999046326","4","confid","","","html-slider-response","863","1337429","0.0-4.0-10.97-0.97","","","","Rate your confidence","1",""
"602.5","e","choice","right","i","experimental","870","1339821","0.0-4.0-8.98","false","99","3.9500000000000006","","",""
"17239.900000095367","4","confid","","","html-slider-response","872","1357563","0.0-4.0-10.98-0.98","","","","Rate your confidence","1",""
"735.1999998092651","e","choice","left","e","experimental","879","1360083","0.0-4.0-8.99","true","100","4.050000000000001","","",""
"1766.6999998092651","4","confid","","","html-slider-response","881","1362355","0.0-4.0-10.99-0.99","","","","Rate your confidence","1",""
"297.80000019073486","e","choice","left","e","experimental","888","1364432","0.0-4.0-8.100","true","101","4.050000000000001","","",""
"2385.0999999046326","4","confid","","","html-slider-response","890","1367321","0.0-4.0-10.100-0.100","","","","Rate your confidence","1",""
"3084.0999999046326","e","choice","right","i","experimental","897","1372197","0.0-4.0-8.101","false","102","3.9500000000000006","","",""
"2835.800000190735","2","confid","","","html-slider-response","899","1375538","0.0-4.0-10.101-0.101","","","","Rate your confidence","1",""
"511.5","i","choice","right","i","experimental","906","1377829","0.0-4.0-8.102","true","103","4.050000000000001","","",""
"1679.0999999046326","4","confid","","","html-slider-response","908","1380010","0.0-4.0-10.102-0.102","","","","Rate your confidence","1",""
"739.5999999046326","e","choice","left","e","experimental","915","1382531","0.0-4.0-8.103","true","104","4.050000000000001","","",""
"2686.9000000953674","4","confid","","","html-slider-response","917","1385728","0.0-4.0-10.103-0.103","","","","Rate your confidence","1",""
"397","i","choice","right","i","experimental","924","1387915","0.0-4.0-8.104","true","105","3.9500000000000006","","",""
"1582.5999999046326","4","confid","","","html-slider-response","926","1389999","0.0-4.0-10.104-0.104","","","","Rate your confidence","1",""
"162.5","e","choice","left","e","experimental","933","1391958","0.0-4.0-8.105","true","106","3.9500000000000006","","",""
"2485.300000190735","4","confid","","","html-slider-response","935","1394946","0.0-4.0-10.105-0.105","","","","Rate your confidence","1",""
"1436.5","e","choice","left","e","experimental","942","1398178","0.0-4.0-8.106","true","107","3.8500000000000005","","",""
"2257.0999999046326","3","confid","","","html-slider-response","944","1400937","0.0-4.0-10.106-0.106","","","","Rate your confidence","1",""
"368.40000009536743","i","choice","right","i","experimental","951","1403084","0.0-4.0-8.107","true","108","3.8500000000000005","","",""
"1535.7000002861023","4","confid","","","html-slider-response","953","1405123","0.0-4.0-10.107-0.107","","","","Rate your confidence","1",""
"400.5","e","choice","left","e","experimental","960","1407320","0.0-4.0-8.108","true","109","3.7500000000000004","","",""
"1390.6999998092651","3","confid","","","html-slider-response","962","1409213","0.0-4.0-10.108-0.108","","","","Rate your confidence","1",""
"492.1000003814697","e","choice","right","i","experimental","969","1411483","0.0-4.0-8.109","false","110","3.7500000000000004","","",""
"1831.0999999046326","4","confid","","","html-slider-response","971","1413816","0.0-4.0-10.109-0.109","","","","Rate your confidence","1",""
"237.09999990463257","i","choice","right","i","experimental","979","1417471","0.0-4.0-8.110","true","111","3.8500000000000005","","",""
"1890.4000000953674","4","confid","","","html-slider-response","981","1419864","0.0-4.0-10.110-0.110","","","","Rate your confidence","1",""
"306.5","e","choice","left","e","experimental","988","1421939","0.0-4.0-8.111","true","112","3.8500000000000005","","",""
"1757.0999999046326","4","confid","","","html-slider-response","990","1424198","0.0-4.0-10.111-0.111","","","","Rate your confidence","1",""
"274.80000019073486","e","choice","left","e","experimental","997","1426251","0.0-4.0-8.112","true","113","3.7500000000000004","","",""
"2107.2999997138977","4","confid","","","html-slider-response","999","1428864","0.0-4.0-10.112-0.112","","","","Rate your confidence","1",""
"250.80000019073486","i","choice","right","i","experimental","1006","1430904","0.0-4.0-8.113","true","114","3.7500000000000004","","",""
"2113.300000190735","4","confid","","","html-slider-response","1008","1433519","0.0-4.0-10.113-0.113","","","","Rate your confidence","1",""
"609.2000002861023","e","choice","left","e","experimental","1015","1435906","0.0-4.0-8.114","true","115","3.6500000000000004","","",""
"4983","4","confid","","","html-slider-response","1017","1441405","0.0-4.0-10.114-0.114","","","","Rate your confidence","1",""
"481.2999997138977","i","choice","right","i","experimental","1024","1443663","0.0-4.0-8.115","true","116","3.6500000000000004","","",""
"9736.900000095367","4","confid","","","html-slider-response","1026","1453903","0.0-4.0-10.115-0.115","","","","Rate your confidence","1",""
"641.4000000953674","i","choice","left","e","experimental","1033","1456333","0.0-4.0-8.116","false","117","3.5500000000000003","","",""
"1751.9000000953674","4","confid","","","html-slider-response","1035","1458587","0.0-4.0-10.116-0.116","","","","Rate your confidence","1",""
"13412.5","i","choice","right","i","experimental","1042","1473791","0.0-4.0-8.117","true","118","3.6500000000000004","","",""
"2360.5","4","confid","","","html-slider-response","1044","1476657","0.0-4.0-10.117-0.117","","","","Rate your confidence","1",""
"713.3000001907349","e","choice","right","i","experimental","1051","1479146","0.0-4.0-8.118","false","119","3.6500000000000004","","",""
"2730.9000000953674","4","confid","","","html-slider-response","1053","1482390","0.0-4.0-10.118-0.118","","","","Rate your confidence","1",""
"603","i","choice","left","e","experimental","1060","1484779","0.0-4.0-8.119","false","120","3.7500000000000004","","",""
"5110.599999904633","4","confid","","","html-slider-response","1062","1490395","0.0-4.0-10.119-0.119","","","","Rate your confidence","1",""
"519.7000002861023","i","choice","left","e","experimental","1069","1492710","0.0-4.0-8.120","false","121","3.8500000000000005","","",""
"3202.199999809265","4","confid","","","html-slider-response","1071","1496418","0.0-4.0-10.120-0.120","","","","Rate your confidence","1",""
"614.6999998092651","i","choice","right","i","experimental","1078","1498820","0.0-4.0-8.121","true","122","3.9500000000000006","","",""
"2393.5","4","confid","","","html-slider-response","1080","1501716","0.0-4.0-10.121-0.121","","","","Rate your confidence","1",""
"14854.799999713898","e","choice","right","i","experimental","1087","1518347","0.0-4.0-8.122","false","123","3.9500000000000006","","",""
"17957.89999961853","3","confid","","","html-slider-response","1089","1536810","0.0-4.0-10.122-0.122","","","","Rate your confidence","1",""
"1075.7999997138977","e","choice","left","e","experimental","1096","1539676","0.0-4.0-8.123","true","124","4.050000000000001","","",""
"3191.199999809265","4","confid","","","html-slider-response","1098","1543370","0.0-4.0-10.123-0.123","","","","Rate your confidence","1",""
"7848.400000095367","e","choice","left","e","experimental","1105","1553001","0.0-4.0-8.124","true","125","4.050000000000001","","",""
"6104.199999809265","3","confid","","","html-slider-response","1107","1559607","0.0-4.0-10.124-0.124","","","","Rate your confidence","1",""
"1685.8000001907349","i","choice","right","i","experimental","1114","1563077","0.0-4.0-8.125","true","126","3.9500000000000006","","",""
"7673.400000095367","4","confid","","","html-slider-response","1116","1571255","0.0-4.0-10.125-0.125","","","","Rate your confidence","1",""
"1086.1000003814697","i","choice","right","i","experimental","1123","1574123","0.0-4.0-8.126","true","127","3.9500000000000006","","",""
"5735.099999904633","3","confid","","","html-slider-response","1125","1580361","0.0-4.0-10.126-0.126","","","","Rate your confidence","1",""
"21255.300000190735","i","choice","left","e","experimental","1132","1603396","0.0-4.0-8.127","false","128","3.8500000000000005","","",""
"7180.699999809265","3","confid","","","html-slider-response","1134","1611083","0.0-4.0-10.127-0.127","","","","Rate your confidence","1",""
"3953.2999997138977","i","choice","right","i","experimental","1141","1616836","0.0-4.0-8.128","true","129","3.9500000000000006","","",""
"3582.6000003814697","3","confid","","","html-slider-response","1143","1620925","0.0-4.0-10.128-0.128","","","","Rate your confidence","1",""
"1621.3000001907349","i","choice","left","e","experimental","1150","1624346","0.0-4.0-8.129","false","130","3.9500000000000006","","",""
"2588.199999809265","4","confid","","","html-slider-response","1152","1627440","0.0-4.0-10.129-0.129","","","","Rate your confidence","1",""
"515.0999999046326","e","choice","left","e","experimental","1159","1629737","0.0-4.0-8.130","true","131","4.050000000000001","","",""
"8278.5","3","confid","","","html-slider-response","1161","1638521","0.0-4.0-10.130-0.130","","","","Rate your confidence","1",""
"2919.0999999046326","i","choice","right","i","experimental","1168","1643217","0.0-4.0-8.131","true","132","4.050000000000001","","",""
"2885.199999809265","4","confid","","","html-slider-response","1170","1646616","0.0-4.0-10.131-0.131","","","","Rate your confidence","1",""
"730","i","choice","left","e","experimental","1177","1649124","0.0-4.0-8.132","false","133","3.9500000000000006","","",""
"2318.7000002861023","4","confid","","","html-slider-response","1179","1651946","0.0-4.0-10.132-0.132","","","","Rate your confidence","1",""
"13030.800000190735","i","choice","right","i","experimental","1186","1666781","0.0-4.0-8.133","true","134","4.050000000000001","","",""
"6018.299999713898","4","confid","","","html-slider-response","1188","1673304","0.0-4.0-10.133-0.133","","","","Rate your confidence","1",""
"424.09999990463257","i","choice","right","i","experimental","1195","1675505","0.0-4.0-8.134","true","135","4.050000000000001","","",""
"2749.9000000953674","3","confid","","","html-slider-response","1197","1678758","0.0-4.0-10.134-0.134","","","","Rate your confidence","1",""
"443.09999990463257","e","choice","left","e","experimental","1204","1680992","0.0-4.0-8.135","true","136","3.9500000000000006","","",""
"1524","4","confid","","","html-slider-response","1206","1683022","0.0-4.0-10.135-0.135","","","","Rate your confidence","1",""
"109.59999990463257","e","choice","left","e","experimental","1213","1684923","0.0-4.0-8.136","true","137","3.9500000000000006","","",""
"3029.2000002861023","4","confid","","","html-slider-response","1215","1688466","0.0-4.0-10.136-0.136","","","","Rate your confidence","1",""
"4762.400000095367","i","choice","right","i","experimental","1222","1695006","0.0-4.0-8.137","true","138","3.8500000000000005","","",""
"1702.6999998092651","4","confid","","","html-slider-response","1224","1697214","0.0-4.0-10.137-0.137","","","","Rate your confidence","1",""
"402.19999980926514","e","choice","left","e","experimental","1231","1699409","0.0-4.0-8.138","true","139","3.8500000000000005","","",""
"1740.2000002861023","3","confid","","","html-slider-response","1233","1701653","0.0-4.0-10.138-0.138","","","","Rate your confidence","1",""
"164.30000019073486","i","choice","right","i","experimental","1240","1703598","0.0-4.0-8.139","true","140","3.7500000000000004","","",""
"1989","4","confid","","","html-slider-response","1242","1706090","0.0-4.0-10.139-0.139","","","","Rate your confidence","1",""
"526.0999999046326","i","choice","left","e","experimental","1249","1708403","0.0-4.0-8.140","false","141","3.7500000000000004","","",""
"3264.4000000953674","3","confid","","","html-slider-response","1251","1712173","0.0-4.0-10.140-0.140","","","","Rate your confidence","1",""
"871","i","choice","right","i","experimental","1258","1714832","0.0-4.0-8.141","true","142","3.8500000000000005","","",""
"2507.300000190735","4","confid","","","html-slider-response","1260","1717842","0.0-4.0-10.141-0.141","","","","Rate your confidence","1",""
"313.40000009536743","i","choice","right","i","experimental","1267","1719937","0.0-4.0-8.142","true","143","3.8500000000000005","","",""
"2556.199999809265","4","confid","","","html-slider-response","1269","1722998","0.0-4.0-10.142-0.142","","","","Rate your confidence","1",""
"460.3999996185303","e","choice","left","e","experimental","1276","1725240","0.0-4.0-8.143","true","144","3.7500000000000004","","",""
"3812.1000003814697","4","confid","","","html-slider-response","1278","1729555","0.0-4.0-10.143-0.143","","","","Rate your confidence","1",""
"43.799999713897705","e","choice","left","e","experimental","1285","1731401","0.0-4.0-8.144","true","145","3.7500000000000004","","",""
"2402.3999996185303","4","confid","","","html-slider-response","1287","1734307","0.0-4.0-10.144-0.144","","","","Rate your confidence","1",""
"462.80000019073486","i","choice","right","i","experimental","1294","1736554","0.0-4.0-8.145","true","146","3.6500000000000004","","",""
"1730.5","3","confid","","","html-slider-response","1296","1738787","0.0-4.0-10.145-0.145","","","","Rate your confidence","1",""
"637.5","i","choice","right","i","experimental","1303","1741206","0.0-4.0-8.146","true","147","3.6500000000000004","","",""
"2265.1000003814697","4","confid","","","html-slider-response","1305","1743974","0.0-4.0-10.146-0.146","","","","Rate your confidence","1",""
"957.4000000953674","e","choice","left","e","experimental","1312","1746708","0.0-4.0-8.147","true","148","3.5500000000000003","","",""
"1231","4","confid","","","html-slider-response","1314","1748442","0.0-4.0-10.147-0.147","","","","Rate your confidence","1",""
"612.5","i","choice","right","i","experimental","1321","1750840","0.0-4.0-8.148","true","149","3.5500000000000003","","",""
"3695.5","4","confid","","","html-slider-response","1323","1755038","0.0-4.0-10.148-0.148","","","","Rate your confidence","1",""
"752","e","choice","left","e","experimental","1330","1757570","0.0-4.0-8.149","true","150","3.45","","",""
"1813.3000001907349","4","confid","","","html-slider-response","1332","1759886","0.0-4.0-10.149-0.149","","","","Rate your confidence","1",""
"477","i","choice","left","e","experimental","1339","1762157","0.0-4.0-8.150","false","151","3.45","","",""
"1864.5999999046326","4","confid","","","html-slider-response","1341","1764524","0.0-4.0-10.150-0.150","","","","Rate your confidence","1",""
"833","i","choice","right","i","experimental","1348","1767137","0.0-4.0-8.151","true","152","3.5500000000000003","","",""
"2029.5999999046326","3","confid","","","html-slider-response","1350","1769672","0.0-4.0-10.151-0.151","","","","Rate your confidence","1",""
"887.6999998092651","i","choice","right","i","experimental","1358","1775707","0.0-4.0-8.152","true","153","3.5500000000000003","","",""
"1553.9000000953674","4","confid","","","html-slider-response","1360","1777763","0.0-4.0-10.152-0.152","","","","Rate your confidence","1",""
"904.9000000953674","e","choice","left","e","experimental","1367","1780445","0.0-4.0-8.153","true","154","3.45","","",""
"2389.199999809265","3","confid","","","html-slider-response","1369","1783338","0.0-4.0-10.153-0.153","","","","Rate your confidence","1",""
"813.0999999046326","i","choice","right","i","experimental","1376","1785933","0.0-4.0-8.154","true","155","3.45","","",""
"1603.1999998092651","4","confid","","","html-slider-response","1378","1788039","0.0-4.0-10.154-0.154","","","","Rate your confidence","1",""
"522.8000001907349","e","choice","left","e","experimental","1385","1790342","0.0-4.0-8.155","true","156","3.35","","",""
"2328.199999809265","4","confid","","","html-slider-response","1387","1793173","0.0-4.0-10.155-0.155","","","","Rate your confidence","1",""
"188.09999990463257","i","choice","right","i","experimental","1394","1795149","0.0-4.0-8.156","true","157","3.35","","",""
"1769.5999999046326","4","confid","","","html-slider-response","1396","1797422","0.0-4.0-10.156-0.156","","","","Rate your confidence","1",""
"498.59999990463257","e","choice","left","e","experimental","1403","1799705","0.0-4.0-8.157","true","158","3.25","","",""
"1811.7000002861023","4","confid","","","html-slider-response","1405","1802019","0.0-4.0-10.157-0.157","","","","Rate your confidence","1",""
"656.3000001907349","e","choice","left","e","experimental","1412","1804442","0.0-4.0-8.158","true","159","3.25","","",""
"3322.800000190735","3","confid","","","html-slider-response","1414","1808271","0.0-4.0-10.158-0.158","","","","Rate your confidence","1",""
"4954.700000286102","i","choice","right","i","experimental","1421","1815008","0.0-4.0-8.159","true","160","3.15","","",""
"2033.1999998092651","4","confid","","","html-slider-response","1423","1817545","0.0-4.0-10.159-0.159","","","","Rate your confidence","1",""
"363.69999980926514","i","choice","right","i","experimental","1430","1819689","0.0-4.0-8.160","true","161","3.15","","",""
"1714.5999999046326","4","confid","","","html-slider-response","1432","1821906","0.0-4.0-10.160-0.160","","","","Rate your confidence","1",""
"283.90000009536743","e","choice","left","e","experimental","1439","1823971","0.0-4.0-8.161","true","162","3.05","","",""
"1431.4000000953674","4","confid","","","html-slider-response","1441","1825905","0.0-4.0-10.161-0.161","","","","Rate your confidence","1",""
"399.5","i","choice","right","i","experimental","1448","1828101","0.0-4.0-8.162","true","163","3.05","","",""
"4710.299999713898","4","confid","","","html-slider-response","1450","1833313","0.0-4.0-10.162-0.162","","","","Rate your confidence","1",""
"303.59999990463257","i","choice","left","e","experimental","1457","1835404","0.0-4.0-8.163","false","164","2.9499999999999997","","",""
"1488.8000001907349","4","confid","","","html-slider-response","1459","1837396","0.0-4.0-10.163-0.163","","","","Rate your confidence","1",""
"339","i","choice","right","i","experimental","1466","1839502","0.0-4.0-8.164","true","165","3.05","","",""
"1133.5","3","confid","","","html-slider-response","1468","1841138","0.0-4.0-10.164-0.164","","","","Rate your confidence","1",""
"524.2000002861023","e","choice","left","e","experimental","1475","1843442","0.0-4.0-8.165","true","166","3.05","","",""
"1766.5999999046326","3","confid","","","html-slider-response","1477","1845711","0.0-4.0-10.165-0.165","","","","Rate your confidence","1",""
"393.2999997138977","i","choice","right","i","experimental","1484","1847882","0.0-4.0-8.166","true","167","2.9499999999999997","","",""
"1865.5999999046326","3","confid","","","html-slider-response","1486","1850250","0.0-4.0-10.166-0.166","","","","Rate your confidence","1",""
"447.30000019073486","e","choice","left","e","experimental","1493","1852470","0.0-4.0-8.167","true","168","2.9499999999999997","","",""
"2262.800000190735","3","confid","","","html-slider-response","1495","1855235","0.0-4.0-10.167-0.167","","","","Rate your confidence","1",""
"652.9000000953674","e","choice","right","i","experimental","1502","1857672","0.0-4.0-8.168","false","169","2.8499999999999996","","",""
"2128.199999809265","3","confid","","","html-slider-response","1504","1860303","0.0-4.0-10.168-0.168","","","","Rate your confidence","1",""
"435.19999980926514","e","choice","left","e","experimental","1511","1862508","0.0-4.0-8.169","true","170","2.9499999999999997","","",""
"2786.5","3","confid","","","html-slider-response","1513","1865798","0.0-4.0-10.169-0.169","","","","Rate your confidence","1",""
"496.59999990463257","e","choice","left","e","experimental","1520","1868072","0.0-4.0-8.170","true","171","2.9499999999999997","","",""
"3303","3","confid","","","html-slider-response","1522","1871890","0.0-4.0-10.170-0.170","","","","Rate your confidence","1",""
"213.89999961853027","i","choice","right","i","experimental","1529","1873887","0.0-4.0-8.171","true","172","2.8499999999999996","","",""
"3140.4000000953674","3","confid","","","html-slider-response","1531","1877530","0.0-4.0-10.171-0.171","","","","Rate your confidence","1",""
"676.2999997138977","i","choice","left","e","experimental","1538","1879990","0.0-4.0-8.172","false","173","2.8499999999999996","","",""
"1632.6999998092651","3","confid","","","html-slider-response","1540","1882126","0.0-4.0-10.172-0.172","","","","Rate your confidence","1",""
"477.30000019073486","e","choice","right","i","experimental","1547","1884388","0.0-4.0-8.173","false","174","2.9499999999999997","","",""
"1538","3","confid","","","html-slider-response","1549","1886429","0.0-4.0-10.173-0.173","","","","Rate your confidence","1",""
"1584","e","choice","right","i","experimental","1556","1889792","0.0-4.0-8.174","false","175","3.05","","",""
"1329.6000003814697","3","confid","","","html-slider-response","1558","1891625","0.0-4.0-10.174-0.174","","","","Rate your confidence","1",""
"358.2000002861023","i","choice","left","e","experimental","1565","1893763","0.0-4.0-8.175","false","176","3.15","","",""
"2459.7999997138977","4","confid","","","html-slider-response","1567","1896725","0.0-4.0-10.175-0.175","","","","Rate your confidence","1",""
"286.7000002861023","e","choice","left","e","experimental","1574","1898800","0.0-4.0-8.176","true","177","3.25","","",""
"1638.3000001907349","4","confid","","","html-slider-response","1576","1900945","0.0-4.0-10.176-0.176","","","","Rate your confidence","1",""
"465.7999997138977","i","choice","right","i","experimental","1583","1903193","0.0-4.0-8.177","true","178","3.25","","",""
"5682.800000190735","4","confid","","","html-slider-response","1585","1909378","0.0-4.0-10.177-0.177","","","","Rate your confidence","1",""
"350.80000019073486","i","choice","right","i","experimental","1592","1911515","0.0-4.0-8.178","true","179","3.15","","",""
"2706.5999999046326","3","confid","","","html-slider-response","1594","1914723","0.0-4.0-10.178-0.178","","","","Rate your confidence","1",""
"306.7000002861023","e","choice","left","e","experimental","1601","1916819","0.0-4.0-8.179","true","180","3.15","","",""
"1312.4000000953674","3","confid","","","html-slider-response","1603","1918634","0.0-4.0-10.179-0.179","","","","Rate your confidence","1",""
"196.5","i","choice","right","i","experimental","1610","1920628","0.0-4.0-8.180","true","181","3.05","","",""
"1720","4","confid","","","html-slider-response","1612","1922852","0.0-4.0-10.180-0.180","","","","Rate your confidence","1",""
"2200","e","choice","left","e","experimental","1619","1926832","0.0-4.0-8.181","true","182","3.05","","",""
"2042.4000000953674","4","confid","","","html-slider-response","1621","1929387","0.0-4.0-10.181-0.181","","","","Rate your confidence","1",""
"471.80000019073486","e","choice","left","e","experimental","1628","1931643","0.0-4.0-8.182","true","183","2.9499999999999997","","",""
"1209.5","3","confid","","","html-slider-response","1630","1933357","0.0-4.0-10.182-0.182","","","","Rate your confidence","1",""
"592.1999998092651","e","choice","right","i","experimental","1637","1935744","0.0-4.0-8.183","false","184","2.9499999999999997","","",""
"1974.9000000953674","4","confid","","","html-slider-response","1639","1938221","0.0-4.0-10.183-0.183","","","","Rate your confidence","1",""
"435.1000003814697","i","choice","right","i","experimental","1646","1940432","0.0-4.0-8.184","true","185","3.05","","",""
"1831.5999999046326","3","confid","","","html-slider-response","1648","1942769","0.0-4.0-10.184-0.184","","","","Rate your confidence","1",""
"337.80000019073486","e","choice","left","e","experimental","1655","1944896","0.0-4.0-8.185","true","186","3.05","","",""
"1407.2999997138977","4","confid","","","html-slider-response","1657","1946806","0.0-4.0-10.185-0.185","","","","Rate your confidence","1",""
"520.0999999046326","e","choice","left","e","experimental","1664","1949095","0.0-4.0-8.186","true","187","2.9499999999999997","","",""
"1384.1999998092651","3","confid","","","html-slider-response","1666","1950985","0.0-4.0-10.186-0.186","","","","Rate your confidence","1",""
"293.8999996185303","i","choice","right","i","experimental","1673","1953064","0.0-4.0-8.187","true","188","2.9499999999999997","","",""
"3954.0999999046326","3","confid","","","html-slider-response","1675","1957521","0.0-4.0-10.187-0.187","","","","Rate your confidence","1",""
"458.5","e","choice","left","e","experimental","1682","1959771","0.0-4.0-8.188","true","189","2.8499999999999996","","",""
"1320","3","confid","","","html-slider-response","1684","1961595","0.0-4.0-10.188-0.188","","","","Rate your confidence","1",""
"259.5","i","choice","right","i","experimental","1691","1963631","0.0-4.0-8.189","true","190","2.8499999999999996","","",""
"1706.6999998092651","3","confid","","","html-slider-response","1693","1965845","0.0-4.0-10.189-0.189","","","","Rate your confidence","1",""
"535.7999997138977","e","choice","left","e","experimental","1700","1968165","0.0-4.0-8.190","true","191","2.7499999999999996","","",""
"2819.0999999046326","4","confid","","","html-slider-response","1702","1971497","0.0-4.0-10.190-0.190","","","","Rate your confidence","1",""
"378.19999980926514","i","choice","right","i","experimental","1709","1973654","0.0-4.0-8.191","true","192","2.7499999999999996","","",""
"3999.699999809265","3","confid","","","html-slider-response","1711","1978161","0.0-4.0-10.191-0.191","","","","Rate your confidence","1",""
"293.5","i","choice","right","i","experimental","1718","1980224","0.0-4.0-8.192","true","193","2.6499999999999995","","",""
"2541.9000000953674","3","confid","","","html-slider-response","1720","1983269","0.0-4.0-10.192-0.192","","","","Rate your confidence","1",""
"882.6999998092651","e","choice","left","e","experimental","1727","1985944","0.0-4.0-8.193","true","194","2.6499999999999995","","",""
"3148.8999996185303","3","confid","","","html-slider-response","1729","1989595","0.0-4.0-10.193-0.193","","","","Rate your confidence","1","61091"
