"rt","response","task","target_side","correct_response","trial_type","trial_index","time_elapsed","internal_node_id","correct","trial_number","n_dots","stimulus","slider_start","participant"
"204.30000001192093","e","choice","left","e","practice","10","89298","0.0-4.0-8.0","true","1","4.25","","",""
"117.59999996423721","i","choice","right","i","practice","18","91712","0.0-4.0-8.1","true","2","4.25","","",""
"2211.099999964237","e","choice","left","e","practice","26","96210","0.0-4.0-8.2","true","3","3.85","","",""
"351.60000002384186","i","choice","right","i","practice","34","98853","0.0-4.0-8.3","true","4","3.85","","",""
"1308.2999999523163","e","choice","left","e","practice","42","102454","0.0-4.0-8.4","true","5","3.45","","",""
"353.30000001192093","i","choice","right","i","practice","50","105094","0.0-4.0-8.5","true","6","3.45","","",""
"268.30000001192093","i","choice","right","i","practice","58","107659","0.0-4.0-8.6","true","7","3.25","","",""
"126.70000004768372","e","choice","left","e","practice","66","110080","0.0-4.0-8.7","true","8","3.25","","",""
"26.5","i","choice","left","e","practice","74","112396","0.0-4.0-8.8","false","9","3.05","","",""
"352.19999998807907","i","choice","right","i","practice","82","115036","0.0-4.0-8.9","true","10","3.25","","",""
"214.69999998807907","e","choice","left","e","practice","90","117545","0.0-4.0-8.10","true","11","3.25","","",""
"21.100000023841858","i","choice","right","i","practice","98","119858","0.0-4.0-8.11","true","12","3.15","","",""
"742.5","e","choice","right","i","practice","106","122891","0.0-4.0-8.12","false","13","3.15","","",""
"246.19999998807907","e","choice","left","e","practice","114","125427","0.0-4.0-8.13","true","14","3.25","","",""
"806.1999999880791","i","choice","right","i","practice","122","128530","0.0-4.0-8.14","true","15","3.25","","",""
"158.39999997615814","i","choice","left","e","practice","130","130980","0.0-4.0-8.15","false","16","3.15","","",""
"195.5","i","choice","left","e","practice","138","133465","0.0-4.0-8.16","false","17","3.25","","",""
"15.799999952316284","e","choice","right","i","practice","146","135773","0.0-4.0-8.17","false","18","3.35","","",""
"473.4000000357628","i","choice","right","i","practice","154","138536","0.0-4.0-8.18","true","19","3.45","","",""
"350.0999999642372","e","choice","left","e","practice","162","141182","0.0-4.0-8.19","true","20","3.45","","",""
"37.30000001192093","e","choice","left","e","practice","170","143512","0.0-4.0-8.20","true","21","3.35","","",""
"192.60000002384186","i","choice","right","i","practice","178","145996","0.0-4.0-8.21","true","22","3.35","","",""
"1612.0999999642372","i","choice","right","i","practice","186","149901","0.0-4.0-8.22","true","23","3.25","","",""
"302.30000001192093","e","choice","left","e","practice","194","152494","0.0-4.0-8.23","true","24","3.25","","",""
"200.19999998807907","e","choice","left","e","practice","202","154984","0.0-4.0-8.24","true","25","3.15","","",""
"311","i","choice","right","i","practice","210","157590","0.0-4.0-8.25","true","26","3.15","","",""
"281.69999998807907","i","choice","right","i","experimental","221","195348","0.0-4.0-8.26","true","27","3.05","","",""
"6551.399999976158","4","confid","","","html-slider-response","223","202404","0.0-4.0-10.26-0.26","","","","Rate your confidence","1",""
"491.80000001192093","e","choice","left","e","experimental","230","204683","0.0-4.0-8.27","true","28","3.05","","",""
"3164.399999976158","3","confid","","","html-slider-response","232","208353","0.0-4.0-10.27-0.27","","","","Rate your confidence","1",""
"774.7999999523163","i","choice","right","i","experimental","239","210921","0.0-4.0-8.28","true","29","2.9499999999999997","","",""
"2995.899999976158","2","confid","","","html-slider-response","241","214425","0.0-4.0-10.28-0.28","","","","Rate your confidence","1",""
"568.5","e","choice","left","e","experimental","248","216782","0.0-4.0-8.29","true","30","2.9499999999999997","","",""
"4606.300000011921","1","confid","","","html-slider-response","250","221895","0.0-4.0-10.29-0.29","","","","Rate your confidence","1",""
"260.69999998807907","i","choice","right","i","experimental","257","223945","0.0-4.0-8.30","true","31","2.8499999999999996","","",""
"3039.800000011921","4","confid","","","html-slider-response","259","227490","0.0-4.0-10.30-0.30","","","","Rate your confidence","1",""
"259.89999997615814","e","choice","left","e","experimental","266","229540","0.0-4.0-8.31","true","32","2.8499999999999996","","",""
"2828.899999976158","3","confid","","","html-slider-response","268","232887","0.0-4.0-10.31-0.31","","","","Rate your confidence","1",""
"150.4000000357628","e","choice","left","e","experimental","275","234820","0.0-4.0-8.32","true","33","2.7499999999999996","","",""
"2492.800000011921","3","confid","","","html-slider-response","277","237820","0.0-4.0-10.32-0.32","","","","Rate your confidence","1",""
"713.1000000238419","i","choice","right","i","experimental","284","240329","0.0-4.0-8.33","true","34","2.7499999999999996","","",""
"3299.900000035763","2","confid","","","html-slider-response","286","244141","0.0-4.0-10.33-0.33","","","","Rate your confidence","1",""
"740.2000000476837","e","choice","left","e","experimental","293","246669","0.0-4.0-8.34","true","35","2.6499999999999995","","",""
"2723.800000011921","2","confid","","","html-slider-response","295","249899","0.0-4.0-10.34-0.34","","","","Rate your confidence","1",""
"17.19999998807907","i","choice","right","i","experimental","302","251703","0.0-4.0-8.35","true","36","2.6499999999999995","","",""
"3400.7000000476837","2","confid","","","html-slider-response","304","255610","0.0-4.0-10.35-0.35","","","","Rate your confidence","1",""
"348.7000000476837","e","choice","left","e","experimental","311","257749","0.0-4.0-8.36","true","37","2.5499999999999994","","",""
"2619.199999988079","5","confid","","","html-slider-response","313","260873","0.0-4.0-10.36-0.36","","","","Rate your confidence","1",""
"479.10000002384186","e","choice","right","i","experimental","320","263137","0.0-4.0-8.37","false","38","2.5499999999999994","","",""
"3222","2","confid","","","html-slider-response","322","266863","0.0-4.0-10.37-0.37","","","","Rate your confidence","1",""
"251.39999997615814","i","choice","left","e","experimental","329","268904","0.0-4.0-8.38","false","39","2.6499999999999995","","",""
"2528","2","confid","","","html-slider-response","331","271936","0.0-4.0-10.38-0.38","","","","Rate your confidence","1",""
"29.30000001192093","i","choice","right","i","experimental","338","273745","0.0-4.0-8.39","true","40","2.7499999999999996","","",""
"3285.300000011921","4","confid","","","html-slider-response","340","277535","0.0-4.0-10.39-0.39","","","","Rate your confidence","1",""
"464.60000002384186","i","choice","right","i","experimental","347","279791","0.0-4.0-8.40","true","41","2.7499999999999996","","",""
"3816.5","2","confid","","","html-slider-response","349","284112","0.0-4.0-10.40-0.40","","","","Rate your confidence","1",""
"570.3999999761581","i","choice","left","e","experimental","356","286469","0.0-4.0-8.41","false","42","2.6499999999999995","","",""
"2855.600000023842","5","confid","","","html-slider-response","358","289831","0.0-4.0-10.41-0.41","","","","Rate your confidence","1",""
"541.1999999880791","e","choice","left","e","experimental","365","292167","0.0-4.0-8.42","true","43","2.7499999999999996","","",""
"3472.699999988079","2","confid","","","html-slider-response","367","296145","0.0-4.0-10.42-0.42","","","","Rate your confidence","1",""
"154.39999997615814","i","choice","right","i","experimental","374","298096","0.0-4.0-8.43","true","44","2.7499999999999996","","",""
"2685.199999988079","4","confid","","","html-slider-response","376","301286","0.0-4.0-10.43-0.43","","","","Rate your confidence","1",""
"16.19999998807907","e","choice","left","e","experimental","383","303102","0.0-4.0-8.44","true","45","2.6499999999999995","","",""
"6065.5","5","confid","","","html-slider-response","385","309672","0.0-4.0-10.44-0.44","","","","Rate your confidence","1",""
"809.8999999761581","i","choice","right","i","experimental","392","312269","0.0-4.0-8.45","true","46","2.6499999999999995","","",""
"4040.300000011921","2","confid","","","html-slider-response","394","316814","0.0-4.0-10.45-0.45","","","","Rate your confidence","1",""
"122","e","choice","right","i","experimental","401","318725","0.0-4.0-8.46","false","47","2.5499999999999994","","",""
"2483.100000023842","3","confid","","","html-slider-response","403","321715","0.0-4.0-10.46-0.46","","","","Rate your confidence","1",""
"340.69999998807907","e","choice","left","e","experimental","410","323847","0.0-4.0-8.47","true","48","2.6499999999999995","","",""
"2887.699999988079","2","confid","","","html-slider-response","412","327240","0.0-4.0-10.47-0.47","","","","Rate your confidence","1",""
"581.6999999880791","i","choice","right","i","experimental","419","329614","0.0-4.0-8.48","true","49","2.6499999999999995","","",""
"3033.5","3","confid","","","html-slider-response","421","333154","0.0-4.0-10.48-0.48","","","","Rate your confidence","1",""
"332.5","e","choice","left","e","experimental","428","335279","0.0-4.0-8.49","true","50","2.5499999999999994","","",""
"3439.300000011921","5","confid","","","html-slider-response","430","339224","0.0-4.0-10.49-0.49","","","","Rate your confidence","1",""
"209.5999999642372","e","choice","left","e","experimental","437","341220","0.0-4.0-8.50","true","51","2.5499999999999994","","",""
"3590.800000011921","5","confid","","","html-slider-response","439","345314","0.0-4.0-10.50-0.50","","","","Rate your confidence","1",""
"14.100000023841858","e","choice","right","i","experimental","446","347117","0.0-4.0-8.51","false","52","2.4499999999999993","","",""
"2381.5","3","confid","","","html-slider-response","448","350005","0.0-4.0-10.51-0.51","","","","Rate your confidence","1",""
"251.30000001192093","e","choice","left","e","experimental","455","352052","0.0-4.0-8.52","true","53","2.5499999999999994","","",""
"4844.399999976158","4","confid","","","html-slider-response","457","357402","0.0-4.0-10.52-0.52","","","","Rate your confidence","1",""
"244.29999995231628","i","choice","right","i","experimental","464","359442","0.0-4.0-8.53","true","54","2.5499999999999994","","",""
"3423.199999988079","2","confid","","","html-slider-response","466","363369","0.0-4.0-10.53-0.53","","","","Rate your confidence","1",""
"241.5999999642372","i","choice","right","i","experimental","473","365406","0.0-4.0-8.54","true","55","2.4499999999999993","","",""
"2596.100000023842","4","confid","","","html-slider-response","475","368508","0.0-4.0-10.54-0.54","","","","Rate your confidence","1",""
"505.89999997615814","e","choice","left","e","experimental","482","370809","0.0-4.0-8.55","true","56","2.4499999999999993","","",""
"2456.899999976158","3","confid","","","html-slider-response","484","373771","0.0-4.0-10.55-0.55","","","","Rate your confidence","1",""
"17.600000023841858","e","choice","right","i","experimental","491","375582","0.0-4.0-8.56","false","57","2.349999999999999","","",""
"2331.699999988079","5","confid","","","html-slider-response","493","378419","0.0-4.0-10.56-0.56","","","","Rate your confidence","1",""
"311.0999999642372","e","choice","left","e","experimental","500","380515","0.0-4.0-8.57","true","58","2.4499999999999993","","",""
"5349.199999988079","4","confid","","","html-slider-response","502","386371","0.0-4.0-10.57-0.57","","","","Rate your confidence","1",""
"541.6999999880791","e","choice","left","e","experimental","509","388696","0.0-4.0-8.58","true","59","2.4499999999999993","","",""
"2400.800000011921","5","confid","","","html-slider-response","511","391602","0.0-4.0-10.58-0.58","","","","Rate your confidence","1",""
"256.5999999642372","i","choice","right","i","experimental","518","393651","0.0-4.0-8.59","true","60","2.349999999999999","","",""
"2101","3","confid","","","html-slider-response","520","396256","0.0-4.0-10.59-0.59","","","","Rate your confidence","1",""
"224.30000001192093","i","choice","left","e","experimental","527","398269","0.0-4.0-8.60","false","61","2.349999999999999","","",""
"2294.400000035763","2","confid","","","html-slider-response","529","401068","0.0-4.0-10.60-0.60","","","","Rate your confidence","1",""
"59.89999997615814","e","choice","right","i","experimental","536","402903","0.0-4.0-8.61","false","62","2.4499999999999993","","",""
"4559.300000011921","2","confid","","","html-slider-response","538","407968","0.0-4.0-10.61-0.61","","","","Rate your confidence","1",""
"984.3000000119209","e","choice","right","i","experimental","545","410746","0.0-4.0-8.62","false","63","2.5499999999999994","","",""
"1746.300000011921","2","confid","","","html-slider-response","547","412999","0.0-4.0-10.62-0.62","","","","Rate your confidence","1",""
"113.09999996423721","i","choice","left","e","experimental","554","414904","0.0-4.0-8.63","false","64","2.6499999999999995","","",""
"5154.300000011921","3","confid","","","html-slider-response","556","420564","0.0-4.0-10.63-0.63","","","","Rate your confidence","1",""
"37.89999997615814","i","choice","right","i","experimental","563","422389","0.0-4.0-8.64","true","65","2.7499999999999996","","",""
"4776.5","1","confid","","","html-slider-response","565","427672","0.0-4.0-10.64-0.64","","","","Rate your confidence","1",""
"291.0999999642372","e","choice","left","e","experimental","572","429759","0.0-4.0-8.65","true","66","2.7499999999999996","","",""
"2123.7999999523163","2","confid","","","html-slider-response","574","432390","0.0-4.0-10.65-0.65","","","","Rate your confidence","1",""
"109.30000001192093","i","choice","right","i","experimental","581","434285","0.0-4.0-8.66","true","67","2.6499999999999995","","",""
"2174.5","3","confid","","","html-slider-response","583","436964","0.0-4.0-10.66-0.66","","","","Rate your confidence","1",""
"571.0999999642372","e","choice","left","e","experimental","590","439323","0.0-4.0-8.67","true","68","2.6499999999999995","","",""
"1891.9000000357628","6","confid","","","html-slider-response","592","441720","0.0-4.0-10.67-0.67","","","","Rate your confidence","1",""
"538.3999999761581","e","choice","left","e","experimental","600","688691","0.0-4.0-8.68","true","69","2.5499999999999994","","",""
"2426.699999988079","3","confid","","","html-slider-response","602","691623","0.0-4.0-10.68-0.68","","","","Rate your confidence","1",""
"642.8999999761581","e","choice","right","i","experimental","609","694057","0.0-4.0-8.69","false","70","2.5499999999999994","","",""
"2598","2","confid","","","html-slider-response","611","697158","0.0-4.0-10.69-0.69","","","","Rate your confidence","1",""
"1.100000023841858","e","choice","left","e","experimental","618","698952","0.0-4.0-8.70","true","71","2.6499999999999995","","",""
"1944","4","confid","","","html-slider-response","620","701401","0.0-4.0-10.70-0.70","","","","Rate your confidence","1",""
"519.4000000357628","e","choice","right","i","experimental","627","703705","0.0-4.0-8.71","false","72","2.6499999999999995","","",""
"1964.5","2","confid","","","html-slider-response","629","706173","0.0-4.0-10.71-0.71","","","","Rate your confidence","1",""
"450.30000001192093","e","choice","left","e","experimental","636","708416","0.0-4.0-8.72","true","73","2.7499999999999996","","",""
"1723.300000011921","4","confid","","","html-slider-response","638","710647","0.0-4.0-10.72-0.72","","","","Rate your confidence","1",""
"1315.2000000476837","i","choice","right","i","experimental","645","713756","0.0-4.0-8.73","true","74","2.7499999999999996","","",""
"2123.199999988079","3","confid","","","html-slider-response","647","716385","0.0-4.0-10.73-0.73","","","","Rate your confidence","1",""
"280.39999997615814","i","choice","right","i","experimental","654","718452","0.0-4.0-8.74","true","75","2.6499999999999995","","",""
"1928.7000000476837","4","confid","","","html-slider-response","656","720887","0.0-4.0-10.74-0.74","","","","Rate your confidence","1",""
"311.0999999642372","e","choice","left","e","experimental","663","722986","0.0-4.0-8.75","true","76","2.6499999999999995","","",""
"2959.899999976158","2","confid","","","html-slider-response","665","726452","0.0-4.0-10.75-0.75","","","","Rate your confidence","1",""
"135.5","i","choice","right","i","experimental","672","728377","0.0-4.0-8.76","true","77","2.5499999999999994","","",""
"1605.5999999642372","4","confid","","","html-slider-response","674","730490","0.0-4.0-10.76-0.76","","","","Rate your confidence","1",""
"248.70000004768372","i","choice","left","e","experimental","681","732527","0.0-4.0-8.77","false","78","2.5499999999999994","","",""
"2777.7999999523163","1","confid","","","html-slider-response","683","735811","0.0-4.0-10.77-0.77","","","","Rate your confidence","1",""
"393.9000000357628","e","choice","left","e","experimental","690","737995","0.0-4.0-8.78","true","79","2.6499999999999995","","",""
"1923","5","confid","","","html-slider-response","692","740424","0.0-4.0-10.78-0.78","","","","Rate your confidence","1",""
"0.9000000357627869","i","choice","right","i","experimental","699","742209","0.0-4.0-8.79","true","80","2.6499999999999995","","",""
"1740.7000000476837","5","confid","","","html-slider-response","701","744455","0.0-4.0-10.79-0.79","","","","Rate your confidence","1",""
"351","e","choice","left","e","experimental","708","746596","0.0-4.0-8.80","true","81","2.5499999999999994","","",""
"1589.699999988079","1","confid","","","html-slider-response","710","748693","0.0-4.0-10.80-0.80","","","","Rate your confidence","1",""
"78.69999998807907","i","choice","right","i","experimental","717","750566","0.0-4.0-8.81","true","82","2.5499999999999994","","",""
"1443.2999999523163","4","confid","","","html-slider-response","719","752516","0.0-4.0-10.81-0.81","","","","Rate your confidence","1",""
"28.19999998807907","i","choice","right","i","experimental","726","754334","0.0-4.0-8.82","true","83","2.4499999999999993","","",""
"1584.800000011921","3","confid","","","html-slider-response","728","756423","0.0-4.0-10.82-0.82","","","","Rate your confidence","1",""
"39.69999998807907","i","choice","left","e","experimental","735","758248","0.0-4.0-8.83","false","84","2.4499999999999993","","",""
"1928.5999999642372","3","confid","","","html-slider-response","737","760681","0.0-4.0-10.83-0.83","","","","Rate your confidence","1",""
"309.0999999642372","e","choice","left","e","experimental","744","762772","0.0-4.0-8.84","true","85","2.5499999999999994","","",""
"1358.5","2","confid","","","html-slider-response","746","764636","0.0-4.0-10.84-0.84","","","","Rate your confidence","1",""
"24.19999998807907","i","choice","right","i","experimental","753","766451","0.0-4.0-8.85","true","86","2.5499999999999994","","",""
"3244.199999988079","4","confid","","","html-slider-response","755","770200","0.0-4.0-10.85-0.85","","","","Rate your confidence","1",""
"181.30000001192093","i","choice","left","e","experimental","762","772177","0.0-4.0-8.86","false","87","2.4499999999999993","","",""
"3827.5","3","confid","","","html-slider-response","764","776510","0.0-4.0-10.86-0.86","","","","Rate your confidence","1",""
"290.10000002384186","i","choice","right","i","experimental","771","778591","0.0-4.0-8.87","true","88","2.5499999999999994","","",""
"1920.7999999523163","1","confid","","","html-slider-response","773","781019","0.0-4.0-10.87-0.87","","","","Rate your confidence","1",""
"210.10000002384186","e","choice","left","e","experimental","780","783013","0.0-4.0-8.88","true","89","2.5499999999999994","","",""
"2085.100000023842","5","confid","","","html-slider-response","782","785605","0.0-4.0-10.88-0.88","","","","Rate your confidence","1",""
"28.80000001192093","e","choice","right","i","experimental","789","787425","0.0-4.0-8.89","false","90","2.4499999999999993","","",""
"2454.5","2","confid","","","html-slider-response","791","790386","0.0-4.0-10.89-0.89","","","","Rate your confidence","1",""
"1474.199999988079","e","choice","left","e","experimental","798","793653","0.0-4.0-8.90","true","91","2.5499999999999994","","",""
"1826.6000000238419","1","confid","","","html-slider-response","800","795985","0.0-4.0-10.90-0.90","","","","Rate your confidence","1",""
"363.5","i","choice","right","i","experimental","807","798140","0.0-4.0-8.91","true","92","2.5499999999999994","","",""
"2146.199999988079","2","confid","","","html-slider-response","809","800799","0.0-4.0-10.91-0.91","","","","Rate your confidence","1",""
"299.80000001192093","i","choice","left","e","experimental","816","802893","0.0-4.0-8.92","false","93","2.4499999999999993","","",""
"1719.199999988079","2","confid","","","html-slider-response","818","805116","0.0-4.0-10.92-0.92","","","","Rate your confidence","1",""
"305.4000000357628","e","choice","right","i","experimental","825","807216","0.0-4.0-8.93","false","94","2.5499999999999994","","",""
"2376.600000023842","5","confid","","","html-slider-response","827","810099","0.0-4.0-10.93-0.93","","","","Rate your confidence","1",""
"272","i","choice","right","i","experimental","834","812163","0.0-4.0-8.94","true","95","2.6499999999999995","","",""
"2377.899999976158","4","confid","","","html-slider-response","836","815047","0.0-4.0-10.94-0.94","","","","Rate your confidence","1",""
"95.60000002384186","e","choice","left","e","experimental","843","816925","0.0-4.0-8.95","true","96","2.6499999999999995","","",""
"1772.3999999761581","5","confid","","","html-slider-response","845","819204","0.0-4.0-10.95-0.95","","","","Rate your confidence","1",""
"469.69999998807907","i","choice","left","e","experimental","852","821459","0.0-4.0-8.96","false","97","2.5499999999999994","","",""
"1879","3","confid","","","html-slider-response","854","823844","0.0-4.0-10.96-0.96","","","","Rate your confidence","1",""
"102.5","i","choice","right","i","experimental","861","825734","0.0-4.0-8.97","true","98","2.6499999999999995","","",""
"1676.699999988079","2","confid","","","html-slider-response","863","827915","0.0-4.0-10.97-0.97","","","","Rate your confidence","1",""
"381.89999997615814","e","choice","left","e","experimental","870","830090","0.0-4.0-8.98","true","99","2.6499999999999995","","",""
"1913.199999988079","6","confid","","","html-slider-response","872","832508","0.0-4.0-10.98-0.98","","","","Rate your confidence","1",""
"195.10000002384186","e","choice","right","i","experimental","879","834497","0.0-4.0-8.99","false","100","2.5499999999999994","","",""
"1995","4","confid","","","html-slider-response","881","836997","0.0-4.0-10.99-0.99","","","","Rate your confidence","1",""
"167.19999998807907","e","choice","left","e","experimental","888","838954","0.0-4.0-8.100","true","101","2.6499999999999995","","",""
"3788.099999964237","4","confid","","","html-slider-response","890","843247","0.0-4.0-10.100-0.100","","","","Rate your confidence","1",""
"139.69999998807907","e","choice","right","i","experimental","897","845180","0.0-4.0-8.101","false","102","2.6499999999999995","","",""
"2777.800000011921","2","confid","","","html-slider-response","899","848465","0.0-4.0-10.101-0.101","","","","Rate your confidence","1",""
"75.5","i","choice","right","i","experimental","906","850333","0.0-4.0-8.102","true","103","2.7499999999999996","","",""
"1572.4000000357628","2","confid","","","html-slider-response","908","852413","0.0-4.0-10.102-0.102","","","","Rate your confidence","1",""
"542","e","choice","left","e","experimental","915","854760","0.0-4.0-8.103","true","104","2.7499999999999996","","",""
"3691.600000023842","5","confid","","","html-slider-response","917","858970","0.0-4.0-10.103-0.103","","","","Rate your confidence","1",""
"1130.9000000357628","i","choice","left","e","experimental","924","861887","0.0-4.0-8.104","false","105","2.6499999999999995","","",""
"3530.2000000476837","3","confid","","","html-slider-response","926","865923","0.0-4.0-10.104-0.104","","","","Rate your confidence","1",""
"23.900000035762787","i","choice","right","i","experimental","933","867736","0.0-4.0-8.105","true","106","2.7499999999999996","","",""
"2928.7000000476837","5","confid","","","html-slider-response","935","871168","0.0-4.0-10.105-0.105","","","","Rate your confidence","1",""
"920.8999999761581","e","choice","right","i","experimental","942","873881","0.0-4.0-8.106","false","107","2.7499999999999996","","",""
"2581.7999999523163","2","confid","","","html-slider-response","944","876965","0.0-4.0-10.106-0.106","","","","Rate your confidence","1",""
"210.39999997615814","e","choice","left","e","experimental","951","878965","0.0-4.0-8.107","true","108","2.8499999999999996","","",""
"2574.300000011921","5","confid","","","html-slider-response","953","882044","0.0-4.0-10.107-0.107","","","","Rate your confidence","1",""
"466.89999997615814","e","choice","left","e","experimental","960","884309","0.0-4.0-8.108","true","109","2.8499999999999996","","",""
"2460.300000011921","5","confid","","","html-slider-response","962","887274","0.0-4.0-10.108-0.108","","","","Rate your confidence","1",""
"169.60000002384186","i","choice","right","i","experimental","969","889238","0.0-4.0-8.109","true","110","2.7499999999999996","","",""
"2858.800000011921","4","confid","","","html-slider-response","971","892604","0.0-4.0-10.109-0.109","","","","Rate your confidence","1",""
"157.19999998807907","e","choice","left","e","experimental","979","1454742","0.0-4.0-8.110","true","111","2.7499999999999996","","",""
"2479","2","confid","","","html-slider-response","981","1457726","0.0-4.0-10.110-0.110","","","","Rate your confidence","1",""
"75.89999997615814","i","choice","right","i","experimental","988","1459592","0.0-4.0-8.111","true","112","2.6499999999999995","","",""
"2697.5","3","confid","","","html-slider-response","990","1462796","0.0-4.0-10.111-0.111","","","","Rate your confidence","1",""
"538","i","choice","right","i","experimental","997","1465122","0.0-4.0-8.112","true","113","2.6499999999999995","","",""
"2490.2000000476837","5","confid","","","html-slider-response","999","1468118","0.0-4.0-10.112-0.112","","","","Rate your confidence","1",""
"640.1000000238419","e","choice","left","e","experimental","1006","1470547","0.0-4.0-8.113","true","114","2.5499999999999994","","",""
"6081.199999988079","4","confid","","","html-slider-response","1008","1477132","0.0-4.0-10.113-0.113","","","","Rate your confidence","1",""
"376.4000000357628","i","choice","right","i","experimental","1015","1479294","0.0-4.0-8.114","true","115","2.5499999999999994","","",""
"2039.9000000357628","3","confid","","","html-slider-response","1017","1481841","0.0-4.0-10.114-0.114","","","","Rate your confidence","1",""
"165.0999999642372","e","choice","left","e","experimental","1024","1483795","0.0-4.0-8.115","true","116","2.4499999999999993","","",""
"3328.599999964237","6","confid","","","html-slider-response","1026","1487629","0.0-4.0-10.115-0.115","","","","Rate your confidence","1",""
"501","e","choice","right","i","experimental","1033","1489922","0.0-4.0-8.116","false","117","2.4499999999999993","","",""
"2607.400000035763","3","confid","","","html-slider-response","1035","1493036","0.0-4.0-10.116-0.116","","","","Rate your confidence","1",""
"367.19999998807907","i","choice","left","e","experimental","1042","1495197","0.0-4.0-8.117","false","118","2.5499999999999994","","",""
"2204.100000023842","2","confid","","","html-slider-response","1044","1497907","0.0-4.0-10.117-0.117","","","","Rate your confidence","1",""
"71.39999997615814","e","choice","left","e","experimental","1051","1499768","0.0-4.0-8.118","true","119","2.6499999999999995","","",""
"2967.600000023842","3","confid","","","html-slider-response","1053","1503239","0.0-4.0-10.118-0.118","","","","Rate your confidence","1",""
"83.89999997615814","i","choice","right","i","experimental","1060","1505120","0.0-4.0-8.119","true","120","2.6499999999999995","","",""
"2951.900000035763","4","confid","","","html-slider-response","1062","1508578","0.0-4.0-10.119-0.119","","","","Rate your confidence","1",""
"355.10000002384186","e","choice","left","e","experimental","1069","1510725","0.0-4.0-8.120","true","121","2.5499999999999994","","",""
"2873.899999976158","3","confid","","","html-slider-response","1071","1514105","0.0-4.0-10.120-0.120","","","","Rate your confidence","1",""
"503.39999997615814","e","choice","right","i","experimental","1078","1516401","0.0-4.0-8.121","false","122","2.5499999999999994","","",""
"3178.7999999523163","3","confid","","","html-slider-response","1080","1520086","0.0-4.0-10.121-0.121","","","","Rate your confidence","1",""
"242","e","choice","right","i","experimental","1087","1522121","0.0-4.0-8.122","false","123","2.6499999999999995","","",""
"2846.400000035763","2","confid","","","html-slider-response","1089","1525474","0.0-4.0-10.122-0.122","","","","Rate your confidence","1",""
"526.5","i","choice","left","e","experimental","1096","1527791","0.0-4.0-8.123","false","124","2.7499999999999996","","",""
"2350.400000035763","4","confid","","","html-slider-response","1098","1530649","0.0-4.0-10.123-0.123","","","","Rate your confidence","1",""
"435.2999999523163","e","choice","left","e","experimental","1105","1532865","0.0-4.0-8.124","true","125","2.8499999999999996","","",""
"4221.099999964237","5","confid","","","html-slider-response","1107","1537592","0.0-4.0-10.124-0.124","","","","Rate your confidence","1",""
"7.5","i","choice","right","i","experimental","1114","1539395","0.0-4.0-8.125","true","126","2.8499999999999996","","",""
"3802.699999988079","5","confid","","","html-slider-response","1116","1543703","0.0-4.0-10.125-0.125","","","","Rate your confidence","1",""
"242.19999998807907","e","choice","right","i","experimental","1123","1545735","0.0-4.0-8.126","false","127","2.7499999999999996","","",""
"2425.2000000476837","3","confid","","","html-slider-response","1125","1548665","0.0-4.0-10.126-0.126","","","","Rate your confidence","1",""
"37.89999997615814","e","choice","left","e","experimental","1132","1550484","0.0-4.0-8.127","true","128","2.8499999999999996","","",""
"2442.2999999523163","4","confid","","","html-slider-response","1134","1553431","0.0-4.0-10.127-0.127","","","","Rate your confidence","1",""
"408.7000000476837","i","choice","right","i","experimental","1141","1555630","0.0-4.0-8.128","true","129","2.8499999999999996","","",""
"4648.100000023842","2","confid","","","html-slider-response","1143","1560784","0.0-4.0-10.128-0.128","","","","Rate your confidence","1",""
"237","e","choice","left","e","experimental","1150","1562811","0.0-4.0-8.129","true","130","2.7499999999999996","","",""
"2406","2","confid","","","html-slider-response","1152","1565724","0.0-4.0-10.129-0.129","","","","Rate your confidence","1",""
"275.10000002384186","i","choice","right","i","experimental","1159","1567799","0.0-4.0-8.130","true","131","2.7499999999999996","","",""
"2744.899999976158","4","confid","","","html-slider-response","1161","1571062","0.0-4.0-10.130-0.130","","","","Rate your confidence","1",""
"343.30000001192093","e","choice","left","e","experimental","1168","1573194","0.0-4.0-8.131","true","132","2.6499999999999995","","",""
"3625.800000011921","3","confid","","","html-slider-response","1170","1577326","0.0-4.0-10.131-0.131","","","","Rate your confidence","1",""
"47.59999996423721","i","choice","right","i","experimental","1177","1579161","0.0-4.0-8.132","true","133","2.6499999999999995","","",""
"2734.5","4","confid","","","html-slider-response","1179","1582402","0.0-4.0-10.132-0.132","","","","Rate your confidence","1",""
"15.800000011920929","e","choice","left","e","experimental","1186","1584212","0.0-4.0-8.133","true","134","2.5499999999999994","","",""
"3768.800000011921","4","confid","","","html-slider-response","1188","1588487","0.0-4.0-10.133-0.133","","","","Rate your confidence","1",""
"35.89999997615814","i","choice","right","i","experimental","1195","1590315","0.0-4.0-8.134","true","135","2.5499999999999994","","",""
"2396.800000011921","3","confid","","","html-slider-response","1197","1593217","0.0-4.0-10.134-0.134","","","","Rate your confidence","1",""
"280.60000002384186","e","choice","left","e","experimental","1204","1595279","0.0-4.0-8.135","true","136","2.4499999999999993","","",""
"2849.5","2","confid","","","html-slider-response","1206","1598634","0.0-4.0-10.135-0.135","","","","Rate your confidence","1",""
"543","i","choice","left","e","experimental","1213","1600971","0.0-4.0-8.136","false","137","2.4499999999999993","","",""
"2817.800000011921","5","confid","","","html-slider-response","1215","1604295","0.0-4.0-10.136-0.136","","","","Rate your confidence","1",""
"125.30000001192093","i","choice","right","i","experimental","1222","1606213","0.0-4.0-8.137","true","138","2.5499999999999994","","",""
"2230.399999976158","4","confid","","","html-slider-response","1224","1608951","0.0-4.0-10.137-0.137","","","","Rate your confidence","1",""
"132.4000000357628","e","choice","left","e","experimental","1231","1610869","0.0-4.0-8.138","true","139","2.5499999999999994","","",""
"4148.100000023842","2","confid","","","html-slider-response","1233","1615535","0.0-4.0-10.138-0.138","","","","Rate your confidence","1",""
"103.5","i","choice","right","i","experimental","1240","1617427","0.0-4.0-8.139","true","140","2.4499999999999993","","",""
"2899","1","confid","","","html-slider-response","1242","1620833","0.0-4.0-10.139-0.139","","","","Rate your confidence","1",""
"436.39999997615814","i","choice","left","e","experimental","1249","1623059","0.0-4.0-8.140","false","141","2.4499999999999993","","",""
"2711.199999988079","3","confid","","","html-slider-response","1251","1626276","0.0-4.0-10.140-0.140","","","","Rate your confidence","1",""
"651.6999999880791","i","choice","right","i","experimental","1258","1628719","0.0-4.0-8.141","true","142","2.5499999999999994","","",""
"2992.5","1","confid","","","html-slider-response","1260","1632217","0.0-4.0-10.141-0.141","","","","Rate your confidence","1",""
"70.10000002384186","i","choice","right","i","experimental","1267","1634077","0.0-4.0-8.142","true","143","2.5499999999999994","","",""
"3122.199999988079","3","confid","","","html-slider-response","1269","1637704","0.0-4.0-10.142-0.142","","","","Rate your confidence","1",""
"166.80000001192093","i","choice","left","e","experimental","1276","1639665","0.0-4.0-8.143","false","144","2.4499999999999993","","",""
"2404.099999964237","1","confid","","","html-slider-response","1278","1642575","0.0-4.0-10.143-0.143","","","","Rate your confidence","1",""
"397.30000001192093","e","choice","left","e","experimental","1285","1644758","0.0-4.0-8.144","true","145","2.5499999999999994","","",""
"3097.400000035763","4","confid","","","html-slider-response","1287","1648376","0.0-4.0-10.144-0.144","","","","Rate your confidence","1",""
"429.19999998807907","i","choice","right","i","experimental","1294","1650600","0.0-4.0-8.145","true","146","2.5499999999999994","","",""
"2146.2999999523163","4","confid","","","html-slider-response","1296","1653252","0.0-4.0-10.145-0.145","","","","Rate your confidence","1",""
"87.89999997615814","i","choice","right","i","experimental","1303","1655137","0.0-4.0-8.146","true","147","2.4499999999999993","","",""
"2495.2000000476837","2","confid","","","html-slider-response","1305","1658138","0.0-4.0-10.146-0.146","","","","Rate your confidence","1",""
"107.39999997615814","e","choice","left","e","experimental","1312","1660040","0.0-4.0-8.147","true","148","2.4499999999999993","","",""
"2721.800000011921","5","confid","","","html-slider-response","1314","1663270","0.0-4.0-10.147-0.147","","","","Rate your confidence","1",""
"43.40000003576279","i","choice","left","e","experimental","1321","1665098","0.0-4.0-8.148","false","149","2.349999999999999","","",""
"2116.100000023842","4","confid","","","html-slider-response","1323","1667718","0.0-4.0-10.148-0.148","","","","Rate your confidence","1",""
"465.19999998807907","i","choice","right","i","experimental","1330","1669977","0.0-4.0-8.149","true","150","2.4499999999999993","","",""
"2235","2","confid","","","html-slider-response","1332","1672719","0.0-4.0-10.149-0.149","","","","Rate your confidence","1",""
"248.9000000357628","e","choice","right","i","experimental","1339","1674770","0.0-4.0-8.150","false","151","2.4499999999999993","","",""
"2777","2","confid","","","html-slider-response","1341","1678053","0.0-4.0-10.150-0.150","","","","Rate your confidence","1",""
"324.80000001192093","e","choice","left","e","experimental","1348","1680170","0.0-4.0-8.151","true","152","2.5499999999999994","","",""
"3219.300000011921","3","confid","","","html-slider-response","1350","1683896","0.0-4.0-10.151-0.151","","","","Rate your confidence","1",""
"269.69999998807907","e","choice","right","i","experimental","1358","1953427","0.0-4.0-8.152","false","153","2.5499999999999994","","",""
"2775.399999976158","5","confid","","","html-slider-response","1360","1956708","0.0-4.0-10.152-0.152","","","","Rate your confidence","1",""
"497.89999997615814","e","choice","left","e","experimental","1367","1958994","0.0-4.0-8.153","true","154","2.6499999999999995","","",""
"2484.400000035763","2","confid","","","html-slider-response","1369","1961984","0.0-4.0-10.153-0.153","","","","Rate your confidence","1",""
"87.40000003576279","i","choice","left","e","experimental","1376","1963860","0.0-4.0-8.154","false","155","2.6499999999999995","","",""
"2942.300000011921","2","confid","","","html-slider-response","1378","1967306","0.0-4.0-10.154-0.154","","","","Rate your confidence","1",""
"405.10000002384186","i","choice","right","i","experimental","1385","1969508","0.0-4.0-8.155","true","156","2.7499999999999996","","",""
"2147.800000011921","4","confid","","","html-slider-response","1387","1972162","0.0-4.0-10.155-0.155","","","","Rate your confidence","1",""
"176.69999998807907","e","choice","left","e","experimental","1394","1974134","0.0-4.0-8.156","true","157","2.7499999999999996","","",""
"2595.399999976158","4","confid","","","html-slider-response","1396","1977235","0.0-4.0-10.156-0.156","","","","Rate your confidence","1",""
"27.5","i","choice","right","i","experimental","1403","1979048","0.0-4.0-8.157","true","158","2.6499999999999995","","",""
"2471.599999964237","2","confid","","","html-slider-response","1405","1982040","0.0-4.0-10.157-0.157","","","","Rate your confidence","1",""
"396.5","e","choice","left","e","experimental","1412","1984237","0.0-4.0-8.158","true","159","2.6499999999999995","","",""
"2888.600000023842","2","confid","","","html-slider-response","1414","1987633","0.0-4.0-10.158-0.158","","","","Rate your confidence","1",""
"465.4000000357628","i","choice","right","i","experimental","1421","1989882","0.0-4.0-8.159","true","160","2.5499999999999994","","",""
"2065.300000011921","4","confid","","","html-slider-response","1423","1992455","0.0-4.0-10.159-0.159","","","","Rate your confidence","1",""
"587.4000000357628","e","choice","left","e","experimental","1430","1994837","0.0-4.0-8.160","true","161","2.5499999999999994","","",""
"3285.2999999523163","4","confid","","","html-slider-response","1432","1998628","0.0-4.0-10.160-0.160","","","","Rate your confidence","1",""
"4","e","choice","right","i","experimental","1439","2000421","0.0-4.0-8.161","false","162","2.4499999999999993","","",""
"2210.899999976158","4","confid","","","html-slider-response","1441","2003139","0.0-4.0-10.161-0.161","","","","Rate your confidence","1",""
"236.80000001192093","e","choice","left","e","experimental","1448","2005165","0.0-4.0-8.162","true","163","2.5499999999999994","","",""
"3111.7000000476837","5","confid","","","html-slider-response","1450","2008784","0.0-4.0-10.162-0.162","","","","Rate your confidence","1",""
"403.7999999523163","e","choice","right","i","experimental","1457","2010975","0.0-4.0-8.163","false","164","2.5499999999999994","","",""
"2599.5","4","confid","","","html-slider-response","1459","2014081","0.0-4.0-10.163-0.163","","","","Rate your confidence","1",""
"1.800000011920929","i","choice","left","e","experimental","1466","2015876","0.0-4.0-8.164","false","165","2.6499999999999995","","",""
"2940.7000000476837","4","confid","","","html-slider-response","1468","2019322","0.0-4.0-10.164-0.164","","","","Rate your confidence","1",""
"210.30000001192093","i","choice","right","i","experimental","1475","2021327","0.0-4.0-8.165","true","166","2.7499999999999996","","",""
"2314.800000011921","4","confid","","","html-slider-response","1477","2024146","0.0-4.0-10.165-0.165","","","","Rate your confidence","1",""
"265.89999997615814","e","choice","right","i","experimental","1484","2026199","0.0-4.0-8.166","false","167","2.7499999999999996","","",""
"2585.899999976158","4","confid","","","html-slider-response","1486","2029290","0.0-4.0-10.166-0.166","","","","Rate your confidence","1",""
"3396.2000000476837","i","choice","left","e","experimental","1493","2034470","0.0-4.0-8.167","false","168","2.8499999999999996","","",""
"2595.599999964237","3","confid","","","html-slider-response","1495","2037572","0.0-4.0-10.167-0.167","","","","Rate your confidence","1",""
"239.60000002384186","i","choice","right","i","experimental","1502","2039609","0.0-4.0-8.168","true","169","2.9499999999999997","","",""
"5402.699999988079","3","confid","","","html-slider-response","1504","2045520","0.0-4.0-10.168-0.168","","","","Rate your confidence","1",""
"402.80000001192093","e","choice","left","e","experimental","1511","2047706","0.0-4.0-8.169","true","170","2.9499999999999997","","",""
"4704.699999988079","5","confid","","","html-slider-response","1513","2052915","0.0-4.0-10.169-0.169","","","","Rate your confidence","1",""
"433.9000000357628","e","choice","left","e","experimental","1520","2055147","0.0-4.0-8.170","true","171","2.8499999999999996","","",""
"1965.699999988079","5","confid","","","html-slider-response","1522","2057618","0.0-4.0-10.170-0.170","","","","Rate your confidence","1",""
"136.9000000357628","i","choice","right","i","experimental","1529","2059552","0.0-4.0-8.171","true","172","2.8499999999999996","","",""
"2630.300000011921","5","confid","","","html-slider-response","1531","2062686","0.0-4.0-10.171-0.171","","","","Rate your confidence","1",""
"469.39999997615814","e","choice","right","i","experimental","1538","2064953","0.0-4.0-8.172","false","173","2.7499999999999996","","",""
"5849.299999952316","6","confid","","","html-slider-response","1540","2071309","0.0-4.0-10.172-0.172","","","","Rate your confidence","1",""
"238","e","choice","left","e","experimental","1547","2073340","0.0-4.0-8.173","true","174","2.8499999999999996","","",""
"2201.300000011921","2","confid","","","html-slider-response","1549","2076058","0.0-4.0-10.173-0.173","","","","Rate your confidence","1",""
"71.69999998807907","e","choice","left","e","experimental","1556","2077925","0.0-4.0-8.174","true","175","2.8499999999999996","","",""
"3336.300000011921","2","confid","","","html-slider-response","1558","2081770","0.0-4.0-10.174-0.174","","","","Rate your confidence","1",""
"528.4000000357628","i","choice","right","i","experimental","1565","2084089","0.0-4.0-8.175","true","176","2.7499999999999996","","",""
"3343.599999964237","3","confid","","","html-slider-response","1567","2087940","0.0-4.0-10.175-0.175","","","","Rate your confidence","1",""
"123.80000001192093","e","choice","right","i","experimental","1574","2089864","0.0-4.0-8.176","false","177","2.7499999999999996","","",""
"3884.300000011921","4","confid","","","html-slider-response","1576","2094253","0.0-4.0-10.176-0.176","","","","Rate your confidence","1",""
"161.5","e","choice","left","e","experimental","1583","2096206","0.0-4.0-8.177","true","178","2.8499999999999996","","",""
"3815.899999976158","5","confid","","","html-slider-response","1585","2100528","0.0-4.0-10.177-0.177","","","","Rate your confidence","1",""
"534.0999999642372","e","choice","left","e","experimental","1592","2102853","0.0-4.0-8.178","true","179","2.8499999999999996","","",""
"2242.600000023842","4","confid","","","html-slider-response","1594","2105602","0.0-4.0-10.178-0.178","","","","Rate your confidence","1",""
"282.0999999642372","i","choice","right","i","experimental","1601","2107674","0.0-4.0-8.179","true","180","2.7499999999999996","","",""
"1439.5","4","confid","","","html-slider-response","1603","2109619","0.0-4.0-10.179-0.179","","","","Rate your confidence","1",""
"344.10000002384186","i","choice","right","i","experimental","1610","2111744","0.0-4.0-8.180","true","181","2.7499999999999996","","",""
"1698.8999999761581","2","confid","","","html-slider-response","1612","2113947","0.0-4.0-10.180-0.180","","","","Rate your confidence","1",""
"141.70000004768372","e","choice","left","e","experimental","1619","2115886","0.0-4.0-8.181","true","182","2.6499999999999995","","",""
"1935.800000011921","3","confid","","","html-slider-response","1621","2118328","0.0-4.0-10.181-0.181","","","","Rate your confidence","1",""
"85.30000001192093","i","choice","right","i","experimental","1628","2120206","0.0-4.0-8.182","true","183","2.6499999999999995","","",""
"1807.699999988079","4","confid","","","html-slider-response","1630","2122518","0.0-4.0-10.182-0.182","","","","Rate your confidence","1",""
"294.30000001192093","e","choice","left","e","experimental","1637","2124605","0.0-4.0-8.183","true","184","2.5499999999999994","","",""
"2572.600000023842","2","confid","","","html-slider-response","1639","2127683","0.0-4.0-10.183-0.183","","","","Rate your confidence","1",""
"93.5","i","choice","right","i","experimental","1646","2129571","0.0-4.0-8.184","true","185","2.5499999999999994","","",""
"1773.4000000357628","4","confid","","","html-slider-response","1648","2131852","0.0-4.0-10.184-0.184","","","","Rate your confidence","1",""
"290.30000001192093","i","choice","left","e","experimental","1655","2133937","0.0-4.0-8.185","false","186","2.4499999999999993","","",""
"2200.399999976158","3","confid","","","html-slider-response","1657","2136644","0.0-4.0-10.185-0.185","","","","Rate your confidence","1",""
"440.39999997615814","i","choice","right","i","experimental","1664","2138880","0.0-4.0-8.186","true","187","2.5499999999999994","","",""
"3794.900000035763","2","confid","","","html-slider-response","1666","2143181","0.0-4.0-10.186-0.186","","","","Rate your confidence","1",""
"623.8000000119209","e","choice","left","e","experimental","1673","2145600","0.0-4.0-8.187","true","188","2.5499999999999994","","",""
"2022.9000000357628","2","confid","","","html-slider-response","1675","2148129","0.0-4.0-10.187-0.187","","","","Rate your confidence","1",""
"404.69999998807907","i","choice","right","i","experimental","1682","2150325","0.0-4.0-8.188","true","189","2.4499999999999993","","",""
"1829.800000011921","3","confid","","","html-slider-response","1684","2152661","0.0-4.0-10.188-0.188","","","","Rate your confidence","1",""
"217.39999997615814","e","choice","left","e","experimental","1691","2154665","0.0-4.0-8.189","true","190","2.4499999999999993","","",""
"2306.600000023842","3","confid","","","html-slider-response","1693","2157479","0.0-4.0-10.189-0.189","","","","Rate your confidence","1",""
"689.3999999761581","i","choice","left","e","experimental","1700","2159962","0.0-4.0-8.190","false","191","2.349999999999999","","",""
"1782.300000011921","1","confid","","","html-slider-response","1702","2162246","0.0-4.0-10.190-0.190","","","","Rate your confidence","1",""
"257.0999999642372","e","choice","right","i","experimental","1709","2164289","0.0-4.0-8.191","false","192","2.4499999999999993","","",""
"2351.899999976158","2","confid","","","html-slider-response","1711","2167149","0.0-4.0-10.191-0.191","","","","Rate your confidence","1",""
"293.5999999642372","i","choice","right","i","experimental","1718","2169239","0.0-4.0-8.192","true","193","2.5499999999999994","","",""
"1792.8999999761581","3","confid","","","html-slider-response","1720","2171537","0.0-4.0-10.192-0.192","","","","Rate your confidence","1",""
"325.69999998807907","e","choice","left","e","experimental","1727","2173655","0.0-4.0-8.193","true","194","2.5499999999999994","","",""
"1860.1000000238419","2","confid","","","html-slider-response","1729","2176021","0.0-4.0-10.193-0.193","","","","Rate your confidence","1","66355"
