"rt","response","task","target_side","correct_response","trial_type","trial_index","time_elapsed","internal_node_id","correct","trial_number","n_dots","stimulus","slider_start","participant"
"502","e","choice","left","e","practice","10","149748","0.0-4.0-8.0","true","1","4.25","","",""
"483.1000000014901","i","choice","right","i","practice","18","152531","0.0-4.0-8.1","true","2","4.25","","",""
"598.8999999985099","i","choice","right","i","practice","26","155428","0.0-4.0-8.2","true","3","3.85","","",""
"294.30000000074506","e","choice","left","e","practice","34","158016","0.0-4.0-8.3","true","4","3.85","","",""
"434.69999999925494","i","choice","right","i","practice","42","160750","0.0-4.0-8.4","true","5","3.45","","",""
"217.40000000223517","e","choice","left","e","practice","50","163260","0.0-4.0-8.5","true","6","3.45","","",""
"358.8999999985099","e","choice","left","e","practice","58","165911","0.0-4.0-8.6","true","7","3.25","","",""
"118.79999999701977","i","choice","right","i","practice","66","168323","0.0-4.0-8.7","true","8","3.25","","",""
"73.30000000074506","i","choice","left","e","practice","74","170698","0.0-4.0-8.8","false","9","3.05","","",""
"89.39999999850988","i","choice","right","i","practice","82","173080","0.0-4.0-8.9","true","10","3.25","","",""
"117.80000000074506","e","choice","right","i","practice","90","175491","0.0-4.0-8.10","false","11","3.25","","",""
"81.40000000223517","e","choice","left","e","practice","98","177869","0.0-4.0-8.11","true","12","3.35","","",""
"270","i","choice","right","i","practice","106","180440","0.0-4.0-8.12","true","13","3.35","","",""
"254.69999999925494","e","choice","left","e","practice","114","182992","0.0-4.0-8.13","true","14","3.25","","",""
"166.60000000149012","e","choice","left","e","practice","122","185449","0.0-4.0-8.14","true","15","3.25","","",""
"162.10000000149012","i","choice","right","i","practice","130","187914","0.0-4.0-8.15","true","16","3.15","","",""
"387.9000000022352","e","choice","right","i","practice","138","190592","0.0-4.0-8.16","false","17","3.15","","",""
"610.5","e","choice","left","e","practice","146","193502","0.0-4.0-8.17","true","18","3.25","","",""
"151.60000000149012","e","choice","left","e","practice","154","195953","0.0-4.0-8.18","true","19","3.25","","",""
"210","e","choice","right","i","practice","162","198460","0.0-4.0-8.19","false","20","3.15","","",""
"377.69999999925494","i","choice","right","i","practice","170","201129","0.0-4.0-8.20","true","21","3.25","","",""
"202","e","choice","left","e","practice","178","203631","0.0-4.0-8.21","true","22","3.25","","",""
"212.39999999850988","i","choice","right","i","practice","186","206134","0.0-4.0-8.22","true","23","3.15","","",""
"176.39999999850988","e","choice","left","e","practice","194","208603","0.0-4.0-8.23","true","24","3.15","","",""
"339.8999999985099","e","choice","left","e","practice","202","211227","0.0-4.0-8.24","true","25","3.05","","",""
"288.9000000022352","i","choice","right","i","practice","210","213814","0.0-4.0-8.25","true","26","3.05","","",""
"607.3999999985099","e","choice","right","i","experimental","221","255581","0.0-4.0-8.26","false","27","2.9499999999999997","","",""
"3237.89999999851","2","confid","","","html-slider-response","223","259323","0.0-4.0-10.26-0.26","","","","Rate your confidence","1",""
"551","i","choice","left","e","experimental","230","261662","0.0-4.0-8.27","false","28","3.05","","",""
"2421.60000000149","3","confid","","","html-slider-response","232","264591","0.0-4.0-10.27-0.27","","","","Rate your confidence","1",""
"2485","e","choice","right","i","experimental","239","268870","0.0-4.0-8.28","false","29","3.15","","",""
"2179.89999999851","2","confid","","","html-slider-response","241","271557","0.0-4.0-10.28-0.28","","","","Rate your confidence","1",""
"273.30000000074506","e","choice","left","e","experimental","248","273622","0.0-4.0-8.29","true","30","3.25","","",""
"2146.5","6","confid","","","html-slider-response","250","276275","0.0-4.0-10.29-0.29","","","","Rate your confidence","1",""
"727.3000000007451","i","choice","right","i","experimental","257","278792","0.0-4.0-8.30","true","31","3.25","","",""
"1694.3999999985099","4","confid","","","html-slider-response","259","280990","0.0-4.0-10.30-0.30","","","","Rate your confidence","1",""
"1282.5999999977648","e","choice","left","e","experimental","266","284070","0.0-4.0-8.31","true","32","3.15","","",""
"1563.9000000022352","5","confid","","","html-slider-response","268","286140","0.0-4.0-10.31-0.31","","","","Rate your confidence","1",""
"319.6000000014901","e","choice","left","e","experimental","275","288255","0.0-4.0-8.32","true","33","3.15","","",""
"1595.300000000745","5","confid","","","html-slider-response","277","290357","0.0-4.0-10.32-0.32","","","","Rate your confidence","1",""
"343.19999999925494","e","choice","right","i","experimental","284","292490","0.0-4.0-8.33","false","34","3.05","","",""
"2912.300000000745","5","confid","","","html-slider-response","286","295907","0.0-4.0-10.33-0.33","","","","Rate your confidence","1",""
"309.5","e","choice","left","e","experimental","293","298006","0.0-4.0-8.34","true","35","3.15","","",""
"2078.5","4","confid","","","html-slider-response","295","300591","0.0-4.0-10.34-0.34","","","","Rate your confidence","1",""
"279.5","e","choice","right","i","experimental","302","302660","0.0-4.0-8.35","false","36","3.15","","",""
"1842.5999999977648","5","confid","","","html-slider-response","304","305007","0.0-4.0-10.35-0.35","","","","Rate your confidence","1",""
"238.09999999776483","e","choice","left","e","experimental","311","307048","0.0-4.0-8.36","true","37","3.25","","",""
"1555.300000000745","5","confid","","","html-slider-response","313","309109","0.0-4.0-10.36-0.36","","","","Rate your confidence","1",""
"1271.199999999255","i","choice","right","i","experimental","320","312171","0.0-4.0-8.37","true","38","3.25","","",""
"1547.300000000745","2","confid","","","html-slider-response","322","314224","0.0-4.0-10.37-0.37","","","","Rate your confidence","1",""
"209.69999999925494","e","choice","right","i","experimental","329","316231","0.0-4.0-8.38","false","39","3.15","","",""
"3204","4","confid","","","html-slider-response","331","319940","0.0-4.0-10.38-0.38","","","","Rate your confidence","1",""
"117.30000000074506","e","choice","left","e","experimental","338","321846","0.0-4.0-8.39","true","40","3.25","","",""
"2041.1000000014901","6","confid","","","html-slider-response","340","324392","0.0-4.0-10.39-0.39","","","","Rate your confidence","1",""
"355","e","choice","right","i","experimental","347","326545","0.0-4.0-8.40","false","41","3.25","","",""
"1940.0999999977648","5","confid","","","html-slider-response","349","328991","0.0-4.0-10.40-0.40","","","","Rate your confidence","1",""
"604.3000000007451","e","choice","left","e","experimental","356","331396","0.0-4.0-8.41","true","42","3.35","","",""
"1840","2","confid","","","html-slider-response","358","333741","0.0-4.0-10.41-0.41","","","","Rate your confidence","1",""
"358.1000000014901","i","choice","right","i","experimental","365","335891","0.0-4.0-8.42","true","43","3.35","","",""
"2145.5","4","confid","","","html-slider-response","367","338540","0.0-4.0-10.42-0.42","","","","Rate your confidence","1",""
"670.1999999992549","e","choice","left","e","experimental","374","341008","0.0-4.0-8.43","true","44","3.25","","",""
"2124.300000000745","3","confid","","","html-slider-response","376","343639","0.0-4.0-10.43-0.43","","","","Rate your confidence","1",""
"388.6000000014901","i","choice","right","i","experimental","383","345819","0.0-4.0-8.44","true","45","3.25","","",""
"2065.10000000149","4","confid","","","html-slider-response","385","348390","0.0-4.0-10.44-0.44","","","","Rate your confidence","1",""
"57.69999999925494","e","choice","left","e","experimental","392","350242","0.0-4.0-8.45","true","46","3.15","","",""
"1459.199999999255","6","confid","","","html-slider-response","394","352206","0.0-4.0-10.45-0.45","","","","Rate your confidence","1",""
"169.10000000149012","e","choice","left","e","experimental","401","354175","0.0-4.0-8.46","true","47","3.15","","",""
"1590.5999999977648","5","confid","","","html-slider-response","403","356272","0.0-4.0-10.46-0.46","","","","Rate your confidence","1",""
"1362.2000000029802","e","choice","right","i","experimental","410","359427","0.0-4.0-8.47","false","48","3.05","","",""
"1942.5","4","confid","","","html-slider-response","412","361874","0.0-4.0-10.47-0.47","","","","Rate your confidence","1",""
"366.4000000022352","i","choice","right","i","experimental","419","364031","0.0-4.0-8.48","true","49","3.15","","",""
"1539","4","confid","","","html-slider-response","421","366075","0.0-4.0-10.48-0.48","","","","Rate your confidence","1",""
"194","e","choice","left","e","experimental","428","368061","0.0-4.0-8.49","true","50","3.15","","",""
"1359.699999999255","5","confid","","","html-slider-response","430","369925","0.0-4.0-10.49-0.49","","","","Rate your confidence","1",""
"728.3999999985099","i","choice","right","i","experimental","437","372452","0.0-4.0-8.50","true","51","3.05","","",""
"2017.6000000014901","3","confid","","","html-slider-response","439","374975","0.0-4.0-10.50-0.50","","","","Rate your confidence","1",""
"824.7999999970198","e","choice","left","e","experimental","446","377586","0.0-4.0-8.51","true","52","3.05","","",""
"2132.199999999255","4","confid","","","html-slider-response","448","380223","0.0-4.0-10.51-0.51","","","","Rate your confidence","1",""
"134.19999999925494","e","choice","right","i","experimental","455","382148","0.0-4.0-8.52","false","53","2.9499999999999997","","",""
"1787.1000000014901","5","confid","","","html-slider-response","457","384441","0.0-4.0-10.52-0.52","","","","Rate your confidence","1",""
"367","e","choice","left","e","experimental","464","386602","0.0-4.0-8.53","true","54","3.05","","",""
"1683.8999999985099","4","confid","","","html-slider-response","466","388790","0.0-4.0-10.53-0.53","","","","Rate your confidence","1",""
"334.4000000022352","e","choice","left","e","experimental","473","390920","0.0-4.0-8.54","true","55","3.05","","",""
"1750.800000000745","5","confid","","","html-slider-response","475","393176","0.0-4.0-10.54-0.54","","","","Rate your confidence","1",""
"1133","i","choice","right","i","experimental","482","396103","0.0-4.0-8.55","true","56","2.9499999999999997","","",""
"2267","3","confid","","","html-slider-response","484","398874","0.0-4.0-10.55-0.55","","","","Rate your confidence","1",""
"277.79999999701977","e","choice","left","e","experimental","491","400945","0.0-4.0-8.56","true","57","2.9499999999999997","","",""
"1558.2999999970198","6","confid","","","html-slider-response","493","403007","0.0-4.0-10.56-0.56","","","","Rate your confidence","1",""
"994.1999999992549","e","choice","right","i","experimental","500","405800","0.0-4.0-8.57","false","58","2.8499999999999996","","",""
"2067.099999997765","2","confid","","","html-slider-response","502","408374","0.0-4.0-10.57-0.57","","","","Rate your confidence","1",""
"392.29999999701977","e","choice","left","e","experimental","509","410557","0.0-4.0-8.58","true","59","2.9499999999999997","","",""
"1794.699999999255","4","confid","","","html-slider-response","511","412859","0.0-4.0-10.58-0.58","","","","Rate your confidence","1",""
"783.3000000007451","e","choice","right","i","experimental","518","415429","0.0-4.0-8.59","false","60","2.9499999999999997","","",""
"2491.199999999255","4","confid","","","html-slider-response","520","418425","0.0-4.0-10.59-0.59","","","","Rate your confidence","1",""
"2074.300000000745","e","choice","left","e","experimental","527","422301","0.0-4.0-8.60","true","61","3.05","","",""
"1967.800000000745","2","confid","","","html-slider-response","529","424774","0.0-4.0-10.60-0.60","","","","Rate your confidence","1",""
"431.3999999985099","e","choice","right","i","experimental","536","427002","0.0-4.0-8.61","false","62","3.05","","",""
"2302.199999999255","4","confid","","","html-slider-response","538","429808","0.0-4.0-10.61-0.61","","","","Rate your confidence","1",""
"1473.1000000014901","i","choice","left","e","experimental","545","433072","0.0-4.0-8.62","false","63","3.15","","",""
"2303.900000002235","2","confid","","","html-slider-response","547","435890","0.0-4.0-10.62-0.62","","","","Rate your confidence","1",""
"438.69999999925494","i","choice","right","i","experimental","554","438122","0.0-4.0-8.63","true","64","3.25","","",""
"2014.2999999970198","4","confid","","","html-slider-response","556","440641","0.0-4.0-10.63-0.63","","","","Rate your confidence","1",""
"279.30000000074506","i","choice","right","i","experimental","563","442717","0.0-4.0-8.64","true","65","3.25","","",""
"1969.6000000014901","5","confid","","","html-slider-response","565","445190","0.0-4.0-10.64-0.64","","","","Rate your confidence","1",""
"1131.1000000014901","e","choice","left","e","experimental","572","448114","0.0-4.0-8.65","true","66","3.15","","",""
"2604.7000000029802","4","confid","","","html-slider-response","574","451224","0.0-4.0-10.65-0.65","","","","Rate your confidence","1",""
"265","e","choice","left","e","experimental","581","453281","0.0-4.0-8.66","true","67","3.15","","",""
"1804.9000000022352","6","confid","","","html-slider-response","583","455591","0.0-4.0-10.66-0.66","","","","Rate your confidence","1",""
"399.30000000074506","e","choice","right","i","experimental","590","457791","0.0-4.0-8.67","false","68","3.05","","",""
"2578.199999999255","4","confid","","","html-slider-response","592","460873","0.0-4.0-10.67-0.67","","","","Rate your confidence","1",""
"39.400000002235174","e","choice","right","i","experimental","600","511005","0.0-4.0-8.68","false","69","3.15","","",""
"2864.60000000149","2","confid","","","html-slider-response","602","514375","0.0-4.0-10.68-0.68","","","","Rate your confidence","1",""
"378.70000000298023","e","choice","left","e","experimental","609","516549","0.0-4.0-8.69","true","70","3.25","","",""
"5305","3","confid","","","html-slider-response","611","522359","0.0-4.0-10.69-0.69","","","","Rate your confidence","1",""
"282","e","choice","left","e","experimental","618","524448","0.0-4.0-8.70","true","71","3.25","","",""
"1985.800000000745","5","confid","","","html-slider-response","620","526940","0.0-4.0-10.70-0.70","","","","Rate your confidence","1",""
"138.90000000223517","i","choice","right","i","experimental","627","528873","0.0-4.0-8.71","true","72","3.15","","",""
"2428.699999999255","5","confid","","","html-slider-response","629","531807","0.0-4.0-10.71-0.71","","","","Rate your confidence","1",""
"1827.6000000014901","e","choice","left","e","experimental","636","535431","0.0-4.0-8.72","true","73","3.15","","",""
"1822.5","2","confid","","","html-slider-response","638","537759","0.0-4.0-10.72-0.72","","","","Rate your confidence","1",""
"333.3999999985099","i","choice","right","i","experimental","645","539888","0.0-4.0-8.73","true","74","3.05","","",""
"1365.699999999255","4","confid","","","html-slider-response","647","541759","0.0-4.0-10.73-0.73","","","","Rate your confidence","1",""
"465.5999999977648","e","choice","left","e","experimental","654","544028","0.0-4.0-8.74","true","75","3.05","","",""
"3106.400000002235","3","confid","","","html-slider-response","656","547640","0.0-4.0-10.74-0.74","","","","Rate your confidence","1",""
"1883.9000000022352","e","choice","right","i","experimental","663","551317","0.0-4.0-8.75","false","76","2.9499999999999997","","",""
"3201.199999999255","2","confid","","","html-slider-response","665","555024","0.0-4.0-10.75-0.75","","","","Rate your confidence","1",""
"1926.199999999255","i","choice","left","e","experimental","672","558743","0.0-4.0-8.76","false","77","3.05","","",""
"3077","1","confid","","","html-slider-response","674","562324","0.0-4.0-10.76-0.76","","","","Rate your confidence","1",""
"723.5999999977648","e","choice","right","i","experimental","681","564845","0.0-4.0-8.77","false","78","3.15","","",""
"2156.699999999255","4","confid","","","html-slider-response","683","567506","0.0-4.0-10.77-0.77","","","","Rate your confidence","1",""
"981","i","choice","right","i","experimental","690","570278","0.0-4.0-8.78","true","79","3.25","","",""
"5139.199999999255","3","confid","","","html-slider-response","692","575923","0.0-4.0-10.78-0.78","","","","Rate your confidence","1",""
"351","e","choice","left","e","experimental","699","578064","0.0-4.0-8.79","true","80","3.25","","",""
"2303.300000000745","5","confid","","","html-slider-response","701","580874","0.0-4.0-10.79-0.79","","","","Rate your confidence","1",""
"338.0999999977648","e","choice","left","e","experimental","708","583007","0.0-4.0-8.80","true","81","3.15","","",""
"2543.099999997765","5","confid","","","html-slider-response","710","586057","0.0-4.0-10.80-0.80","","","","Rate your confidence","1",""
"297.0999999977648","i","choice","right","i","experimental","717","588154","0.0-4.0-8.81","true","82","3.15","","",""
"1679.699999999255","5","confid","","","html-slider-response","719","590341","0.0-4.0-10.81-0.81","","","","Rate your confidence","1",""
"410.8999999985099","e","choice","right","i","experimental","726","592545","0.0-4.0-8.82","false","83","3.05","","",""
"2324.39999999851","4","confid","","","html-slider-response","728","595375","0.0-4.0-10.82-0.82","","","","Rate your confidence","1",""
"366.5","e","choice","left","e","experimental","735","597536","0.0-4.0-8.83","true","84","3.15","","",""
"1899.4000000022352","4","confid","","","html-slider-response","737","599940","0.0-4.0-10.83-0.83","","","","Rate your confidence","1",""
"179.10000000149012","i","choice","right","i","experimental","744","601910","0.0-4.0-8.84","true","85","3.15","","",""
"1276.800000000745","5","confid","","","html-slider-response","746","603692","0.0-4.0-10.84-0.84","","","","Rate your confidence","1",""
"342.1000000014901","e","choice","left","e","experimental","753","605834","0.0-4.0-8.85","true","86","3.05","","",""
"1535.8999999985099","5","confid","","","html-slider-response","755","607874","0.0-4.0-10.85-0.85","","","","Rate your confidence","1",""
"837.5","i","choice","right","i","experimental","762","610502","0.0-4.0-8.86","true","87","3.05","","",""
"4833.199999999255","3","confid","","","html-slider-response","764","615840","0.0-4.0-10.86-0.86","","","","Rate your confidence","1",""
"264.3999999985099","e","choice","left","e","experimental","771","617901","0.0-4.0-8.87","true","88","2.9499999999999997","","",""
"2503.5","5","confid","","","html-slider-response","773","620909","0.0-4.0-10.87-0.87","","","","Rate your confidence","1",""
"349.5999999977648","e","choice","left","e","experimental","780","623057","0.0-4.0-8.88","true","89","2.9499999999999997","","",""
"3027.10000000149","4","confid","","","html-slider-response","782","626591","0.0-4.0-10.88-0.88","","","","Rate your confidence","1",""
"245.60000000149012","i","choice","right","i","experimental","789","628633","0.0-4.0-8.89","true","90","2.8499999999999996","","",""
"2319.699999999255","5","confid","","","html-slider-response","791","631458","0.0-4.0-10.89-0.89","","","","Rate your confidence","1",""
"1105.1000000014901","i","choice","right","i","experimental","798","634353","0.0-4.0-8.90","true","91","2.8499999999999996","","",""
"1716","3","confid","","","html-slider-response","800","636575","0.0-4.0-10.90-0.90","","","","Rate your confidence","1",""
"1497.1000000014901","e","choice","left","e","experimental","807","639870","0.0-4.0-8.91","true","92","2.7499999999999996","","",""
"5698.300000000745","2","confid","","","html-slider-response","809","646074","0.0-4.0-10.91-0.91","","","","Rate your confidence","1",""
"742.2999999970198","i","choice","right","i","experimental","816","648615","0.0-4.0-8.92","true","93","2.7499999999999996","","",""
"2652.800000000745","1","confid","","","html-slider-response","818","651774","0.0-4.0-10.92-0.92","","","","Rate your confidence","1",""
"1345","e","choice","left","e","experimental","825","654919","0.0-4.0-8.93","true","94","2.6499999999999995","","",""
"1551.5999999977648","2","confid","","","html-slider-response","827","656975","0.0-4.0-10.93-0.93","","","","Rate your confidence","1",""
"991.7999999970198","i","choice","right","i","experimental","834","659754","0.0-4.0-8.94","true","95","2.6499999999999995","","",""
"1882.199999999255","2","confid","","","html-slider-response","836","662141","0.0-4.0-10.94-0.94","","","","Rate your confidence","1",""
"711","e","choice","left","e","experimental","843","664649","0.0-4.0-8.95","true","96","2.5499999999999994","","",""
"1753.5","3","confid","","","html-slider-response","845","666907","0.0-4.0-10.95-0.95","","","","Rate your confidence","1",""
"885.5","e","choice","left","e","experimental","852","669585","0.0-4.0-8.96","true","97","2.5499999999999994","","",""
"1685.8999999985099","1","confid","","","html-slider-response","854","671776","0.0-4.0-10.96-0.96","","","","Rate your confidence","1",""
"498.6000000014901","i","choice","right","i","experimental","861","674077","0.0-4.0-8.97","true","98","2.4499999999999993","","",""
"1277.5","2","confid","","","html-slider-response","863","675858","0.0-4.0-10.97-0.97","","","","Rate your confidence","1",""
"1574.0999999977648","i","choice","right","i","experimental","870","679228","0.0-4.0-8.98","true","99","2.4499999999999993","","",""
"2158.699999999255","1","confid","","","html-slider-response","872","681891","0.0-4.0-10.98-0.98","","","","Rate your confidence","1",""
"1137.300000000745","i","choice","left","e","experimental","879","684823","0.0-4.0-8.99","false","100","2.349999999999999","","",""
"3113","2","confid","","","html-slider-response","881","688441","0.0-4.0-10.99-0.99","","","","Rate your confidence","1",""
"542.3999999985099","e","choice","left","e","experimental","888","690778","0.0-4.0-8.100","true","101","2.4499999999999993","","",""
"1992.300000000745","1","confid","","","html-slider-response","890","693275","0.0-4.0-10.100-0.100","","","","Rate your confidence","1",""
"1099.4000000022352","i","choice","right","i","experimental","897","696176","0.0-4.0-8.101","true","102","2.4499999999999993","","",""
"2191.39999999851","1","confid","","","html-slider-response","899","698874","0.0-4.0-10.101-0.101","","","","Rate your confidence","1",""
"363.5","i","choice","right","i","experimental","906","701036","0.0-4.0-8.102","true","103","2.349999999999999","","",""
"1367.1000000014901","3","confid","","","html-slider-response","908","702908","0.0-4.0-10.102-0.102","","","","Rate your confidence","1",""
"577.1999999992549","i","choice","left","e","experimental","915","705278","0.0-4.0-8.103","false","104","2.349999999999999","","",""
"1191.199999999255","3","confid","","","html-slider-response","917","706973","0.0-4.0-10.103-0.103","","","","Rate your confidence","1",""
"363.1000000014901","i","choice","right","i","experimental","924","709123","0.0-4.0-8.104","true","105","2.4499999999999993","","",""
"2163.099999997765","4","confid","","","html-slider-response","926","711791","0.0-4.0-10.104-0.104","","","","Rate your confidence","1",""
"949.3000000007451","i","choice","left","e","experimental","933","714533","0.0-4.0-8.105","false","106","2.4499999999999993","","",""
"1904","2","confid","","","html-slider-response","935","716942","0.0-4.0-10.105-0.105","","","","Rate your confidence","1",""
"685.6000000014901","i","choice","left","e","experimental","942","719427","0.0-4.0-8.106","false","107","2.5499999999999994","","",""
"1308","2","confid","","","html-slider-response","944","721241","0.0-4.0-10.106-0.106","","","","Rate your confidence","1",""
"649.8000000007451","e","choice","right","i","experimental","951","723687","0.0-4.0-8.107","false","108","2.6499999999999995","","",""
"5316","2","confid","","","html-slider-response","953","729508","0.0-4.0-10.107-0.107","","","","Rate your confidence","1",""
"208.30000000074506","i","choice","left","e","experimental","960","731515","0.0-4.0-8.108","false","109","2.7499999999999996","","",""
"1737.5999999977648","4","confid","","","html-slider-response","962","733758","0.0-4.0-10.108-0.108","","","","Rate your confidence","1",""
"115.60000000149012","e","choice","right","i","experimental","969","735664","0.0-4.0-8.109","false","110","2.8499999999999996","","",""
"1255.6000000014901","5","confid","","","html-slider-response","971","737425","0.0-4.0-10.109-0.109","","","","Rate your confidence","1",""
"448.69999999925494","i","choice","left","e","experimental","979","752211","0.0-4.0-8.110","false","111","2.9499999999999997","","",""
"1743.199999999255","3","confid","","","html-slider-response","981","754459","0.0-4.0-10.110-0.110","","","","Rate your confidence","1",""
"117.80000000074506","i","choice","right","i","experimental","988","756380","0.0-4.0-8.111","true","112","3.05","","",""
"1824","4","confid","","","html-slider-response","990","758709","0.0-4.0-10.111-0.111","","","","Rate your confidence","1",""
"628","e","choice","right","i","experimental","997","761135","0.0-4.0-8.112","false","113","3.05","","",""
"1651.3999999985099","1","confid","","","html-slider-response","999","763290","0.0-4.0-10.112-0.112","","","","Rate your confidence","1",""
"627.5","i","choice","left","e","experimental","1006","765716","0.0-4.0-8.113","false","114","3.15","","",""
"1736.1000000014901","2","confid","","","html-slider-response","1008","767958","0.0-4.0-10.113-0.113","","","","Rate your confidence","1",""
"383.3999999985099","i","choice","right","i","experimental","1015","770141","0.0-4.0-8.114","true","115","3.25","","",""
"2079.300000000745","3","confid","","","html-slider-response","1017","772725","0.0-4.0-10.114-0.114","","","","Rate your confidence","1",""
"394.8999999985099","e","choice","left","e","experimental","1024","774916","0.0-4.0-8.115","true","116","3.25","","",""
"2119.800000000745","5","confid","","","html-slider-response","1026","777541","0.0-4.0-10.115-0.115","","","","Rate your confidence","1",""
"339.80000000074506","e","choice","left","e","experimental","1033","779673","0.0-4.0-8.116","true","117","3.15","","",""
"2363.400000002235","5","confid","","","html-slider-response","1035","782542","0.0-4.0-10.116-0.116","","","","Rate your confidence","1",""
"312.3999999985099","i","choice","right","i","experimental","1042","784651","0.0-4.0-8.117","true","118","3.15","","",""
"1617.800000000745","2","confid","","","html-slider-response","1044","786774","0.0-4.0-10.117-0.117","","","","Rate your confidence","1",""
"406.9000000022352","i","choice","right","i","experimental","1051","788984","0.0-4.0-8.118","true","119","3.05","","",""
"2135.10000000149","2","confid","","","html-slider-response","1053","791624","0.0-4.0-10.118-0.118","","","","Rate your confidence","1",""
"463.3999999985099","e","choice","left","e","experimental","1060","793877","0.0-4.0-8.119","true","120","3.05","","",""
"1539.800000000745","4","confid","","","html-slider-response","1062","795925","0.0-4.0-10.119-0.119","","","","Rate your confidence","1",""
"792.7999999970198","e","choice","right","i","experimental","1069","798511","0.0-4.0-8.120","false","121","2.9499999999999997","","",""
"2009.5","2","confid","","","html-slider-response","1071","801024","0.0-4.0-10.120-0.120","","","","Rate your confidence","1",""
"386.19999999925494","e","choice","left","e","experimental","1078","803193","0.0-4.0-8.121","true","122","3.05","","",""
"3343","4","confid","","","html-slider-response","1080","807041","0.0-4.0-10.121-0.121","","","","Rate your confidence","1",""
"201.40000000223517","i","choice","right","i","experimental","1087","809040","0.0-4.0-8.122","true","123","3.05","","",""
"1328.300000000745","5","confid","","","html-slider-response","1089","810873","0.0-4.0-10.122-0.122","","","","Rate your confidence","1",""
"577.1999999992549","e","choice","left","e","experimental","1096","813245","0.0-4.0-8.123","true","124","2.9499999999999997","","",""
"2307.699999999255","3","confid","","","html-slider-response","1098","816058","0.0-4.0-10.123-0.123","","","","Rate your confidence","1",""
"432.79999999701977","e","choice","left","e","experimental","1105","818277","0.0-4.0-8.124","true","125","2.9499999999999997","","",""
"1274.800000000745","5","confid","","","html-slider-response","1107","820058","0.0-4.0-10.124-0.124","","","","Rate your confidence","1",""
"247.10000000149012","i","choice","right","i","experimental","1114","822104","0.0-4.0-8.125","true","126","2.8499999999999996","","",""
"1680.8999999985099","3","confid","","","html-slider-response","1116","824292","0.0-4.0-10.125-0.125","","","","Rate your confidence","1",""
"484.9000000022352","e","choice","left","e","experimental","1123","826573","0.0-4.0-8.126","true","127","2.8499999999999996","","",""
"3261.5","4","confid","","","html-slider-response","1125","830340","0.0-4.0-10.126-0.126","","","","Rate your confidence","1",""
"317","i","choice","right","i","experimental","1132","832456","0.0-4.0-8.127","true","128","2.7499999999999996","","",""
"1129.3999999985099","4","confid","","","html-slider-response","1134","834090","0.0-4.0-10.127-0.127","","","","Rate your confidence","1",""
"241","i","choice","left","e","experimental","1141","836131","0.0-4.0-8.128","false","129","2.7499999999999996","","",""
"1523.300000000745","5","confid","","","html-slider-response","1143","838159","0.0-4.0-10.128-0.128","","","","Rate your confidence","1",""
"51.900000002235174","i","choice","right","i","experimental","1150","840004","0.0-4.0-8.129","true","130","2.8499999999999996","","",""
"1215.0999999977648","4","confid","","","html-slider-response","1152","841725","0.0-4.0-10.129-0.129","","","","Rate your confidence","1",""
"879.5","i","choice","left","e","experimental","1159","844400","0.0-4.0-8.130","false","131","2.8499999999999996","","",""
"1255.7999999970198","4","confid","","","html-slider-response","1161","846160","0.0-4.0-10.130-0.130","","","","Rate your confidence","1",""
"1337.800000000745","e","choice","right","i","experimental","1168","849294","0.0-4.0-8.131","false","132","2.9499999999999997","","",""
"1726","1","confid","","","html-slider-response","1170","851526","0.0-4.0-10.131-0.131","","","","Rate your confidence","1",""
"950.3999999985099","e","choice","left","e","experimental","1177","854279","0.0-4.0-8.132","true","133","3.05","","",""
"2757.800000000745","3","confid","","","html-slider-response","1179","857542","0.0-4.0-10.132-0.132","","","","Rate your confidence","1",""
"336.80000000074506","i","choice","right","i","experimental","1186","859686","0.0-4.0-8.133","true","134","3.05","","",""
"4717.199999999255","3","confid","","","html-slider-response","1188","864908","0.0-4.0-10.133-0.133","","","","Rate your confidence","1",""
"221.40000000223517","i","choice","right","i","experimental","1195","866915","0.0-4.0-8.134","true","135","2.9499999999999997","","",""
"1304.300000000745","5","confid","","","html-slider-response","1197","868725","0.0-4.0-10.134-0.134","","","","Rate your confidence","1",""
"833.5999999977648","i","choice","left","e","experimental","1204","871356","0.0-4.0-8.135","false","136","2.9499999999999997","","",""
"1461.300000000745","2","confid","","","html-slider-response","1206","873323","0.0-4.0-10.135-0.135","","","","Rate your confidence","1",""
"69.19999999925494","i","choice","right","i","experimental","1213","875195","0.0-4.0-8.136","true","137","3.05","","",""
"1756.5","4","confid","","","html-slider-response","1215","877458","0.0-4.0-10.136-0.136","","","","Rate your confidence","1",""
"168","e","choice","left","e","experimental","1222","879432","0.0-4.0-8.137","true","138","3.05","","",""
"2869","5","confid","","","html-slider-response","1224","882807","0.0-4.0-10.137-0.137","","","","Rate your confidence","1",""
"526.8999999985099","i","choice","right","i","experimental","1231","885139","0.0-4.0-8.138","true","139","2.9499999999999997","","",""
"4113.5","2","confid","","","html-slider-response","1233","889758","0.0-4.0-10.138-0.138","","","","Rate your confidence","1",""
"215","e","choice","left","e","experimental","1240","891764","0.0-4.0-8.139","true","140","2.9499999999999997","","",""
"3672.39999999851","6","confid","","","html-slider-response","1242","895941","0.0-4.0-10.139-0.139","","","","Rate your confidence","1",""
"886.5","e","choice","left","e","experimental","1249","898626","0.0-4.0-8.140","true","141","2.8499999999999996","","",""
"3710.199999999255","1","confid","","","html-slider-response","1251","902841","0.0-4.0-10.140-0.140","","","","Rate your confidence","1",""
"443.3999999985099","i","choice","right","i","experimental","1258","905066","0.0-4.0-8.141","true","142","2.8499999999999996","","",""
"4068.800000000745","1","confid","","","html-slider-response","1260","909640","0.0-4.0-10.141-0.141","","","","Rate your confidence","1",""
"587.6999999992549","i","choice","right","i","experimental","1267","912023","0.0-4.0-8.142","true","143","2.7499999999999996","","",""
"2113.39999999851","3","confid","","","html-slider-response","1269","914641","0.0-4.0-10.142-0.142","","","","Rate your confidence","1",""
"308.80000000074506","e","choice","left","e","experimental","1276","916746","0.0-4.0-8.143","true","144","2.7499999999999996","","",""
"2941.800000000745","5","confid","","","html-slider-response","1278","920192","0.0-4.0-10.143-0.143","","","","Rate your confidence","1",""
"1158.5","e","choice","left","e","experimental","1285","923151","0.0-4.0-8.144","true","145","2.6499999999999995","","",""
"2169.2000000029802","2","confid","","","html-slider-response","1287","925824","0.0-4.0-10.144-0.144","","","","Rate your confidence","1",""
"718.6999999992549","i","choice","right","i","experimental","1294","928344","0.0-4.0-8.145","true","146","2.6499999999999995","","",""
"1524.2000000029802","4","confid","","","html-slider-response","1296","930374","0.0-4.0-10.145-0.145","","","","Rate your confidence","1",""
"158.10000000149012","e","choice","left","e","experimental","1303","932324","0.0-4.0-8.146","true","147","2.5499999999999994","","",""
"2855.7999999970198","5","confid","","","html-slider-response","1305","935692","0.0-4.0-10.146-0.146","","","","Rate your confidence","1",""
"997.5","i","choice","right","i","experimental","1312","938486","0.0-4.0-8.147","true","148","2.5499999999999994","","",""
"3183.7000000029802","2","confid","","","html-slider-response","1314","942174","0.0-4.0-10.147-0.147","","","","Rate your confidence","1",""
"76.60000000149012","e","choice","left","e","experimental","1321","944056","0.0-4.0-8.148","true","149","2.4499999999999993","","",""
"1714.199999999255","4","confid","","","html-slider-response","1323","946276","0.0-4.0-10.148-0.148","","","","Rate your confidence","1",""
"532.8999999985099","i","choice","right","i","experimental","1330","948599","0.0-4.0-8.149","true","150","2.4499999999999993","","",""
"1770.300000000745","1","confid","","","html-slider-response","1332","950874","0.0-4.0-10.149-0.149","","","","Rate your confidence","1",""
"609.3999999985099","i","choice","right","i","experimental","1339","953277","0.0-4.0-8.150","true","151","2.349999999999999","","",""
"6124.800000000745","2","confid","","","html-slider-response","1341","959907","0.0-4.0-10.150-0.150","","","","Rate your confidence","1",""
"387.29999999701977","e","choice","left","e","experimental","1348","962094","0.0-4.0-8.151","true","152","2.349999999999999","","",""
"2458.199999999255","4","confid","","","html-slider-response","1350","965057","0.0-4.0-10.151-0.151","","","","Rate your confidence","1",""
"297.70000000298023","e","choice","left","e","experimental","1358","1607868","0.0-4.0-8.152","true","153","2.249999999999999","","",""
"3201","3","confid","","","html-slider-response","1360","1611574","0.0-4.0-10.152-0.152","","","","Rate your confidence","1",""
"661.8000000007451","e","choice","right","i","experimental","1367","1614031","0.0-4.0-8.153","false","154","2.249999999999999","","",""
"1505.1000000014901","3","confid","","","html-slider-response","1369","1616041","0.0-4.0-10.153-0.153","","","","Rate your confidence","1",""
"91.69999999925494","i","choice","right","i","experimental","1376","1617940","0.0-4.0-8.154","true","155","2.349999999999999","","",""
"2196.39999999851","2","confid","","","html-slider-response","1378","1620641","0.0-4.0-10.154-0.154","","","","Rate your confidence","1",""
"178.70000000298023","e","choice","left","e","experimental","1385","1622613","0.0-4.0-8.155","true","156","2.349999999999999","","",""
"1803.0999999977648","4","confid","","","html-slider-response","1387","1624923","0.0-4.0-10.155-0.155","","","","Rate your confidence","1",""
"36.600000001490116","e","choice","right","i","experimental","1394","1626751","0.0-4.0-8.156","false","157","2.249999999999999","","",""
"1400.1000000014901","5","confid","","","html-slider-response","1396","1628656","0.0-4.0-10.156-0.156","","","","Rate your confidence","1",""
"281.1000000014901","e","choice","left","e","experimental","1403","1630735","0.0-4.0-8.157","true","158","2.349999999999999","","",""
"2116.89999999851","4","confid","","","html-slider-response","1405","1633355","0.0-4.0-10.157-0.157","","","","Rate your confidence","1",""
"332.8999999985099","i","choice","right","i","experimental","1412","1635483","0.0-4.0-8.158","true","159","2.349999999999999","","",""
"1734.4000000022352","3","confid","","","html-slider-response","1414","1637722","0.0-4.0-10.158-0.158","","","","Rate your confidence","1",""
"115","e","choice","left","e","experimental","1421","1639638","0.0-4.0-8.159","true","160","2.249999999999999","","",""
"1628.1000000014901","4","confid","","","html-slider-response","1423","1641772","0.0-4.0-10.159-0.159","","","","Rate your confidence","1",""
"128.5","e","choice","right","i","experimental","1430","1643695","0.0-4.0-8.160","false","161","2.249999999999999","","",""
"2689.60000000149","5","confid","","","html-slider-response","1432","1646889","0.0-4.0-10.160-0.160","","","","Rate your confidence","1",""
"152.19999999925494","i","choice","left","e","experimental","1439","1648840","0.0-4.0-8.161","false","162","2.349999999999999","","",""
"1909.699999999255","4","confid","","","html-slider-response","1441","1651255","0.0-4.0-10.161-0.161","","","","Rate your confidence","1",""
"797.7999999970198","e","choice","right","i","experimental","1448","1653853","0.0-4.0-8.162","false","163","2.4499999999999993","","",""
"1946.5","2","confid","","","html-slider-response","1450","1656305","0.0-4.0-10.162-0.162","","","","Rate your confidence","1",""
"233.5","e","choice","left","e","experimental","1457","1658340","0.0-4.0-8.163","true","164","2.5499999999999994","","",""
"2260.199999999255","4","confid","","","html-slider-response","1459","1661106","0.0-4.0-10.163-0.163","","","","Rate your confidence","1",""
"157.5","e","choice","left","e","experimental","1466","1663058","0.0-4.0-8.164","true","165","2.5499999999999994","","",""
"1557.199999999255","4","confid","","","html-slider-response","1468","1665121","0.0-4.0-10.164-0.164","","","","Rate your confidence","1",""
"0.3999999985098839","i","choice","right","i","experimental","1475","1666915","0.0-4.0-8.165","true","166","2.4499999999999993","","",""
"1998.1000000014901","3","confid","","","html-slider-response","1477","1669422","0.0-4.0-10.165-0.165","","","","Rate your confidence","1",""
"305.30000000074506","i","choice","right","i","experimental","1484","1671529","0.0-4.0-8.166","true","167","2.4499999999999993","","",""
"2502.7000000029802","4","confid","","","html-slider-response","1486","1674538","0.0-4.0-10.166-0.166","","","","Rate your confidence","1",""
"289","e","choice","left","e","experimental","1493","1676629","0.0-4.0-8.167","true","168","2.349999999999999","","",""
"2153.599999997765","4","confid","","","html-slider-response","1495","1679288","0.0-4.0-10.167-0.167","","","","Rate your confidence","1",""
"10.199999999254942","e","choice","left","e","experimental","1502","1681106","0.0-4.0-8.168","true","169","2.349999999999999","","",""
"1828.1000000014901","6","confid","","","html-slider-response","1504","1683439","0.0-4.0-10.168-0.168","","","","Rate your confidence","1",""
"859.5999999977648","i","choice","right","i","experimental","1511","1686095","0.0-4.0-8.169","true","170","2.249999999999999","","",""
"1936.8999999985099","2","confid","","","html-slider-response","1513","1688538","0.0-4.0-10.169-0.169","","","","Rate your confidence","1",""
"214.89999999850988","e","choice","left","e","experimental","1520","1690549","0.0-4.0-8.170","true","171","2.249999999999999","","",""
"1261.300000000745","4","confid","","","html-slider-response","1522","1692322","0.0-4.0-10.170-0.170","","","","Rate your confidence","1",""
"58.20000000298023","e","choice","right","i","experimental","1529","1694175","0.0-4.0-8.171","false","172","2.149999999999999","","",""
"1491.1000000014901","5","confid","","","html-slider-response","1531","1696172","0.0-4.0-10.171-0.171","","","","Rate your confidence","1",""
"642.5","e","choice","left","e","experimental","1538","1698623","0.0-4.0-8.172","true","173","2.249999999999999","","",""
"1360.5999999977648","5","confid","","","html-slider-response","1540","1700489","0.0-4.0-10.172-0.172","","","","Rate your confidence","1",""
"728.7999999970198","i","choice","right","i","experimental","1547","1703015","0.0-4.0-8.173","true","174","2.249999999999999","","",""
"1852.199999999255","3","confid","","","html-slider-response","1549","1705372","0.0-4.0-10.173-0.173","","","","Rate your confidence","1",""
"161.10000000149012","i","choice","right","i","experimental","1556","1707336","0.0-4.0-8.174","true","175","2.149999999999999","","",""
"1111.1000000014901","4","confid","","","html-slider-response","1558","1708954","0.0-4.0-10.174-0.174","","","","Rate your confidence","1",""
"79.10000000149012","e","choice","left","e","experimental","1565","1710830","0.0-4.0-8.175","true","176","2.149999999999999","","",""
"1028.8999999985099","4","confid","","","html-slider-response","1567","1712371","0.0-4.0-10.175-0.175","","","","Rate your confidence","1",""
"5.399999998509884","i","choice","right","i","experimental","1574","1714173","0.0-4.0-8.176","true","177","2.049999999999999","","",""
"1107.8999999985099","4","confid","","","html-slider-response","1576","1715789","0.0-4.0-10.176-0.176","","","","Rate your confidence","1",""
"148.19999999925494","e","choice","left","e","experimental","1583","1717742","0.0-4.0-8.177","true","178","2.049999999999999","","",""
"1939.800000000745","3","confid","","","html-slider-response","1585","1720187","0.0-4.0-10.177-0.177","","","","Rate your confidence","1",""
"605.9000000022352","i","choice","right","i","experimental","1592","1722588","0.0-4.0-8.178","true","179","1.9499999999999988","","",""
"2144.5","4","confid","","","html-slider-response","1594","1725239","0.0-4.0-10.178-0.178","","","","Rate your confidence","1",""
"161.70000000298023","e","choice","left","e","experimental","1601","1727194","0.0-4.0-8.179","true","180","1.9499999999999988","","",""
"3123.300000000745","5","confid","","","html-slider-response","1603","1730822","0.0-4.0-10.179-0.179","","","","Rate your confidence","1",""
"171.40000000223517","i","choice","right","i","experimental","1610","1732788","0.0-4.0-8.180","true","181","1.8499999999999988","","",""
"1777.699999999255","1","confid","","","html-slider-response","1612","1735071","0.0-4.0-10.180-0.180","","","","Rate your confidence","1",""
"520.5","e","choice","left","e","experimental","1619","1737383","0.0-4.0-8.181","true","182","1.8499999999999988","","",""
"1616.5","2","confid","","","html-slider-response","1621","1739505","0.0-4.0-10.181-0.181","","","","Rate your confidence","1",""
"418.6000000014901","e","choice","right","i","experimental","1628","1741727","0.0-4.0-8.182","false","183","1.7499999999999987","","",""
"1455.199999999255","4","confid","","","html-slider-response","1630","1743688","0.0-4.0-10.182-0.182","","","","Rate your confidence","1",""
"94.60000000149012","e","choice","left","e","experimental","1637","1745577","0.0-4.0-8.183","true","184","1.8499999999999988","","",""
"2840.199999999255","5","confid","","","html-slider-response","1639","1748922","0.0-4.0-10.183-0.183","","","","Rate your confidence","1",""
"256.19999999925494","e","choice","right","i","experimental","1646","1750969","0.0-4.0-8.184","false","185","1.8499999999999988","","",""
"1928.699999999255","1","confid","","","html-slider-response","1648","1753403","0.0-4.0-10.184-0.184","","","","Rate your confidence","1",""
"242","e","choice","left","e","experimental","1655","1755442","0.0-4.0-8.185","true","186","1.9499999999999988","","",""
"3006.10000000149","4","confid","","","html-slider-response","1657","1758954","0.0-4.0-10.185-0.185","","","","Rate your confidence","1",""
"40.5","e","choice","left","e","experimental","1664","1760788","0.0-4.0-8.186","true","187","1.9499999999999988","","",""
"1279.7000000029802","4","confid","","","html-slider-response","1666","1762572","0.0-4.0-10.186-0.186","","","","Rate your confidence","1",""
"522.1999999992549","i","choice","right","i","experimental","1673","1764896","0.0-4.0-8.187","true","188","1.8499999999999988","","",""
"1686.8999999985099","3","confid","","","html-slider-response","1675","1767088","0.0-4.0-10.187-0.187","","","","Rate your confidence","1",""
"418.5","e","choice","right","i","experimental","1682","1769305","0.0-4.0-8.188","false","189","1.8499999999999988","","",""
"1212.3999999985099","5","confid","","","html-slider-response","1684","1771022","0.0-4.0-10.188-0.188","","","","Rate your confidence","1",""
"121.69999999925494","e","choice","left","e","experimental","1691","1772934","0.0-4.0-8.189","true","190","1.9499999999999988","","",""
"1545.300000000745","4","confid","","","html-slider-response","1693","1774987","0.0-4.0-10.189-0.189","","","","Rate your confidence","1",""
"258.5","i","choice","right","i","experimental","1700","1777041","0.0-4.0-8.190","true","191","1.9499999999999988","","",""
"1707.3999999985099","5","confid","","","html-slider-response","1702","1779254","0.0-4.0-10.190-0.190","","","","Rate your confidence","1",""
"368.9000000022352","e","choice","left","e","experimental","1709","1781424","0.0-4.0-8.191","true","192","1.8499999999999988","","",""
"1843","3","confid","","","html-slider-response","1711","1783773","0.0-4.0-10.191-0.191","","","","Rate your confidence","1",""
"765.5999999977648","i","choice","left","e","experimental","1718","1786333","0.0-4.0-8.192","false","193","1.8499999999999988","","",""
"2617","2","confid","","","html-slider-response","1720","1789455","0.0-4.0-10.192-0.192","","","","Rate your confidence","1",""
"2147","i","choice","right","i","experimental","1727","1793396","0.0-4.0-8.193","true","194","1.9499999999999988","","",""
"1368.199999999255","1","confid","","","html-slider-response","1729","1795270","0.0-4.0-10.193-0.193","","","","Rate your confidence","1","41882"
