"rt","response","task","target_side","correct_response","trial_type","trial_index","time_elapsed","internal_node_id","correct","trial_number","n_dots","stimulus","slider_start","participant"
"2049.2000000476837","e","choice","left","e","practice","10","56567","0.0-4.0-8.0","true","1","4.25","","",""
"386.60000002384186","i","choice","right","i","practice","18","59297","0.0-4.0-8.1","true","2","4.25","","",""
"247.5","i","choice","right","i","practice","26","61893","0.0-4.0-8.2","true","3","3.85","","",""
"366.5","e","choice","left","e","practice","34","64593","0.0-4.0-8.3","true","4","3.85","","",""
"369.10000002384186","i","choice","right","i","practice","42","67308","0.0-4.0-8.4","true","5","3.45","","",""
"1066.2999999523163","i","choice","left","e","practice","50","70689","0.0-4.0-8.5","false","6","3.45","","",""
"281.39999997615814","i","choice","right","i","practice","58","73308","0.0-4.0-8.6","true","7","3.6500000000000004","","",""
"433.2000000476837","e","choice","left","e","practice","66","76053","0.0-4.0-8.7","true","8","3.6500000000000004","","",""
"708.0999999046326","i","choice","left","e","practice","74","79095","0.0-4.0-8.8","false","9","3.45","","",""
"94.69999992847443","i","choice","right","i","practice","82","81538","0.0-4.0-8.9","true","10","3.6500000000000004","","",""
"295.7000000476837","e","choice","left","e","practice","90","84148","0.0-4.0-8.10","true","11","3.6500000000000004","","",""
"294.2999999523163","i","choice","right","i","practice","98","86773","0.0-4.0-8.11","true","12","3.5500000000000003","","",""
"343.5","i","choice","right","i","practice","106","89441","0.0-4.0-8.12","true","13","3.5500000000000003","","",""
"264.60000002384186","e","choice","left","e","practice","114","92017","0.0-4.0-8.13","true","14","3.45","","",""
"130.70000004768372","e","choice","left","e","practice","122","94475","0.0-4.0-8.14","true","15","3.45","","",""
"232.39999997615814","i","choice","right","i","practice","130","97036","0.0-4.0-8.15","true","16","3.35","","",""
"148.60000002384186","e","choice","left","e","practice","138","99499","0.0-4.0-8.16","true","17","3.35","","",""
"321.89999997615814","i","choice","right","i","practice","146","102159","0.0-4.0-8.17","true","18","3.25","","",""
"44.39999997615814","e","choice","left","e","practice","154","104533","0.0-4.0-8.18","true","19","3.25","","",""
"309.2999999523163","i","choice","right","i","practice","162","107166","0.0-4.0-8.19","true","20","3.15","","",""
"362.90000009536743","i","choice","right","i","practice","170","109856","0.0-4.0-8.20","true","21","3.15","","",""
"274.1999999284744","i","choice","left","e","practice","178","112469","0.0-4.0-8.21","false","22","3.05","","",""
"122.89999997615814","i","choice","right","i","practice","186","114926","0.0-4.0-8.22","true","23","3.15","","",""
"637.5","e","choice","left","e","practice","194","117894","0.0-4.0-8.23","true","24","3.15","","",""
"306.40000009536743","e","choice","left","e","practice","202","120513","0.0-4.0-8.24","true","25","3.05","","",""
"292","i","choice","right","i","practice","210","123129","0.0-4.0-8.25","true","26","3.05","","",""
"2336.5","i","choice","left","e","experimental","221","145300","0.0-4.0-8.26","false","27","2.9499999999999997","","",""
"4148.099999904633","4","confid","","","html-slider-response","223","149965","0.0-4.0-10.26-0.26","","","","Rate your confidence","1",""
"372.1999999284744","i","choice","right","i","experimental","230","152193","0.0-4.0-8.27","true","28","3.05","","",""
"3265","4","confid","","","html-slider-response","232","155964","0.0-4.0-10.27-0.27","","","","Rate your confidence","1",""
"553.9000000953674","e","choice","right","i","experimental","239","158319","0.0-4.0-8.28","false","29","3.05","","",""
"5130.200000047684","4","confid","","","html-slider-response","241","163970","0.0-4.0-10.28-0.28","","","","Rate your confidence","1",""
"315.39999997615814","e","choice","left","e","experimental","248","166104","0.0-4.0-8.29","true","30","3.15","","",""
"2853.5","4","confid","","","html-slider-response","250","169472","0.0-4.0-10.29-0.29","","","","Rate your confidence","1",""
"479","e","choice","left","e","experimental","257","171760","0.0-4.0-8.30","true","31","3.15","","",""
"2370.600000023842","3","confid","","","html-slider-response","259","174639","0.0-4.0-10.30-0.30","","","","Rate your confidence","1",""
"258","i","choice","right","i","experimental","266","176706","0.0-4.0-8.31","true","32","3.05","","",""
"2841.7000000476837","4","confid","","","html-slider-response","268","180056","0.0-4.0-10.31-0.31","","","","Rate your confidence","1",""
"426.7000000476837","e","choice","right","i","experimental","275","182289","0.0-4.0-8.32","false","33","3.05","","",""
"5279.900000095367","4","confid","","","html-slider-response","277","188087","0.0-4.0-10.32-0.32","","","","Rate your confidence","1",""
"284.09999990463257","e","choice","left","e","experimental","284","190185","0.0-4.0-8.33","true","34","3.15","","",""
"3552.399999976158","4","confid","","","html-slider-response","286","194248","0.0-4.0-10.33-0.33","","","","Rate your confidence","1",""
"226.60000002384186","i","choice","right","i","experimental","293","196293","0.0-4.0-8.34","true","35","3.15","","",""
"3152.399999976158","4","confid","","","html-slider-response","295","199956","0.0-4.0-10.34-0.34","","","","Rate your confidence","1",""
"846.1000000238419","i","choice","left","e","experimental","302","202632","0.0-4.0-8.35","false","36","3.05","","",""
"2861.2999999523163","4","confid","","","html-slider-response","304","205999","0.0-4.0-10.35-0.35","","","","Rate your confidence","1",""
"1131.0999999046326","i","choice","right","i","experimental","311","208958","0.0-4.0-8.36","true","37","3.15","","",""
"3212.6999999284744","4","confid","","","html-slider-response","313","212678","0.0-4.0-10.36-0.36","","","","Rate your confidence","1",""
"340.89999997615814","e","choice","left","e","experimental","320","214843","0.0-4.0-8.37","true","38","3.15","","",""
"2728.7999999523163","4","confid","","","html-slider-response","322","218082","0.0-4.0-10.37-0.37","","","","Rate your confidence","1",""
"351.5","i","choice","right","i","experimental","329","220238","0.0-4.0-8.38","true","39","3.05","","",""
"2360.7000000476837","4","confid","","","html-slider-response","331","223103","0.0-4.0-10.38-0.38","","","","Rate your confidence","1",""
"423.89999997615814","e","choice","left","e","experimental","338","225360","0.0-4.0-8.39","true","40","3.05","","",""
"4081.100000023842","4","confid","","","html-slider-response","340","229952","0.0-4.0-10.39-0.39","","","","Rate your confidence","1",""
"1101.7000000476837","i","choice","right","i","experimental","347","232880","0.0-4.0-8.40","true","41","2.9499999999999997","","",""
"5930.5","4","confid","","","html-slider-response","349","239322","0.0-4.0-10.40-0.40","","","","Rate your confidence","1",""
"751.3999999761581","e","choice","left","e","experimental","356","241881","0.0-4.0-8.41","true","42","2.9499999999999997","","",""
"158274.30000007153","4","confid","","","html-slider-response","358","400659","0.0-4.0-10.41-0.41","","","","Rate your confidence","1",""
"503.5","i","choice","left","e","experimental","365","403006","0.0-4.0-8.42","false","43","2.8499999999999996","","",""
"4119.199999928474","4","confid","","","html-slider-response","367","407633","0.0-4.0-10.42-0.42","","","","Rate your confidence","1",""
"377.7999999523163","i","choice","right","i","experimental","374","409826","0.0-4.0-8.43","true","44","2.9499999999999997","","",""
"2210.5","4","confid","","","html-slider-response","376","412545","0.0-4.0-10.43-0.43","","","","Rate your confidence","1",""
"810.2000000476837","e","choice","left","e","experimental","383","415168","0.0-4.0-8.44","true","45","2.9499999999999997","","",""
"5971.300000071526","4","confid","","","html-slider-response","385","421646","0.0-4.0-10.44-0.44","","","","Rate your confidence","1",""
"441.3000000715256","i","choice","right","i","experimental","392","423902","0.0-4.0-8.45","true","46","2.8499999999999996","","",""
"2536.3000000715256","6","confid","","","html-slider-response","394","426948","0.0-4.0-10.45-0.45","","","","Rate your confidence","1",""
"735.6999999284744","i","choice","right","i","experimental","401","429498","0.0-4.0-8.46","true","47","2.8499999999999996","","",""
"2875.2000000476837","5","confid","","","html-slider-response","403","432885","0.0-4.0-10.46-0.46","","","","Rate your confidence","1",""
"294.59999990463257","e","choice","left","e","experimental","410","434994","0.0-4.0-8.47","true","48","2.7499999999999996","","",""
"2734.2999999523163","3","confid","","","html-slider-response","412","438235","0.0-4.0-10.47-0.47","","","","Rate your confidence","1",""
"436.1999999284744","e","choice","right","i","experimental","419","440497","0.0-4.0-8.48","false","49","2.7499999999999996","","",""
"3968.7999999523163","3","confid","","","html-slider-response","421","444972","0.0-4.0-10.48-0.48","","","","Rate your confidence","1",""
"356.8000000715256","e","choice","left","e","experimental","428","447169","0.0-4.0-8.49","true","50","2.8499999999999996","","",""
"2148.2000000476837","3","confid","","","html-slider-response","430","449822","0.0-4.0-10.49-0.49","","","","Rate your confidence","1",""
"631.8999999761581","i","choice","left","e","experimental","437","452273","0.0-4.0-8.50","false","51","2.8499999999999996","","",""
"3007.8000000715256","4","confid","","","html-slider-response","439","455785","0.0-4.0-10.50-0.50","","","","Rate your confidence","1",""
"3722.399999976158","e","choice","right","i","experimental","446","461313","0.0-4.0-8.51","false","52","2.9499999999999997","","",""
"5473.400000095367","3","confid","","","html-slider-response","448","467297","0.0-4.0-10.51-0.51","","","","Rate your confidence","1",""
"366.7999999523163","e","choice","left","e","experimental","455","469479","0.0-4.0-8.52","true","53","3.05","","",""
"2083.4000000953674","4","confid","","","html-slider-response","457","472074","0.0-4.0-10.52-0.52","","","","Rate your confidence","1",""
"607.9000000953674","i","choice","right","i","experimental","464","474486","0.0-4.0-8.53","true","54","3.05","","",""
"2914.2999999523163","4","confid","","","html-slider-response","466","477916","0.0-4.0-10.53-0.53","","","","Rate your confidence","1",""
"333.89999997615814","e","choice","left","e","experimental","473","480077","0.0-4.0-8.54","true","55","2.9499999999999997","","",""
"2703.2999999523163","4","confid","","","html-slider-response","475","483286","0.0-4.0-10.54-0.54","","","","Rate your confidence","1",""
"697.5","i","choice","right","i","experimental","482","485798","0.0-4.0-8.55","true","56","2.9499999999999997","","",""
"2745.2999999523163","4","confid","","","html-slider-response","484","489061","0.0-4.0-10.55-0.55","","","","Rate your confidence","1",""
"661.6000000238419","i","choice","right","i","experimental","491","491562","0.0-4.0-8.56","true","57","2.8499999999999996","","",""
"2494.7999999523163","4","confid","","","html-slider-response","493","494561","0.0-4.0-10.56-0.56","","","","Rate your confidence","1",""
"724.5","i","choice","left","e","experimental","500","497115","0.0-4.0-8.57","false","58","2.8499999999999996","","",""
"2465.5","3","confid","","","html-slider-response","502","500085","0.0-4.0-10.57-0.57","","","","Rate your confidence","1",""
"317","e","choice","left","e","experimental","509","502211","0.0-4.0-8.58","true","59","2.9499999999999997","","",""
"4504.600000023842","4","confid","","","html-slider-response","511","507227","0.0-4.0-10.58-0.58","","","","Rate your confidence","1",""
"1939.3999999761581","e","choice","right","i","experimental","518","510992","0.0-4.0-8.59","false","60","2.9499999999999997","","",""
"235911.89999997616","4","confid","","","html-slider-response","520","747415","0.0-4.0-10.59-0.59","","","","Rate your confidence","1",""
"726.8999999761581","i","choice","right","i","experimental","527","749956","0.0-4.0-8.60","true","61","3.05","","",""
"6024.399999976158","4","confid","","","html-slider-response","529","756488","0.0-4.0-10.60-0.60","","","","Rate your confidence","1",""
"1431.7999999523163","i","choice","left","e","experimental","536","759736","0.0-4.0-8.61","false","62","3.05","","",""
"2256","4","confid","","","html-slider-response","538","762502","0.0-4.0-10.61-0.61","","","","Rate your confidence","1",""
"723","i","choice","right","i","experimental","545","765069","0.0-4.0-8.62","true","63","3.15","","",""
"2464.399999976158","4","confid","","","html-slider-response","547","768040","0.0-4.0-10.62-0.62","","","","Rate your confidence","1",""
"181.60000002384186","e","choice","left","e","experimental","554","770034","0.0-4.0-8.63","true","64","3.15","","",""
"6159.600000023842","4","confid","","","html-slider-response","556","776701","0.0-4.0-10.63-0.63","","","","Rate your confidence","1",""
"930.6000000238419","i","choice","left","e","experimental","563","779456","0.0-4.0-8.64","false","65","3.05","","",""
"2781.600000023842","3","confid","","","html-slider-response","565","782750","0.0-4.0-10.64-0.64","","","","Rate your confidence","1",""
"433.7000000476837","e","choice","right","i","experimental","572","784999","0.0-4.0-8.65","false","66","3.15","","",""
"8087.200000047684","4","confid","","","html-slider-response","574","793590","0.0-4.0-10.65-0.65","","","","Rate your confidence","1",""
"46.199999928474426","e","choice","left","e","experimental","581","795481","0.0-4.0-8.66","true","67","3.25","","",""
"2826.6999999284744","4","confid","","","html-slider-response","583","798814","0.0-4.0-10.66-0.66","","","","Rate your confidence","1",""
"1101.6999999284744","i","choice","right","i","experimental","590","801753","0.0-4.0-8.67","true","68","3.25","","",""
"3952.399999976158","4","confid","","","html-slider-response","592","806210","0.0-4.0-10.67-0.67","","","","Rate your confidence","1",""
"671.7999999523163","i","choice","right","i","experimental","600","1602646","0.0-4.0-8.68","true","69","3.15","","",""
"3293.399999976158","4","confid","","","html-slider-response","602","1606451","0.0-4.0-10.68-0.68","","","","Rate your confidence","1",""
"633","e","choice","left","e","experimental","609","1608938","0.0-4.0-8.69","true","70","3.15","","",""
"2938.2000000476837","5","confid","","","html-slider-response","611","1612386","0.0-4.0-10.69-0.69","","","","Rate your confidence","1",""
"417.1999999284744","i","choice","right","i","experimental","618","1614639","0.0-4.0-8.70","true","71","3.05","","",""
"2368.600000023842","4","confid","","","html-slider-response","620","1617516","0.0-4.0-10.70-0.70","","","","Rate your confidence","1",""
"803","e","choice","left","e","experimental","627","1620147","0.0-4.0-8.71","true","72","3.05","","",""
"2907.3000000715256","5","confid","","","html-slider-response","629","1623570","0.0-4.0-10.71-0.71","","","","Rate your confidence","1",""
"547.6000000238419","e","choice","left","e","experimental","636","1625944","0.0-4.0-8.72","true","73","2.9499999999999997","","",""
"2148.399999976158","5","confid","","","html-slider-response","638","1628597","0.0-4.0-10.72-0.72","","","","Rate your confidence","1",""
"661.6000000238419","i","choice","right","i","experimental","645","1631090","0.0-4.0-8.73","true","74","2.9499999999999997","","",""
"2391.2999999523163","4","confid","","","html-slider-response","647","1633985","0.0-4.0-10.73-0.73","","","","Rate your confidence","1",""
"776.6999999284744","i","choice","left","e","experimental","654","1636583","0.0-4.0-8.74","false","75","2.8499999999999996","","",""
"2640","5","confid","","","html-slider-response","656","1639731","0.0-4.0-10.74-0.74","","","","Rate your confidence","1",""
"772.5","i","choice","right","i","experimental","663","1642353","0.0-4.0-8.75","true","76","2.9499999999999997","","",""
"2963.5999999046326","4","confid","","","html-slider-response","665","1645822","0.0-4.0-10.75-0.75","","","","Rate your confidence","1",""
"650.5","e","choice","left","e","experimental","672","1648268","0.0-4.0-8.76","true","77","2.9499999999999997","","",""
"2292.2999999523163","5","confid","","","html-slider-response","674","1651072","0.0-4.0-10.76-0.76","","","","Rate your confidence","1",""
"1166.8999999761581","e","choice","right","i","experimental","681","1654052","0.0-4.0-8.77","false","78","2.8499999999999996","","",""
"2265.5","4","confid","","","html-slider-response","683","1656825","0.0-4.0-10.77-0.77","","","","Rate your confidence","1",""
"1272","i","choice","right","i","experimental","690","1659921","0.0-4.0-8.78","true","79","2.9499999999999997","","",""
"2174.5","4","confid","","","html-slider-response","692","1662601","0.0-4.0-10.78-0.78","","","","Rate your confidence","1",""
"663.1000000238419","e","choice","left","e","experimental","699","1665089","0.0-4.0-8.79","true","80","2.9499999999999997","","",""
"2162.100000023842","4","confid","","","html-slider-response","701","1667762","0.0-4.0-10.79-0.79","","","","Rate your confidence","1",""
"807.1000000238419","i","choice","right","i","experimental","708","1670401","0.0-4.0-8.80","true","81","2.8499999999999996","","",""
"3887","4","confid","","","html-slider-response","710","1674806","0.0-4.0-10.80-0.80","","","","Rate your confidence","1",""
"774.7999999523163","e","choice","left","e","experimental","717","1677410","0.0-4.0-8.81","true","82","2.8499999999999996","","",""
"2990.8000000715256","4","confid","","","html-slider-response","719","1680904","0.0-4.0-10.81-0.81","","","","Rate your confidence","1",""
"701.1999999284744","i","choice","right","i","experimental","726","1683443","0.0-4.0-8.82","true","83","2.7499999999999996","","",""
"3384.6999999284744","4","confid","","","html-slider-response","728","1687347","0.0-4.0-10.82-0.82","","","","Rate your confidence","1",""
"810.7999999523163","i","choice","left","e","experimental","735","1689990","0.0-4.0-8.83","false","84","2.7499999999999996","","",""
"3674.600000023842","4","confid","","","html-slider-response","737","1694178","0.0-4.0-10.83-0.83","","","","Rate your confidence","1",""
"946.3999999761581","e","choice","right","i","experimental","744","1696941","0.0-4.0-8.84","false","85","2.8499999999999996","","",""
"2938.100000023842","4","confid","","","html-slider-response","746","1700393","0.0-4.0-10.84-0.84","","","","Rate your confidence","1",""
"1548.7000000476837","i","choice","left","e","experimental","753","1703772","0.0-4.0-8.85","false","86","2.9499999999999997","","",""
"2233.2999999523163","4","confid","","","html-slider-response","755","1706514","0.0-4.0-10.85-0.85","","","","Rate your confidence","1",""
"679.3999999761581","e","choice","left","e","experimental","762","1709023","0.0-4.0-8.86","true","87","3.05","","",""
"2159.9000000953674","4","confid","","","html-slider-response","764","1711694","0.0-4.0-10.86-0.86","","","","Rate your confidence","1",""
"889","i","choice","right","i","experimental","771","1714401","0.0-4.0-8.87","true","88","3.05","","",""
"3240.9000000953674","3","confid","","","html-slider-response","773","1718157","0.0-4.0-10.87-0.87","","","","Rate your confidence","1",""
"679.2000000476837","e","choice","left","e","experimental","780","1720671","0.0-4.0-8.88","true","89","2.9499999999999997","","",""
"3278.5","5","confid","","","html-slider-response","782","1724454","0.0-4.0-10.88-0.88","","","","Rate your confidence","1",""
"762.8999999761581","i","choice","right","i","experimental","789","1727025","0.0-4.0-8.89","true","90","2.9499999999999997","","",""
"3504.5","4","confid","","","html-slider-response","791","1731042","0.0-4.0-10.89-0.89","","","","Rate your confidence","1",""
"726.2999999523163","i","choice","left","e","experimental","798","1733591","0.0-4.0-8.90","false","91","2.8499999999999996","","",""
"2955.3000000715256","4","confid","","","html-slider-response","800","1737058","0.0-4.0-10.90-0.90","","","","Rate your confidence","1",""
"588.1999999284744","e","choice","right","i","experimental","807","1739465","0.0-4.0-8.91","false","92","2.9499999999999997","","",""
"2581.399999976158","4","confid","","","html-slider-response","809","1742550","0.0-4.0-10.91-0.91","","","","Rate your confidence","1",""
"1028.3000000715256","i","choice","right","i","experimental","816","1745399","0.0-4.0-8.92","true","93","3.05","","",""
"2325.600000023842","4","confid","","","html-slider-response","818","1748238","0.0-4.0-10.92-0.92","","","","Rate your confidence","1",""
"735.2000000476837","e","choice","left","e","experimental","825","1750803","0.0-4.0-8.93","true","94","3.05","","",""
"2276.899999976158","4","confid","","","html-slider-response","827","1753597","0.0-4.0-10.93-0.93","","","","Rate your confidence","1",""
"690.8000000715256","i","choice","left","e","experimental","834","1756106","0.0-4.0-8.94","false","95","2.9499999999999997","","",""
"2032.5","4","confid","","","html-slider-response","836","1758645","0.0-4.0-10.94-0.94","","","","Rate your confidence","1",""
"569","i","choice","right","i","experimental","843","1761033","0.0-4.0-8.95","true","96","3.05","","",""
"1996","4","confid","","","html-slider-response","845","1763541","0.0-4.0-10.95-0.95","","","","Rate your confidence","1",""
"740.7999999523163","e","choice","right","i","experimental","852","1766114","0.0-4.0-8.96","false","97","3.05","","",""
"2461.8000000715256","3","confid","","","html-slider-response","854","1769084","0.0-4.0-10.96-0.96","","","","Rate your confidence","1",""
"852","i","choice","left","e","experimental","861","1771764","0.0-4.0-8.97","false","98","3.15","","",""
"4764.700000047684","4","confid","","","html-slider-response","863","1777035","0.0-4.0-10.97-0.97","","","","Rate your confidence","1",""
"851.7000000476837","e","choice","right","i","experimental","870","1779709","0.0-4.0-8.98","false","99","3.25","","",""
"3896.8000000715256","3","confid","","","html-slider-response","872","1784114","0.0-4.0-10.98-0.98","","","","Rate your confidence","1",""
"761.7999999523163","e","choice","left","e","experimental","879","1786709","0.0-4.0-8.99","true","100","3.35","","",""
"2276","4","confid","","","html-slider-response","881","1789498","0.0-4.0-10.99-0.99","","","","Rate your confidence","1",""
"705.5","i","choice","right","i","experimental","888","1792028","0.0-4.0-8.100","true","101","3.35","","",""
"5778.100000023842","4","confid","","","html-slider-response","890","1798311","0.0-4.0-10.100-0.100","","","","Rate your confidence","1",""
"950.8000000715256","e","choice","left","e","experimental","897","1801081","0.0-4.0-8.101","true","102","3.25","","",""
"2694.399999976158","4","confid","","","html-slider-response","899","1804287","0.0-4.0-10.101-0.101","","","","Rate your confidence","1",""
"672.7999999523163","i","choice","right","i","experimental","906","1806795","0.0-4.0-8.102","true","103","3.25","","",""
"4136","4","confid","","","html-slider-response","908","1811440","0.0-4.0-10.102-0.102","","","","Rate your confidence","1",""
"933.1000000238419","e","choice","left","e","experimental","915","1814194","0.0-4.0-8.103","true","104","3.15","","",""
"2222.399999976158","4","confid","","","html-slider-response","917","1816923","0.0-4.0-10.103-0.103","","","","Rate your confidence","1",""
"654.7000000476837","i","choice","left","e","experimental","924","1819409","0.0-4.0-8.104","false","105","3.15","","",""
"2099","4","confid","","","html-slider-response","926","1822020","0.0-4.0-10.104-0.104","","","","Rate your confidence","1",""
"568.7999999523163","i","choice","right","i","experimental","933","1824410","0.0-4.0-8.105","true","106","3.25","","",""
"4775.900000095367","5","confid","","","html-slider-response","935","1829693","0.0-4.0-10.105-0.105","","","","Rate your confidence","1",""
"1304.5","e","choice","left","e","experimental","942","1832804","0.0-4.0-8.106","true","107","3.25","","",""
"2937.899999976158","3","confid","","","html-slider-response","944","1836249","0.0-4.0-10.106-0.106","","","","Rate your confidence","1",""
"641.5","i","choice","right","i","experimental","951","1838724","0.0-4.0-8.107","true","108","3.15","","",""
"3245.2000000476837","4","confid","","","html-slider-response","953","1842482","0.0-4.0-10.107-0.107","","","","Rate your confidence","1",""
"676.8999999761581","e","choice","left","e","experimental","960","1844984","0.0-4.0-8.108","true","109","3.15","","",""
"4102","4","confid","","","html-slider-response","962","1849594","0.0-4.0-10.108-0.108","","","","Rate your confidence","1",""
"684.5999999046326","i","choice","right","i","experimental","969","1852076","0.0-4.0-8.109","true","110","3.05","","",""
"3053.2000000476837","6","confid","","","html-slider-response","971","1855645","0.0-4.0-10.109-0.109","","","","Rate your confidence","1",""
"575.7999999523163","i","choice","left","e","experimental","979","1860357","0.0-4.0-8.110","false","111","3.05","","",""
"2682.399999976158","4","confid","","","html-slider-response","981","1863545","0.0-4.0-10.110-0.110","","","","Rate your confidence","1",""
"376.3000000715256","i","choice","right","i","experimental","988","1865757","0.0-4.0-8.111","true","112","3.15","","",""
"2146.5","4","confid","","","html-slider-response","990","1868419","0.0-4.0-10.111-0.111","","","","Rate your confidence","1",""
"806.2999999523163","e","choice","left","e","experimental","997","1871051","0.0-4.0-8.112","true","113","3.15","","",""
"2155.7000000476837","4","confid","","","html-slider-response","999","1873725","0.0-4.0-10.112-0.112","","","","Rate your confidence","1",""
"612","i","choice","right","i","experimental","1006","1876167","0.0-4.0-8.113","true","114","3.05","","",""
"3603.100000023842","4","confid","","","html-slider-response","1008","1880289","0.0-4.0-10.113-0.113","","","","Rate your confidence","1",""
"566.9000000953674","i","choice","right","i","experimental","1015","1882690","0.0-4.0-8.114","true","115","3.05","","",""
"3508.399999976158","4","confid","","","html-slider-response","1017","1886708","0.0-4.0-10.114-0.114","","","","Rate your confidence","1",""
"847.5","e","choice","left","e","experimental","1024","1889366","0.0-4.0-8.115","true","116","2.9499999999999997","","",""
"2988.899999976158","4","confid","","","html-slider-response","1026","1892865","0.0-4.0-10.115-0.115","","","","Rate your confidence","1",""
"832.1999999284744","e","choice","left","e","experimental","1033","1895515","0.0-4.0-8.116","true","117","2.9499999999999997","","",""
"3378.899999976158","4","confid","","","html-slider-response","1035","1899402","0.0-4.0-10.116-0.116","","","","Rate your confidence","1",""
"704.2999999523163","i","choice","right","i","experimental","1042","1901945","0.0-4.0-8.117","true","118","2.8499999999999996","","",""
"3880.399999976158","4","confid","","","html-slider-response","1044","1906333","0.0-4.0-10.117-0.117","","","","Rate your confidence","1",""
"747.3000000715256","i","choice","right","i","experimental","1051","1908892","0.0-4.0-8.118","true","119","2.8499999999999996","","",""
"3694.7999999523163","4","confid","","","html-slider-response","1053","1913091","0.0-4.0-10.118-0.118","","","","Rate your confidence","1",""
"916.6000000238419","e","choice","left","e","experimental","1060","1915841","0.0-4.0-8.119","true","120","2.7499999999999996","","",""
"2461.2999999523163","4","confid","","","html-slider-response","1062","1918816","0.0-4.0-10.119-0.119","","","","Rate your confidence","1",""
"890.7999999523163","i","choice","left","e","experimental","1069","1921526","0.0-4.0-8.120","false","121","2.7499999999999996","","",""
"3190.3000000715256","3","confid","","","html-slider-response","1071","1925230","0.0-4.0-10.120-0.120","","","","Rate your confidence","1",""
"534.9000000953674","i","choice","right","i","experimental","1078","1927597","0.0-4.0-8.121","true","122","2.8499999999999996","","",""
"2225.399999976158","4","confid","","","html-slider-response","1080","1930338","0.0-4.0-10.121-0.121","","","","Rate your confidence","1",""
"604.5","e","choice","left","e","experimental","1087","1932748","0.0-4.0-8.122","true","123","2.8499999999999996","","",""
"2309","5","confid","","","html-slider-response","1089","1935570","0.0-4.0-10.122-0.122","","","","Rate your confidence","1",""
"646.0999999046326","i","choice","right","i","experimental","1096","1938020","0.0-4.0-8.123","true","124","2.7499999999999996","","",""
"2736.899999976158","4","confid","","","html-slider-response","1098","1941273","0.0-4.0-10.123-0.123","","","","Rate your confidence","1",""
"861.6000000238419","i","choice","right","i","experimental","1105","1943958","0.0-4.0-8.124","true","125","2.7499999999999996","","",""
"3041.9000000953674","3","confid","","","html-slider-response","1107","1947505","0.0-4.0-10.124-0.124","","","","Rate your confidence","1",""
"829.1999999284744","e","choice","left","e","experimental","1114","1950153","0.0-4.0-8.125","true","126","2.6499999999999995","","",""
"3049.1999999284744","3","confid","","","html-slider-response","1116","1953714","0.0-4.0-10.125-0.125","","","","Rate your confidence","1",""
"1511.7999999523163","e","choice","left","e","experimental","1123","1957055","0.0-4.0-8.126","true","127","2.6499999999999995","","",""
"2061.5","4","confid","","","html-slider-response","1125","1959628","0.0-4.0-10.126-0.126","","","","Rate your confidence","1",""
"759.8000000715256","i","choice","right","i","experimental","1132","1962199","0.0-4.0-8.127","true","128","2.5499999999999994","","",""
"5605.600000023842","5","confid","","","html-slider-response","1134","1968316","0.0-4.0-10.127-0.127","","","","Rate your confidence","1",""
"810.8000000715256","e","choice","left","e","experimental","1141","1970959","0.0-4.0-8.128","true","129","2.5499999999999994","","",""
"2741.7000000476837","3","confid","","","html-slider-response","1143","1974208","0.0-4.0-10.128-0.128","","","","Rate your confidence","1",""
"706.8000000715256","i","choice","right","i","experimental","1150","1976726","0.0-4.0-8.129","true","130","2.4499999999999993","","",""
"3845.100000023842","5","confid","","","html-slider-response","1152","1981087","0.0-4.0-10.129-0.129","","","","Rate your confidence","1",""
"666.1999999284744","e","choice","left","e","experimental","1159","1983598","0.0-4.0-8.130","true","131","2.4499999999999993","","",""
"2899","4","confid","","","html-slider-response","1161","1987003","0.0-4.0-10.130-0.130","","","","Rate your confidence","1",""
"595","i","choice","right","i","experimental","1168","1989406","0.0-4.0-8.131","true","132","2.349999999999999","","",""
"2806","5","confid","","","html-slider-response","1170","1992723","0.0-4.0-10.131-0.131","","","","Rate your confidence","1",""
"556.1000000238419","i","choice","left","e","experimental","1177","1995096","0.0-4.0-8.132","false","133","2.349999999999999","","",""
"2452.7999999523163","5","confid","","","html-slider-response","1179","1998068","0.0-4.0-10.132-0.132","","","","Rate your confidence","1",""
"518.6000000238419","i","choice","right","i","experimental","1186","2000407","0.0-4.0-8.133","true","134","2.4499999999999993","","",""
"2200.399999976158","4","confid","","","html-slider-response","1188","2003118","0.0-4.0-10.133-0.133","","","","Rate your confidence","1",""
"816.3000000715256","e","choice","left","e","experimental","1195","2005783","0.0-4.0-8.134","true","135","2.4499999999999993","","",""
"3050.899999976158","4","confid","","","html-slider-response","1197","2009354","0.0-4.0-10.134-0.134","","","","Rate your confidence","1",""
"625.2999999523163","i","choice","right","i","experimental","1204","2011799","0.0-4.0-8.135","true","136","2.349999999999999","","",""
"4708.299999952316","6","confid","","","html-slider-response","1206","2017013","0.0-4.0-10.135-0.135","","","","Rate your confidence","1",""
"1616.2000000476837","i","choice","right","i","experimental","1213","2020447","0.0-4.0-8.136","true","137","2.349999999999999","","",""
"5895.5","6","confid","","","html-slider-response","1215","2026848","0.0-4.0-10.136-0.136","","","","Rate your confidence","1",""
"996","i","choice","left","e","experimental","1222","2029650","0.0-4.0-8.137","false","138","2.249999999999999","","",""
"2120.8000000715256","3","confid","","","html-slider-response","1224","2032282","0.0-4.0-10.137-0.137","","","","Rate your confidence","1",""
"1287","e","choice","left","e","experimental","1231","2035406","0.0-4.0-8.138","true","139","2.349999999999999","","",""
"2560.4000000953674","3","confid","","","html-slider-response","1233","2038481","0.0-4.0-10.138-0.138","","","","Rate your confidence","1",""
"519.8000000715256","i","choice","right","i","experimental","1240","2040820","0.0-4.0-8.139","true","140","2.349999999999999","","",""
"2102.399999976158","5","confid","","","html-slider-response","1242","2043440","0.0-4.0-10.139-0.139","","","","Rate your confidence","1",""
"955.2999999523163","i","choice","right","i","experimental","1249","2046226","0.0-4.0-8.140","true","141","2.249999999999999","","",""
"5224.399999976158","3","confid","","","html-slider-response","1251","2051959","0.0-4.0-10.140-0.140","","","","Rate your confidence","1",""
"578.1999999284744","i","choice","left","e","experimental","1258","2054357","0.0-4.0-8.141","false","142","2.249999999999999","","",""
"2317.2000000476837","5","confid","","","html-slider-response","1260","2057181","0.0-4.0-10.141-0.141","","","","Rate your confidence","1",""
"932.7000000476837","e","choice","right","i","experimental","1267","2059941","0.0-4.0-8.142","false","143","2.349999999999999","","",""
"3124.5","5","confid","","","html-slider-response","1269","2063576","0.0-4.0-10.142-0.142","","","","Rate your confidence","1",""
"679.5","e","choice","left","e","experimental","1276","2066057","0.0-4.0-8.143","true","144","2.4499999999999993","","",""
"2755.6999999284744","3","confid","","","html-slider-response","1278","2069325","0.0-4.0-10.143-0.143","","","","Rate your confidence","1",""
"589.8000000715256","i","choice","right","i","experimental","1285","2071753","0.0-4.0-8.144","true","145","2.4499999999999993","","",""
"2475.3000000715256","6","confid","","","html-slider-response","1287","2074744","0.0-4.0-10.144-0.144","","","","Rate your confidence","1",""
"854.0999999046326","e","choice","left","e","experimental","1294","2077427","0.0-4.0-8.145","true","146","2.349999999999999","","",""
"2350.7000000476837","3","confid","","","html-slider-response","1296","2080292","0.0-4.0-10.145-0.145","","","","Rate your confidence","1",""
"781.6000000238419","i","choice","right","i","experimental","1303","2082914","0.0-4.0-8.146","true","147","2.349999999999999","","",""
"2819.100000023842","4","confid","","","html-slider-response","1305","2086246","0.0-4.0-10.146-0.146","","","","Rate your confidence","1",""
"808.6999999284744","i","choice","left","e","experimental","1312","2088876","0.0-4.0-8.147","false","148","2.249999999999999","","",""
"2358.7000000476837","4","confid","","","html-slider-response","1314","2091750","0.0-4.0-10.147-0.147","","","","Rate your confidence","1",""
"887.8999999761581","i","choice","left","e","experimental","1321","2094467","0.0-4.0-8.148","false","149","2.349999999999999","","",""
"2485","4","confid","","","html-slider-response","1323","2097459","0.0-4.0-10.148-0.148","","","","Rate your confidence","1",""
"622.7000000476837","i","choice","right","i","experimental","1330","2099912","0.0-4.0-8.149","true","150","2.4499999999999993","","",""
"2578.1999999284744","4","confid","","","html-slider-response","1332","2103012","0.0-4.0-10.149-0.149","","","","Rate your confidence","1",""
"569.2000000476837","i","choice","right","i","experimental","1339","2105423","0.0-4.0-8.150","true","151","2.4499999999999993","","",""
"2416.7999999523163","4","confid","","","html-slider-response","1341","2108357","0.0-4.0-10.150-0.150","","","","Rate your confidence","1",""
"833.1999999284744","e","choice","left","e","experimental","1348","2111023","0.0-4.0-8.151","true","152","2.349999999999999","","",""
"2879.5","5","confid","","","html-slider-response","1350","2114412","0.0-4.0-10.151-0.151","","","","Rate your confidence","1",""
"1028.5","e","choice","left","e","experimental","1358","2709664","0.0-4.0-8.152","true","153","2.349999999999999","","",""
"2413.5","3","confid","","","html-slider-response","1360","2712589","0.0-4.0-10.152-0.152","","","","Rate your confidence","1",""
"1.9000000953674316","i","choice","right","i","experimental","1367","2714414","0.0-4.0-8.153","true","154","2.249999999999999","","",""
"2172.399999976158","4","confid","","","html-slider-response","1369","2717101","0.0-4.0-10.153-0.153","","","","Rate your confidence","1",""
"255.10000002384186","e","choice","left","e","experimental","1376","2719177","0.0-4.0-8.154","true","155","2.249999999999999","","",""
"2672","4","confid","","","html-slider-response","1378","2722361","0.0-4.0-10.154-0.154","","","","Rate your confidence","1",""
"350.2999999523163","i","choice","right","i","experimental","1385","2724549","0.0-4.0-8.155","true","156","2.149999999999999","","",""
"2448","5","confid","","","html-slider-response","1387","2727501","0.0-4.0-10.155-0.155","","","","Rate your confidence","1",""
"249.5","e","choice","left","e","experimental","1394","2729576","0.0-4.0-8.156","true","157","2.149999999999999","","",""
"2364.899999976158","4","confid","","","html-slider-response","1396","2732457","0.0-4.0-10.156-0.156","","","","Rate your confidence","1",""
"48.89999997615814","i","choice","right","i","experimental","1403","2734326","0.0-4.0-8.157","true","158","2.049999999999999","","",""
"2219","4","confid","","","html-slider-response","1405","2737057","0.0-4.0-10.157-0.157","","","","Rate your confidence","1",""
"634","i","choice","right","i","experimental","1412","2739519","0.0-4.0-8.158","true","159","2.049999999999999","","",""
"2417.7000000476837","4","confid","","","html-slider-response","1414","2742446","0.0-4.0-10.158-0.158","","","","Rate your confidence","1",""
"396.60000002384186","i","choice","left","e","experimental","1421","2744672","0.0-4.0-8.159","false","160","1.9499999999999988","","",""
"2808.7999999523163","4","confid","","","html-slider-response","1423","2747987","0.0-4.0-10.159-0.159","","","","Rate your confidence","1",""
"439.89999997615814","i","choice","right","i","experimental","1430","2750264","0.0-4.0-8.160","true","161","2.049999999999999","","",""
"2524.7000000476837","4","confid","","","html-slider-response","1432","2753293","0.0-4.0-10.160-0.160","","","","Rate your confidence","1",""
"354.2000000476837","e","choice","left","e","experimental","1439","2755467","0.0-4.0-8.161","true","162","2.049999999999999","","",""
"2230.899999976158","3","confid","","","html-slider-response","1441","2758202","0.0-4.0-10.161-0.161","","","","Rate your confidence","1",""
"118.40000009536743","e","choice","left","e","experimental","1448","2760152","0.0-4.0-8.162","true","163","1.9499999999999988","","",""
"5092.600000023842","5","confid","","","html-slider-response","1450","2765752","0.0-4.0-10.162-0.162","","","","Rate your confidence","1",""
"259.2000000476837","i","choice","right","i","experimental","1457","2767840","0.0-4.0-8.163","true","164","1.9499999999999988","","",""
"2622.2999999523163","4","confid","","","html-slider-response","1459","2770973","0.0-4.0-10.163-0.163","","","","Rate your confidence","1",""
"70.10000002384186","i","choice","left","e","experimental","1466","2772852","0.0-4.0-8.164","false","165","1.8499999999999988","","",""
"7151.399999976158","4","confid","","","html-slider-response","1468","2780516","0.0-4.0-10.164-0.164","","","","Rate your confidence","1",""
"796.3000000715256","i","choice","right","i","experimental","1475","2783144","0.0-4.0-8.165","true","166","1.9499999999999988","","",""
"3327.399999976158","5","confid","","","html-slider-response","1477","2786990","0.0-4.0-10.165-0.165","","","","Rate your confidence","1",""
"410.7999999523163","i","choice","right","i","experimental","1484","2789202","0.0-4.0-8.166","true","167","1.9499999999999988","","",""
"2157.8000000715256","3","confid","","","html-slider-response","1486","2791866","0.0-4.0-10.166-0.166","","","","Rate your confidence","1",""
"266.40000009536743","i","choice","left","e","experimental","1493","2793953","0.0-4.0-8.167","false","168","1.8499999999999988","","",""
"3012.2999999523163","4","confid","","","html-slider-response","1495","2797483","0.0-4.0-10.167-0.167","","","","Rate your confidence","1",""
"346","e","choice","right","i","experimental","1502","2799635","0.0-4.0-8.168","false","169","1.9499999999999988","","",""
"2833.5999999046326","4","confid","","","html-slider-response","1504","2802985","0.0-4.0-10.168-0.168","","","","Rate your confidence","1",""
"491.10000002384186","e","choice","left","e","experimental","1511","2805309","0.0-4.0-8.169","true","170","2.049999999999999","","",""
"2107.1999999284744","4","confid","","","html-slider-response","1513","2807926","0.0-4.0-10.169-0.169","","","","Rate your confidence","1",""
"653.8999999761581","i","choice","right","i","experimental","1520","2810401","0.0-4.0-8.170","true","171","2.049999999999999","","",""
"2538.2999999523163","4","confid","","","html-slider-response","1522","2813448","0.0-4.0-10.170-0.170","","","","Rate your confidence","1",""
"336.5","e","choice","left","e","experimental","1529","2815599","0.0-4.0-8.171","true","172","1.9499999999999988","","",""
"3172","4","confid","","","html-slider-response","1531","2819280","0.0-4.0-10.171-0.171","","","","Rate your confidence","1",""
"612.6000000238419","i","choice","right","i","experimental","1538","2821714","0.0-4.0-8.172","true","173","1.9499999999999988","","",""
"2356","4","confid","","","html-slider-response","1540","2824578","0.0-4.0-10.172-0.172","","","","Rate your confidence","1",""
"737.7999999523163","i","choice","left","e","experimental","1547","2827127","0.0-4.0-8.173","false","174","1.8499999999999988","","",""
"2804.600000023842","4","confid","","","html-slider-response","1549","2830442","0.0-4.0-10.173-0.173","","","","Rate your confidence","1",""
"414","e","choice","left","e","experimental","1556","2832660","0.0-4.0-8.174","true","175","1.9499999999999988","","",""
"2268.2999999523163","3","confid","","","html-slider-response","1558","2835432","0.0-4.0-10.174-0.174","","","","Rate your confidence","1",""
"567.2000000476837","e","choice","right","i","experimental","1565","2837841","0.0-4.0-8.175","false","176","1.9499999999999988","","",""
"2655.399999976158","5","confid","","","html-slider-response","1567","2841010","0.0-4.0-10.175-0.175","","","","Rate your confidence","1",""
"790.6000000238419","e","choice","left","e","experimental","1574","2843609","0.0-4.0-8.176","true","177","2.049999999999999","","",""
"2459.899999976158","3","confid","","","html-slider-response","1576","2846579","0.0-4.0-10.176-0.176","","","","Rate your confidence","1",""
"856.3000000715256","i","choice","right","i","experimental","1583","2849255","0.0-4.0-8.177","true","178","2.049999999999999","","",""
"2372","3","confid","","","html-slider-response","1585","2852139","0.0-4.0-10.177-0.177","","","","Rate your confidence","1",""
"795.8000000715256","i","choice","left","e","experimental","1592","2854739","0.0-4.0-8.178","false","179","1.9499999999999988","","",""
"2493.100000023842","4","confid","","","html-slider-response","1594","2857739","0.0-4.0-10.178-0.178","","","","Rate your confidence","1",""
"468.60000002384186","i","choice","right","i","experimental","1601","2860027","0.0-4.0-8.179","true","180","2.049999999999999","","",""
"2560.0999999046326","4","confid","","","html-slider-response","1603","2863102","0.0-4.0-10.179-0.179","","","","Rate your confidence","1",""
"4450","i","choice","right","i","experimental","1610","2869369","0.0-4.0-8.180","true","181","2.049999999999999","","",""
"5710","4","confid","","","html-slider-response","1612","2875585","0.0-4.0-10.180-0.180","","","","Rate your confidence","1",""
"3109.2999999523163","i","choice","left","e","experimental","1619","2880507","0.0-4.0-8.181","false","182","1.9499999999999988","","",""
"2441","3","confid","","","html-slider-response","1621","2883464","0.0-4.0-10.181-0.181","","","","Rate your confidence","1",""
"2211.100000023842","i","choice","right","i","experimental","1628","2887489","0.0-4.0-8.182","true","183","2.049999999999999","","",""
"2927.7000000476837","4","confid","","","html-slider-response","1630","2890926","0.0-4.0-10.182-0.182","","","","Rate your confidence","1",""
"515.3999999761581","e","choice","left","e","experimental","1637","2893272","0.0-4.0-8.183","true","184","2.049999999999999","","",""
"2445.7999999523163","4","confid","","","html-slider-response","1639","2896236","0.0-4.0-10.183-0.183","","","","Rate your confidence","1",""
"1111.0999999046326","i","choice","left","e","experimental","1646","2899166","0.0-4.0-8.184","false","185","1.9499999999999988","","",""
"2330.7000000476837","4","confid","","","html-slider-response","1648","2902003","0.0-4.0-10.184-0.184","","","","Rate your confidence","1",""
"655.3000000715256","e","choice","right","i","experimental","1655","2904480","0.0-4.0-8.185","false","186","2.049999999999999","","",""
"3163.1999999284744","4","confid","","","html-slider-response","1657","2908161","0.0-4.0-10.185-0.185","","","","Rate your confidence","1",""
"1269.8999999761581","e","choice","right","i","experimental","1664","2911258","0.0-4.0-8.186","false","187","2.149999999999999","","",""
"2448.3000000715256","4","confid","","","html-slider-response","1666","2914219","0.0-4.0-10.186-0.186","","","","Rate your confidence","1",""
"1176.3999999761581","e","choice","left","e","experimental","1673","2917223","0.0-4.0-8.187","true","188","2.249999999999999","","",""
"2411.399999976158","4","confid","","","html-slider-response","1675","2920154","0.0-4.0-10.187-0.187","","","","Rate your confidence","1",""
"983.3999999761581","e","choice","left","e","experimental","1682","2922964","0.0-4.0-8.188","true","189","2.249999999999999","","",""
"2977.5","4","confid","","","html-slider-response","1684","2926449","0.0-4.0-10.188-0.188","","","","Rate your confidence","1",""
"1239.0999999046326","i","choice","right","i","experimental","1691","2929514","0.0-4.0-8.189","true","190","2.149999999999999","","",""
"2760.1999999284744","4","confid","","","html-slider-response","1693","2932782","0.0-4.0-10.189-0.189","","","","Rate your confidence","1",""
"1014","i","choice","right","i","experimental","1700","2935626","0.0-4.0-8.190","true","191","2.149999999999999","","",""
"10236.899999976158","4","confid","","","html-slider-response","1702","2946389","0.0-4.0-10.190-0.190","","","","Rate your confidence","1",""
"792.5999999046326","e","choice","left","e","experimental","1709","2948983","0.0-4.0-8.191","true","192","2.049999999999999","","",""
"2523.899999976158","4","confid","","","html-slider-response","1711","2952019","0.0-4.0-10.191-0.191","","","","Rate your confidence","1",""
"768.1000000238419","i","choice","right","i","experimental","1718","2954617","0.0-4.0-8.192","true","193","2.049999999999999","","",""
"2724.5","4","confid","","","html-slider-response","1720","2957862","0.0-4.0-10.192-0.192","","","","Rate your confidence","1",""
"623.3999999761581","i","choice","left","e","experimental","1727","2960300","0.0-4.0-8.193","false","194","1.9499999999999988","","",""
"2586.8000000715256","4","confid","","","html-slider-response","1729","2963404","0.0-4.0-10.193-0.193","","","","Rate your confidence","1","19351"
