"rt","response","task","target_side","correct_response","trial_type","trial_index","time_elapsed","internal_node_id","correct","trial_number","n_dots","stimulus","slider_start","participant"
"620.2999999821186","e","choice","right","i","practice","10","68251","0.0-4.0-8.0","false","1","4.25","","",""
"285.19999998807907","e","choice","left","e","practice","18","70844","0.0-4.0-8.1","true","2","4.65","","",""
"511.59999999403954","i","choice","right","i","practice","26","73642","0.0-4.0-8.2","true","3","4.65","","",""
"307.60000002384186","e","choice","left","e","practice","34","76236","0.0-4.0-8.3","true","4","4.25","","",""
"583","i","choice","left","e","practice","42","79106","0.0-4.0-8.4","false","5","4.25","","",""
"218","i","choice","right","i","practice","50","81640","0.0-4.0-8.5","true","6","4.65","","",""
"295.2000000178814","e","choice","left","e","practice","58","84221","0.0-4.0-8.6","true","7","4.65","","",""
"172.89999997615814","i","choice","right","i","practice","66","86684","0.0-4.0-8.7","true","8","4.45","","",""
"118.5","i","choice","right","i","practice","74","89091","0.0-4.0-8.8","true","9","4.45","","",""
"1244.199999988079","e","choice","left","e","practice","82","92630","0.0-4.0-8.9","true","10","4.25","","",""
"426.40000000596046","e","choice","left","e","practice","90","95371","0.0-4.0-8.10","true","11","4.25","","",""
"221.69999998807907","i","choice","right","i","practice","98","97884","0.0-4.0-8.11","true","12","4.15","","",""
"192.19999998807907","i","choice","right","i","practice","106","100362","0.0-4.0-8.12","true","13","4.15","","",""
"1333.7000000178814","e","choice","left","e","practice","114","103999","0.0-4.0-8.13","true","14","4.050000000000001","","",""
"135.69999998807907","i","choice","right","i","practice","122","106441","0.0-4.0-8.14","true","15","4.050000000000001","","",""
"99.2999999821186","e","choice","left","e","practice","130","108831","0.0-4.0-8.15","true","16","3.9500000000000006","","",""
"648.8000000119209","i","choice","left","e","practice","138","111774","0.0-4.0-8.16","false","17","3.9500000000000006","","",""
"307.40000000596046","i","choice","right","i","practice","146","114357","0.0-4.0-8.17","true","18","4.050000000000001","","",""
"287.5","e","choice","left","e","practice","154","116940","0.0-4.0-8.18","true","19","4.050000000000001","","",""
"32.89999997615814","i","choice","right","i","practice","162","119266","0.0-4.0-8.19","true","20","3.9500000000000006","","",""
"20.599999994039536","i","choice","right","i","practice","170","121576","0.0-4.0-8.20","true","21","3.9500000000000006","","",""
"497.30000001192093","e","choice","left","e","practice","178","124386","0.0-4.0-8.21","true","22","3.8500000000000005","","",""
"288","e","choice","left","e","practice","186","126984","0.0-4.0-8.22","true","23","3.8500000000000005","","",""
"277.59999999403954","i","choice","right","i","practice","194","129554","0.0-4.0-8.23","true","24","3.7500000000000004","","",""
"759.2999999821186","i","choice","right","i","practice","202","132603","0.0-4.0-8.24","true","25","3.7500000000000004","","",""
"1067.8999999761581","i","choice","left","e","practice","210","135969","0.0-4.0-8.25","false","26","3.6500000000000004","","",""
"151.80000001192093","e","choice","right","i","experimental","221","152611","0.0-4.0-8.26","false","27","3.7500000000000004","","",""
"2875.800000011921","4","confid","","","html-slider-response","223","155992","0.0-4.0-10.26-0.26","","","","Rate your confidence","1",""
"55","e","choice","left","e","experimental","230","157853","0.0-4.0-8.27","true","28","3.8500000000000005","","",""
"8657.90000000596","5","confid","","","html-slider-response","232","167016","0.0-4.0-10.27-0.27","","","","Rate your confidence","1",""
"476.89999997615814","e","choice","left","e","experimental","239","169282","0.0-4.0-8.28","true","29","3.8500000000000005","","",""
"1786.7999999821186","3","confid","","","html-slider-response","241","171575","0.0-4.0-10.28-0.28","","","","Rate your confidence","1",""
"265.89999997615814","e","choice","right","i","experimental","248","173621","0.0-4.0-8.29","false","30","3.7500000000000004","","",""
"1922.9000000059605","4","confid","","","html-slider-response","250","176048","0.0-4.0-10.29-0.29","","","","Rate your confidence","1",""
"274.90000000596046","e","choice","right","i","experimental","257","178129","0.0-4.0-8.30","false","31","3.8500000000000005","","",""
"1740.0999999940395","4","confid","","","html-slider-response","259","180372","0.0-4.0-10.30-0.30","","","","Rate your confidence","1",""
"115.7000000178814","e","choice","left","e","experimental","266","182263","0.0-4.0-8.31","true","32","3.9500000000000006","","",""
"1459.7999999821186","4","confid","","","html-slider-response","268","184229","0.0-4.0-10.31-0.31","","","","Rate your confidence","1",""
"231.5","e","choice","left","e","experimental","275","186243","0.0-4.0-8.32","true","33","3.9500000000000006","","",""
"2658","4","confid","","","html-slider-response","277","189405","0.0-4.0-10.32-0.32","","","","Rate your confidence","1",""
"252.39999997615814","e","choice","right","i","experimental","284","191438","0.0-4.0-8.33","false","34","3.8500000000000005","","",""
"1631.199999988079","5","confid","","","html-slider-response","286","193574","0.0-4.0-10.33-0.33","","","","Rate your confidence","1",""
"34.20000001788139","e","choice","right","i","experimental","293","195406","0.0-4.0-8.34","false","35","3.9500000000000006","","",""
"1959.5999999940395","5","confid","","","html-slider-response","295","197869","0.0-4.0-10.34-0.34","","","","Rate your confidence","1",""
"130.5","e","choice","left","e","experimental","302","199778","0.0-4.0-8.35","true","36","4.050000000000001","","",""
"1676.9000000059605","5","confid","","","html-slider-response","304","201960","0.0-4.0-10.35-0.35","","","","Rate your confidence","1",""
"145.40000000596046","e","choice","left","e","experimental","311","203895","0.0-4.0-8.36","true","37","4.050000000000001","","",""
"2421.7000000178814","6","confid","","","html-slider-response","313","206821","0.0-4.0-10.36-0.36","","","","Rate your confidence","1",""
"157.19999998807907","e","choice","right","i","experimental","320","208770","0.0-4.0-8.37","false","38","3.9500000000000006","","",""
"1857.5","6","confid","","","html-slider-response","322","211132","0.0-4.0-10.37-0.37","","","","Rate your confidence","1",""
"272.80000001192093","e","choice","left","e","experimental","329","213212","0.0-4.0-8.38","true","39","4.050000000000001","","",""
"1262","5","confid","","","html-slider-response","331","214978","0.0-4.0-10.38-0.38","","","","Rate your confidence","1",""
"551","i","choice","right","i","experimental","338","217317","0.0-4.0-8.39","true","40","4.050000000000001","","",""
"1570","2","confid","","","html-slider-response","340","219390","0.0-4.0-10.39-0.39","","","","Rate your confidence","1",""
"127.59999999403954","e","choice","right","i","experimental","347","221301","0.0-4.0-8.40","false","41","3.9500000000000006","","",""
"2111.5","4","confid","","","html-slider-response","349","223917","0.0-4.0-10.40-0.40","","","","Rate your confidence","1",""
"209.2999999821186","e","choice","left","e","experimental","356","225913","0.0-4.0-8.41","true","42","4.050000000000001","","",""
"1662.9000000059605","5","confid","","","html-slider-response","358","228079","0.0-4.0-10.41-0.41","","","","Rate your confidence","1",""
"294.90000000596046","e","choice","right","i","experimental","365","230181","0.0-4.0-8.42","false","43","4.050000000000001","","",""
"4050","4","confid","","","html-slider-response","367","234735","0.0-4.0-10.42-0.42","","","","Rate your confidence","1",""
"274.90000000596046","e","choice","left","e","experimental","374","236808","0.0-4.0-8.43","true","44","4.15","","",""
"2490.699999988079","4","confid","","","html-slider-response","376","239819","0.0-4.0-10.43-0.43","","","","Rate your confidence","1",""
"4.699999988079071","e","choice","left","e","experimental","383","241602","0.0-4.0-8.44","true","45","4.15","","",""
"1852.7000000178814","6","confid","","","html-slider-response","385","243959","0.0-4.0-10.44-0.44","","","","Rate your confidence","1",""
"122.10000002384186","e","choice","right","i","experimental","392","245887","0.0-4.0-8.45","false","46","4.050000000000001","","",""
"2076.5","5","confid","","","html-slider-response","394","248467","0.0-4.0-10.45-0.45","","","","Rate your confidence","1",""
"302.09999999403954","e","choice","right","i","experimental","401","250554","0.0-4.0-8.46","false","47","4.15","","",""
"1890.800000011921","4","confid","","","html-slider-response","403","252948","0.0-4.0-10.46-0.46","","","","Rate your confidence","1",""
"307.59999999403954","e","choice","left","e","experimental","410","255043","0.0-4.0-8.47","true","48","4.25","","",""
"2607.7999999821186","4","confid","","","html-slider-response","412","258153","0.0-4.0-10.47-0.47","","","","Rate your confidence","1",""
"420.2000000178814","i","choice","right","i","experimental","419","260357","0.0-4.0-8.48","true","49","4.25","","",""
"2136.9000000059605","5","confid","","","html-slider-response","421","262998","0.0-4.0-10.48-0.48","","","","Rate your confidence","1",""
"192.7000000178814","e","choice","left","e","experimental","428","264996","0.0-4.0-8.49","true","50","4.15","","",""
"3792.300000011921","6","confid","","","html-slider-response","430","269291","0.0-4.0-10.49-0.49","","","","Rate your confidence","1",""
"280.59999999403954","i","choice","right","i","experimental","437","271368","0.0-4.0-8.50","true","51","4.15","","",""
"1751.5","3","confid","","","html-slider-response","439","273623","0.0-4.0-10.50-0.50","","","","Rate your confidence","1",""
"280.7000000178814","e","choice","left","e","experimental","446","275685","0.0-4.0-8.51","true","52","4.050000000000001","","",""
"2461.9000000059605","4","confid","","","html-slider-response","448","278652","0.0-4.0-10.51-0.51","","","","Rate your confidence","1",""
"371.09999999403954","e","choice","right","i","experimental","455","280806","0.0-4.0-8.52","false","53","4.050000000000001","","",""
"1830","4","confid","","","html-slider-response","457","283145","0.0-4.0-10.52-0.52","","","","Rate your confidence","1",""
"353.90000000596046","e","choice","left","e","experimental","464","285277","0.0-4.0-8.53","true","54","4.15","","",""
"1760.2000000178814","3","confid","","","html-slider-response","466","287540","0.0-4.0-10.53-0.53","","","","Rate your confidence","1",""
"153.09999999403954","i","choice","right","i","experimental","473","289470","0.0-4.0-8.54","true","55","4.15","","",""
"1835.4000000059605","3","confid","","","html-slider-response","475","291808","0.0-4.0-10.54-0.54","","","","Rate your confidence","1",""
"248.90000000596046","e","choice","left","e","experimental","482","293837","0.0-4.0-8.55","true","56","4.050000000000001","","",""
"1904.6000000238419","5","confid","","","html-slider-response","484","296246","0.0-4.0-10.55-0.55","","","","Rate your confidence","1",""
"120.40000000596046","e","choice","left","e","experimental","491","298152","0.0-4.0-8.56","true","57","4.050000000000001","","",""
"2916.4000000059605","5","confid","","","html-slider-response","493","301573","0.0-4.0-10.56-0.56","","","","Rate your confidence","1",""
"273.2999999821186","e","choice","right","i","experimental","500","303629","0.0-4.0-8.57","false","58","3.9500000000000006","","",""
"1550.699999988079","5","confid","","","html-slider-response","502","305683","0.0-4.0-10.57-0.57","","","","Rate your confidence","1",""
"226.80000001192093","e","choice","left","e","experimental","509","307695","0.0-4.0-8.58","true","59","4.050000000000001","","",""
"1894.5999999940395","4","confid","","","html-slider-response","511","310095","0.0-4.0-10.58-0.58","","","","Rate your confidence","1",""
"304.80000001192093","e","choice","right","i","experimental","518","312183","0.0-4.0-8.59","false","60","4.050000000000001","","",""
"1850.4000000059605","4","confid","","","html-slider-response","520","314538","0.0-4.0-10.59-0.59","","","","Rate your confidence","1",""
"209.90000000596046","e","choice","right","i","experimental","527","316552","0.0-4.0-8.60","false","61","4.15","","",""
"1839.699999988079","5","confid","","","html-slider-response","529","318897","0.0-4.0-10.60-0.60","","","","Rate your confidence","1",""
"159.60000002384186","e","choice","left","e","experimental","536","320849","0.0-4.0-8.61","true","62","4.25","","",""
"1811.5999999940395","4","confid","","","html-slider-response","538","323164","0.0-4.0-10.61-0.61","","","","Rate your confidence","1",""
"176.2000000178814","e","choice","right","i","experimental","545","325128","0.0-4.0-8.62","false","63","4.25","","",""
"2288.9000000059605","6","confid","","","html-slider-response","547","327921","0.0-4.0-10.62-0.62","","","","Rate your confidence","1",""
"13.199999988079071","e","choice","left","e","experimental","554","329721","0.0-4.0-8.63","true","64","4.35","","",""
"1290.800000011921","4","confid","","","html-slider-response","556","331515","0.0-4.0-10.63-0.63","","","","Rate your confidence","1",""
"345.09999999403954","e","choice","left","e","experimental","563","333658","0.0-4.0-8.64","true","65","4.35","","",""
"3367.5","3","confid","","","html-slider-response","565","337530","0.0-4.0-10.64-0.64","","","","Rate your confidence","1",""
"463.7999999821186","i","choice","right","i","experimental","572","339778","0.0-4.0-8.65","true","66","4.25","","",""
"2241.4000000059605","3","confid","","","html-slider-response","574","342522","0.0-4.0-10.65-0.65","","","","Rate your confidence","1",""
"188.59999999403954","e","choice","left","e","experimental","581","344501","0.0-4.0-8.66","true","67","4.25","","",""
"1583.699999988079","5","confid","","","html-slider-response","583","346591","0.0-4.0-10.66-0.66","","","","Rate your confidence","1",""
"221.90000000596046","i","choice","right","i","experimental","590","348603","0.0-4.0-8.67","true","68","4.15","","",""
"1708","2","confid","","","html-slider-response","592","350818","0.0-4.0-10.67-0.67","","","","Rate your confidence","1",""
"80","e","choice","left","e","experimental","600","367717","0.0-4.0-8.68","true","69","4.15","","",""
"2518.4000000059605","3","confid","","","html-slider-response","602","370739","0.0-4.0-10.68-0.68","","","","Rate your confidence","1",""
"408.89999997615814","e","choice","right","i","experimental","609","372935","0.0-4.0-8.69","false","70","4.050000000000001","","",""
"3271.0999999940395","3","confid","","","html-slider-response","611","376711","0.0-4.0-10.69-0.69","","","","Rate your confidence","1",""
"854.1999999880791","i","choice","right","i","experimental","618","379351","0.0-4.0-8.70","true","71","4.15","","",""
"2100.199999988079","3","confid","","","html-slider-response","620","381955","0.0-4.0-10.70-0.70","","","","Rate your confidence","1",""
"281","e","choice","left","e","experimental","627","384037","0.0-4.0-8.71","true","72","4.15","","",""
"1833","6","confid","","","html-slider-response","629","386376","0.0-4.0-10.71-0.71","","","","Rate your confidence","1",""
"437.59999999403954","i","choice","right","i","experimental","636","388601","0.0-4.0-8.72","true","73","4.050000000000001","","",""
"2598.300000011921","3","confid","","","html-slider-response","638","391704","0.0-4.0-10.72-0.72","","","","Rate your confidence","1",""
"136.59999999403954","e","choice","left","e","experimental","645","393625","0.0-4.0-8.73","true","74","4.050000000000001","","",""
"2242.0999999940395","6","confid","","","html-slider-response","647","396369","0.0-4.0-10.73-0.73","","","","Rate your confidence","1",""
"127.69999998807907","e","choice","right","i","experimental","654","398285","0.0-4.0-8.74","false","75","3.9500000000000006","","",""
"2443.5","6","confid","","","html-slider-response","656","401233","0.0-4.0-10.74-0.74","","","","Rate your confidence","1",""
"224.90000000596046","e","choice","left","e","experimental","663","403250","0.0-4.0-8.75","true","76","4.050000000000001","","",""
"1945","6","confid","","","html-slider-response","665","405699","0.0-4.0-10.75-0.75","","","","Rate your confidence","1",""
"262.59999999403954","e","choice","left","e","experimental","672","407761","0.0-4.0-8.76","true","77","4.050000000000001","","",""
"2556.0999999940395","6","confid","","","html-slider-response","674","410820","0.0-4.0-10.76-0.76","","","","Rate your confidence","1",""
"283.7000000178814","e","choice","right","i","experimental","681","412889","0.0-4.0-8.77","false","78","3.9500000000000006","","",""
"2236.4000000059605","6","confid","","","html-slider-response","683","415630","0.0-4.0-10.77-0.77","","","","Rate your confidence","1",""
"228.60000002384186","e","choice","right","i","experimental","690","417653","0.0-4.0-8.78","false","79","4.050000000000001","","",""
"1609.9000000059605","6","confid","","","html-slider-response","692","419766","0.0-4.0-10.78-0.78","","","","Rate your confidence","1",""
"2.899999976158142","e","choice","left","e","experimental","699","421554","0.0-4.0-8.79","true","80","4.15","","",""
"1610.6000000238419","5","confid","","","html-slider-response","701","423671","0.0-4.0-10.79-0.79","","","","Rate your confidence","1",""
"100.59999999403954","e","choice","left","e","experimental","708","425574","0.0-4.0-8.80","true","81","4.15","","",""
"1681.9000000059605","6","confid","","","html-slider-response","710","427761","0.0-4.0-10.80-0.80","","","","Rate your confidence","1",""
"147.90000000596046","e","choice","right","i","experimental","717","429716","0.0-4.0-8.81","false","82","4.050000000000001","","",""
"4319.9000000059605","3","confid","","","html-slider-response","719","434540","0.0-4.0-10.81-0.81","","","","Rate your confidence","1",""
"244.7000000178814","e","choice","left","e","experimental","726","436572","0.0-4.0-8.82","true","83","4.15","","",""
"9743","3","confid","","","html-slider-response","728","446820","0.0-4.0-10.82-0.82","","","","Rate your confidence","1",""
"182.30000001192093","i","choice","right","i","experimental","735","448783","0.0-4.0-8.83","true","84","4.15","","",""
"3075.199999988079","3","confid","","","html-slider-response","737","452362","0.0-4.0-10.83-0.83","","","","Rate your confidence","1",""
"307.69999998807907","e","choice","right","i","experimental","744","454460","0.0-4.0-8.84","false","85","4.050000000000001","","",""
"3378.0999999940395","3","confid","","","html-slider-response","746","458343","0.0-4.0-10.84-0.84","","","","Rate your confidence","1",""
"19.5","e","choice","left","e","experimental","753","460154","0.0-4.0-8.85","true","86","4.15","","",""
"1601.4000000059605","3","confid","","","html-slider-response","755","462260","0.0-4.0-10.85-0.85","","","","Rate your confidence","1",""
"227.59999999403954","e","choice","left","e","experimental","762","464260","0.0-4.0-8.86","true","87","4.15","","",""
"2139.5","6","confid","","","html-slider-response","764","466904","0.0-4.0-10.86-0.86","","","","Rate your confidence","1",""
"299.90000000596046","e","choice","right","i","experimental","771","468991","0.0-4.0-8.87","false","88","4.050000000000001","","",""
"1960.4000000059605","2","confid","","","html-slider-response","773","471455","0.0-4.0-10.87-0.87","","","","Rate your confidence","1",""
"1004.4000000059605","i","choice","right","i","experimental","780","474263","0.0-4.0-8.88","true","89","4.15","","",""
"1615.300000011921","2","confid","","","html-slider-response","782","476384","0.0-4.0-10.88-0.88","","","","Rate your confidence","1",""
"79.90000000596046","e","choice","left","e","experimental","789","478258","0.0-4.0-8.89","true","90","4.15","","",""
"2669.4000000059605","4","confid","","","html-slider-response","791","481434","0.0-4.0-10.89-0.89","","","","Rate your confidence","1",""
"242.60000002384186","e","choice","left","e","experimental","798","483475","0.0-4.0-8.90","true","91","4.050000000000001","","",""
"1572","3","confid","","","html-slider-response","800","485553","0.0-4.0-10.90-0.90","","","","Rate your confidence","1",""
"337.09999999403954","i","choice","right","i","experimental","807","487676","0.0-4.0-8.91","true","92","4.050000000000001","","",""
"2021.5999999940395","3","confid","","","html-slider-response","809","490202","0.0-4.0-10.91-0.91","","","","Rate your confidence","1",""
"426.80000001192093","i","choice","right","i","experimental","816","492411","0.0-4.0-8.92","true","93","3.9500000000000006","","",""
"1724.5999999940395","2","confid","","","html-slider-response","818","494640","0.0-4.0-10.92-0.92","","","","Rate your confidence","1",""
"32.29999998211861","e","choice","left","e","experimental","825","496473","0.0-4.0-8.93","true","94","3.9500000000000006","","",""
"1809.4000000059605","6","confid","","","html-slider-response","827","498786","0.0-4.0-10.93-0.93","","","","Rate your confidence","1",""
"265.90000000596046","i","choice","right","i","experimental","834","500858","0.0-4.0-8.94","true","95","3.8500000000000005","","",""
"3865.2999999821186","3","confid","","","html-slider-response","836","505228","0.0-4.0-10.94-0.94","","","","Rate your confidence","1",""
"294.2999999821186","e","choice","left","e","experimental","843","507327","0.0-4.0-8.95","true","96","3.8500000000000005","","",""
"2659.7999999821186","5","confid","","","html-slider-response","845","510490","0.0-4.0-10.95-0.95","","","","Rate your confidence","1",""
"472.2999999821186","i","choice","right","i","experimental","852","512742","0.0-4.0-8.96","true","97","3.7500000000000004","","",""
"3046.9000000059605","3","confid","","","html-slider-response","854","516293","0.0-4.0-10.96-0.96","","","","Rate your confidence","1",""
"147.7000000178814","e","choice","left","e","experimental","861","518223","0.0-4.0-8.97","true","98","3.7500000000000004","","",""
"1720.9000000059605","6","confid","","","html-slider-response","863","520447","0.0-4.0-10.97-0.97","","","","Rate your confidence","1",""
"948.8999999761581","i","choice","right","i","experimental","870","523202","0.0-4.0-8.98","true","99","3.6500000000000004","","",""
"1739","2","confid","","","html-slider-response","872","525446","0.0-4.0-10.98-0.98","","","","Rate your confidence","1",""
"812.7000000178814","i","choice","left","e","experimental","879","528064","0.0-4.0-8.99","false","100","3.6500000000000004","","",""
"1479","4","confid","","","html-slider-response","881","530049","0.0-4.0-10.99-0.99","","","","Rate your confidence","1",""
"306.30000001192093","e","choice","left","e","experimental","888","532156","0.0-4.0-8.100","true","101","3.7500000000000004","","",""
"1759.699999988079","4","confid","","","html-slider-response","890","534421","0.0-4.0-10.100-0.100","","","","Rate your confidence","1",""
"296.2999999821186","e","choice","right","i","experimental","897","536503","0.0-4.0-8.101","false","102","3.7500000000000004","","",""
"2606.899999976158","3","confid","","","html-slider-response","899","539613","0.0-4.0-10.101-0.101","","","","Rate your confidence","1",""
"96.09999999403954","e","choice","left","e","experimental","906","541504","0.0-4.0-8.102","true","103","3.8500000000000005","","",""
"1833.2999999821186","5","confid","","","html-slider-response","908","543844","0.0-4.0-10.102-0.102","","","","Rate your confidence","1",""
"235.40000000596046","e","choice","right","i","experimental","915","545880","0.0-4.0-8.103","false","104","3.8500000000000005","","",""
"1540.4000000059605","5","confid","","","html-slider-response","917","547925","0.0-4.0-10.103-0.103","","","","Rate your confidence","1",""
"262.90000000596046","e","choice","left","e","experimental","924","549994","0.0-4.0-8.104","true","105","3.9500000000000006","","",""
"2013.4000000059605","5","confid","","","html-slider-response","926","552513","0.0-4.0-10.104-0.104","","","","Rate your confidence","1",""
"289.90000000596046","e","choice","right","i","experimental","933","554602","0.0-4.0-8.105","false","106","3.9500000000000006","","",""
"1528.5","3","confid","","","html-slider-response","935","556636","0.0-4.0-10.105-0.105","","","","Rate your confidence","1",""
"179.7999999821186","e","choice","left","e","experimental","942","558604","0.0-4.0-8.106","true","107","4.050000000000001","","",""
"1426.800000011921","5","confid","","","html-slider-response","944","560533","0.0-4.0-10.106-0.106","","","","Rate your confidence","1",""
"711.5","i","choice","right","i","experimental","951","563058","0.0-4.0-8.107","true","108","4.050000000000001","","",""
"1687.800000011921","3","confid","","","html-slider-response","953","565250","0.0-4.0-10.107-0.107","","","","Rate your confidence","1",""
"152.40000000596046","e","choice","left","e","experimental","960","567178","0.0-4.0-8.108","true","109","3.9500000000000006","","",""
"3331.800000011921","5","confid","","","html-slider-response","962","571015","0.0-4.0-10.108-0.108","","","","Rate your confidence","1",""
"415.7000000178814","i","choice","right","i","experimental","969","573216","0.0-4.0-8.109","true","110","3.9500000000000006","","",""
"1758.9000000059605","3","confid","","","html-slider-response","971","575480","0.0-4.0-10.109-0.109","","","","Rate your confidence","1",""
"79.69999998807907","e","choice","left","e","experimental","979","726540","0.0-4.0-8.110","true","111","3.8500000000000005","","",""
"2592.399999976158","5","confid","","","html-slider-response","981","729637","0.0-4.0-10.110-0.110","","","","Rate your confidence","1",""
"471","i","choice","right","i","experimental","988","731896","0.0-4.0-8.111","true","112","3.8500000000000005","","",""
"3885.0999999940395","3","confid","","","html-slider-response","990","736285","0.0-4.0-10.111-0.111","","","","Rate your confidence","1",""
"161.2999999821186","e","choice","right","i","experimental","997","738252","0.0-4.0-8.112","false","113","3.7500000000000004","","",""
"1527.699999988079","3","confid","","","html-slider-response","999","740282","0.0-4.0-10.112-0.112","","","","Rate your confidence","1",""
"486.59999999403954","e","choice","left","e","experimental","1006","742550","0.0-4.0-8.113","true","114","3.8500000000000005","","",""
"7449.5","5","confid","","","html-slider-response","1008","750505","0.0-4.0-10.113-0.113","","","","Rate your confidence","1",""
"33.89999997615814","e","choice","left","e","experimental","1015","752333","0.0-4.0-8.114","true","115","3.8500000000000005","","",""
"3584.5999999940395","5","confid","","","html-slider-response","1017","756423","0.0-4.0-10.114-0.114","","","","Rate your confidence","1",""
"361.80000001192093","e","choice","right","i","experimental","1024","758578","0.0-4.0-8.115","false","116","3.7500000000000004","","",""
"2537.0999999940395","2","confid","","","html-slider-response","1026","761621","0.0-4.0-10.115-0.115","","","","Rate your confidence","1",""
"210.80000001192093","i","choice","right","i","experimental","1033","763640","0.0-4.0-8.116","true","117","3.8500000000000005","","",""
"1487.800000011921","4","confid","","","html-slider-response","1035","765632","0.0-4.0-10.116-0.116","","","","Rate your confidence","1",""
"552.5","e","choice","left","e","experimental","1042","767997","0.0-4.0-8.117","true","118","3.8500000000000005","","",""
"1575.9000000059605","4","confid","","","html-slider-response","1044","770078","0.0-4.0-10.117-0.117","","","","Rate your confidence","1",""
"191.2000000178814","e","choice","right","i","experimental","1051","772062","0.0-4.0-8.118","false","119","3.7500000000000004","","",""
"1684","3","confid","","","html-slider-response","1053","774252","0.0-4.0-10.118-0.118","","","","Rate your confidence","1",""
"438.5","e","choice","left","e","experimental","1060","776486","0.0-4.0-8.119","true","120","3.8500000000000005","","",""
"1434","4","confid","","","html-slider-response","1062","778426","0.0-4.0-10.119-0.119","","","","Rate your confidence","1",""
"330.5","e","choice","right","i","experimental","1069","780547","0.0-4.0-8.120","false","121","3.8500000000000005","","",""
"2502.5","2","confid","","","html-slider-response","1071","783567","0.0-4.0-10.120-0.120","","","","Rate your confidence","1",""
"159.40000000596046","e","choice","left","e","experimental","1078","785514","0.0-4.0-8.121","true","122","3.9500000000000006","","",""
"2006.5","4","confid","","","html-slider-response","1080","788026","0.0-4.0-10.121-0.121","","","","Rate your confidence","1",""
"214.90000000596046","e","choice","right","i","experimental","1087","790032","0.0-4.0-8.122","false","123","3.9500000000000006","","",""
"2681.0999999940395","3","confid","","","html-slider-response","1089","793218","0.0-4.0-10.122-0.122","","","","Rate your confidence","1",""
"420.40000000596046","e","choice","left","e","experimental","1096","795435","0.0-4.0-8.123","true","124","4.050000000000001","","",""
"1628.4000000059605","5","confid","","","html-slider-response","1098","797569","0.0-4.0-10.123-0.123","","","","Rate your confidence","1",""
"83.2000000178814","e","choice","left","e","experimental","1105","799448","0.0-4.0-8.124","true","125","4.050000000000001","","",""
"2138.4000000059605","4","confid","","","html-slider-response","1107","802093","0.0-4.0-10.124-0.124","","","","Rate your confidence","1",""
"74.5","e","choice","right","i","experimental","1114","803955","0.0-4.0-8.125","false","126","3.9500000000000006","","",""
"2460","3","confid","","","html-slider-response","1116","806920","0.0-4.0-10.125-0.125","","","","Rate your confidence","1",""
"237.89999997615814","e","choice","right","i","experimental","1123","808969","0.0-4.0-8.126","false","127","4.050000000000001","","",""
"2095.800000011921","3","confid","","","html-slider-response","1125","811571","0.0-4.0-10.126-0.126","","","","Rate your confidence","1",""
"642.7000000178814","e","choice","left","e","experimental","1132","814025","0.0-4.0-8.127","true","128","4.15","","",""
"1725.7999999821186","2","confid","","","html-slider-response","1134","816256","0.0-4.0-10.127-0.127","","","","Rate your confidence","1",""
"272.80000001192093","i","choice","right","i","experimental","1141","818326","0.0-4.0-8.128","true","129","4.15","","",""
"2623.9000000059605","4","confid","","","html-slider-response","1143","821455","0.0-4.0-10.128-0.128","","","","Rate your confidence","1",""
"141.09999999403954","e","choice","left","e","experimental","1150","823396","0.0-4.0-8.129","true","130","4.050000000000001","","",""
"1805.2999999821186","5","confid","","","html-slider-response","1152","825707","0.0-4.0-10.129-0.129","","","","Rate your confidence","1",""
"542.0999999940395","e","choice","right","i","experimental","1159","828059","0.0-4.0-8.130","false","131","4.050000000000001","","",""
"2664.800000011921","4","confid","","","html-slider-response","1161","831230","0.0-4.0-10.130-0.130","","","","Rate your confidence","1",""
"222.19999998807907","e","choice","left","e","experimental","1168","833242","0.0-4.0-8.131","true","132","4.15","","",""
"2071.300000011921","6","confid","","","html-slider-response","1170","835818","0.0-4.0-10.131-0.131","","","","Rate your confidence","1",""
"263.5","e","choice","left","e","experimental","1177","837871","0.0-4.0-8.132","true","133","4.15","","",""
"2327.2999999821186","6","confid","","","html-slider-response","1179","840704","0.0-4.0-10.132-0.132","","","","Rate your confidence","1",""
"287.69999998807907","i","choice","right","i","experimental","1186","842787","0.0-4.0-8.133","true","134","4.050000000000001","","",""
"1850","4","confid","","","html-slider-response","1188","845161","0.0-4.0-10.133-0.133","","","","Rate your confidence","1",""
"415","i","choice","right","i","experimental","1195","847371","0.0-4.0-8.134","true","135","4.050000000000001","","",""
"2098.4000000059605","3","confid","","","html-slider-response","1197","849975","0.0-4.0-10.134-0.134","","","","Rate your confidence","1",""
"493.40000000596046","e","choice","left","e","experimental","1204","852262","0.0-4.0-8.135","true","136","3.9500000000000006","","",""
"2846.4000000059605","3","confid","","","html-slider-response","1206","855614","0.0-4.0-10.135-0.135","","","","Rate your confidence","1",""
"894.7000000178814","i","choice","right","i","experimental","1213","858322","0.0-4.0-8.136","true","137","3.9500000000000006","","",""
"28614.5","3","confid","","","html-slider-response","1215","887442","0.0-4.0-10.136-0.136","","","","Rate your confidence","1",""
"328.5","e","choice","left","e","experimental","1222","889593","0.0-4.0-8.137","true","138","3.8500000000000005","","",""
"3261.5","3","confid","","","html-slider-response","1224","893361","0.0-4.0-10.137-0.137","","","","Rate your confidence","1",""
"213.40000000596046","e","choice","left","e","experimental","1231","895368","0.0-4.0-8.138","true","139","3.8500000000000005","","",""
"1702.800000011921","4","confid","","","html-slider-response","1233","897577","0.0-4.0-10.138-0.138","","","","Rate your confidence","1",""
"306.90000000596046","i","choice","right","i","experimental","1240","899691","0.0-4.0-8.139","true","140","3.7500000000000004","","",""
"2276.2999999821186","4","confid","","","html-slider-response","1242","902491","0.0-4.0-10.139-0.139","","","","Rate your confidence","1",""
"140.7000000178814","e","choice","left","e","experimental","1249","904429","0.0-4.0-8.140","true","141","3.7500000000000004","","",""
"2262.800000011921","3","confid","","","html-slider-response","1251","907198","0.0-4.0-10.140-0.140","","","","Rate your confidence","1",""
"254.40000000596046","i","choice","right","i","experimental","1258","909264","0.0-4.0-8.141","true","142","3.6500000000000004","","",""
"4601.300000011921","3","confid","","","html-slider-response","1260","914372","0.0-4.0-10.141-0.141","","","","Rate your confidence","1",""
"517.0999999940395","e","choice","left","e","experimental","1267","916704","0.0-4.0-8.142","true","143","3.6500000000000004","","",""
"2247","3","confid","","","html-slider-response","1269","919456","0.0-4.0-10.142-0.142","","","","Rate your confidence","1",""
"190.2999999821186","i","choice","right","i","experimental","1276","921440","0.0-4.0-8.143","true","144","3.5500000000000003","","",""
"2116.4000000059605","4","confid","","","html-slider-response","1278","924063","0.0-4.0-10.143-0.143","","","","Rate your confidence","1",""
"154.80000001192093","e","choice","right","i","experimental","1285","926017","0.0-4.0-8.144","false","145","3.5500000000000003","","",""
"1876.7999999821186","3","confid","","","html-slider-response","1287","928400","0.0-4.0-10.144-0.144","","","","Rate your confidence","1",""
"149.5","e","choice","left","e","experimental","1294","930356","0.0-4.0-8.145","true","146","3.6500000000000004","","",""
"1382.7000000178814","3","confid","","","html-slider-response","1296","932246","0.0-4.0-10.145-0.145","","","","Rate your confidence","1",""
"304.7999999821186","i","choice","right","i","experimental","1303","934345","0.0-4.0-8.146","true","147","3.6500000000000004","","",""
"3112.800000011921","3","confid","","","html-slider-response","1305","937963","0.0-4.0-10.146-0.146","","","","Rate your confidence","1",""
"188.7000000178814","e","choice","left","e","experimental","1312","939949","0.0-4.0-8.147","true","148","3.5500000000000003","","",""
"1587.300000011921","4","confid","","","html-slider-response","1314","942042","0.0-4.0-10.147-0.147","","","","Rate your confidence","1",""
"121.90000000596046","e","choice","left","e","experimental","1321","943975","0.0-4.0-8.148","true","149","3.5500000000000003","","",""
"3671.5","5","confid","","","html-slider-response","1323","948151","0.0-4.0-10.148-0.148","","","","Rate your confidence","1",""
"44.599999994039536","e","choice","right","i","experimental","1330","950002","0.0-4.0-8.149","false","150","3.45","","",""
"1639.9000000059605","5","confid","","","html-slider-response","1332","952148","0.0-4.0-10.149-0.149","","","","Rate your confidence","1",""
"194.40000000596046","e","choice","right","i","experimental","1339","954141","0.0-4.0-8.150","false","151","3.5500000000000003","","",""
"2149.199999988079","4","confid","","","html-slider-response","1341","956818","0.0-4.0-10.150-0.150","","","","Rate your confidence","1",""
"571.5","e","choice","left","e","experimental","1348","959181","0.0-4.0-8.151","true","152","3.6500000000000004","","",""
"1849.9000000059605","5","confid","","","html-slider-response","1350","961538","0.0-4.0-10.151-0.151","","","","Rate your confidence","1",""
"32.69999998807907","i","choice","right","i","experimental","1358","965345","0.0-4.0-8.152","true","153","3.6500000000000004","","",""
"2321.5999999940395","3","confid","","","html-slider-response","1360","968172","0.0-4.0-10.152-0.152","","","","Rate your confidence","1",""
"4.700000017881393","e","choice","left","e","experimental","1367","969991","0.0-4.0-8.153","true","154","3.5500000000000003","","",""
"1452.9000000059605","4","confid","","","html-slider-response","1369","971948","0.0-4.0-10.153-0.153","","","","Rate your confidence","1",""
"142","e","choice","right","i","experimental","1376","973886","0.0-4.0-8.154","false","155","3.5500000000000003","","",""
"1500.9000000059605","3","confid","","","html-slider-response","1378","975893","0.0-4.0-10.154-0.154","","","","Rate your confidence","1",""
"528.1999999880791","e","choice","left","e","experimental","1385","978218","0.0-4.0-8.155","true","156","3.6500000000000004","","",""
"1867.5999999940395","3","confid","","","html-slider-response","1387","980592","0.0-4.0-10.155-0.155","","","","Rate your confidence","1",""
"292.09999999403954","e","choice","left","e","experimental","1394","982694","0.0-4.0-8.156","true","157","3.6500000000000004","","",""
"2017.0999999940395","3","confid","","","html-slider-response","1396","985235","0.0-4.0-10.156-0.156","","","","Rate your confidence","1",""
"145.59999999403954","e","choice","right","i","experimental","1403","987179","0.0-4.0-8.157","false","158","3.5500000000000003","","",""
"2165.5999999940395","4","confid","","","html-slider-response","1405","989850","0.0-4.0-10.157-0.157","","","","Rate your confidence","1",""
"247.2000000178814","e","choice","right","i","experimental","1412","991900","0.0-4.0-8.158","false","159","3.6500000000000004","","",""
"1402.8999999761581","5","confid","","","html-slider-response","1414","993810","0.0-4.0-10.158-0.158","","","","Rate your confidence","1",""
"254.90000000596046","e","choice","left","e","experimental","1421","995871","0.0-4.0-8.159","true","160","3.7500000000000004","","",""
"1968.199999988079","6","confid","","","html-slider-response","1423","998346","0.0-4.0-10.159-0.159","","","","Rate your confidence","1",""
"243.2000000178814","e","choice","right","i","experimental","1430","1000381","0.0-4.0-8.160","false","161","3.7500000000000004","","",""
"2058.2000000178814","5","confid","","","html-slider-response","1432","1002946","0.0-4.0-10.160-0.160","","","","Rate your confidence","1",""
"345.69999998807907","e","choice","left","e","experimental","1439","1005089","0.0-4.0-8.161","true","162","3.8500000000000005","","",""
"2142.899999976158","4","confid","","","html-slider-response","1441","1007738","0.0-4.0-10.161-0.161","","","","Rate your confidence","1",""
"116.59999999403954","e","choice","right","i","experimental","1448","1009654","0.0-4.0-8.162","false","163","3.8500000000000005","","",""
"1513","5","confid","","","html-slider-response","1450","1011669","0.0-4.0-10.162-0.162","","","","Rate your confidence","1",""
"246.40000000596046","e","choice","left","e","experimental","1457","1013704","0.0-4.0-8.163","true","164","3.9500000000000006","","",""
"1689.7000000178814","3","confid","","","html-slider-response","1459","1015898","0.0-4.0-10.163-0.163","","","","Rate your confidence","1",""
"240.90000000596046","e","choice","right","i","experimental","1466","1017931","0.0-4.0-8.164","false","165","3.9500000000000006","","",""
"2454.4000000059605","5","confid","","","html-slider-response","1468","1020891","0.0-4.0-10.164-0.164","","","","Rate your confidence","1",""
"110.90000000596046","e","choice","left","e","experimental","1475","1022810","0.0-4.0-8.165","true","166","4.050000000000001","","",""
"1657.6000000238419","4","confid","","","html-slider-response","1477","1024973","0.0-4.0-10.165-0.165","","","","Rate your confidence","1",""
"130.2000000178814","e","choice","right","i","experimental","1484","1026899","0.0-4.0-8.166","false","167","4.050000000000001","","",""
"3953.800000011921","3","confid","","","html-slider-response","1486","1031377","0.0-4.0-10.166-0.166","","","","Rate your confidence","1",""
"76","e","choice","left","e","experimental","1493","1033246","0.0-4.0-8.167","true","168","4.15","","",""
"1920.2999999821186","5","confid","","","html-slider-response","1495","1035672","0.0-4.0-10.167-0.167","","","","Rate your confidence","1",""
"204.90000000596046","e","choice","left","e","experimental","1502","1037670","0.0-4.0-8.168","true","169","4.15","","",""
"2045.9000000059605","6","confid","","","html-slider-response","1504","1040222","0.0-4.0-10.168-0.168","","","","Rate your confidence","1",""
"403.5","e","choice","right","i","experimental","1511","1042438","0.0-4.0-8.169","false","170","4.050000000000001","","",""
"1864","3","confid","","","html-slider-response","1513","1044807","0.0-4.0-10.169-0.169","","","","Rate your confidence","1",""
"264.80000001192093","e","choice","right","i","experimental","1520","1046889","0.0-4.0-8.170","false","171","4.15","","",""
"1585.699999988079","3","confid","","","html-slider-response","1522","1048981","0.0-4.0-10.170-0.170","","","","Rate your confidence","1",""
"117.19999998807907","e","choice","left","e","experimental","1529","1050892","0.0-4.0-8.171","true","172","4.25","","",""
"3193.199999988079","4","confid","","","html-slider-response","1531","1054591","0.0-4.0-10.171-0.171","","","","Rate your confidence","1",""
"380.30000001192093","e","choice","right","i","experimental","1538","1056763","0.0-4.0-8.172","false","173","4.25","","",""
"1700.2000000178814","2","confid","","","html-slider-response","1540","1058969","0.0-4.0-10.172-0.172","","","","Rate your confidence","1",""
"331","e","choice","left","e","experimental","1547","1061101","0.0-4.0-8.173","true","174","4.35","","",""
"1663.5","5","confid","","","html-slider-response","1549","1063270","0.0-4.0-10.173-0.173","","","","Rate your confidence","1",""
"262.30000001192093","e","choice","left","e","experimental","1556","1065348","0.0-4.0-8.174","true","175","4.35","","",""
"1761.4000000059605","6","confid","","","html-slider-response","1558","1067616","0.0-4.0-10.174-0.174","","","","Rate your confidence","1",""
"439.40000000596046","i","choice","right","i","experimental","1565","1069877","0.0-4.0-8.175","true","176","4.25","","",""
"3629.699999988079","2","confid","","","html-slider-response","1567","1074012","0.0-4.0-10.175-0.175","","","","Rate your confidence","1",""
"142.7000000178814","e","choice","left","e","experimental","1574","1075964","0.0-4.0-8.176","true","177","4.25","","",""
"2477.5999999940395","4","confid","","","html-slider-response","1576","1078947","0.0-4.0-10.176-0.176","","","","Rate your confidence","1",""
"518.6999999880791","e","choice","right","i","experimental","1583","1081255","0.0-4.0-8.177","false","178","4.15","","",""
"2016.7999999821186","2","confid","","","html-slider-response","1585","1083797","0.0-4.0-10.177-0.177","","","","Rate your confidence","1",""
"263.80000001192093","i","choice","left","e","experimental","1592","1085854","0.0-4.0-8.178","false","179","4.25","","",""
"2476.4000000059605","2","confid","","","html-slider-response","1594","1088837","0.0-4.0-10.178-0.178","","","","Rate your confidence","1",""
"149.69999998807907","i","choice","right","i","experimental","1601","1090783","0.0-4.0-8.179","true","180","4.35","","",""
"1755.6000000238419","5","confid","","","html-slider-response","1603","1093045","0.0-4.0-10.179-0.179","","","","Rate your confidence","1",""
"448.59999999403954","e","choice","left","e","experimental","1610","1095303","0.0-4.0-8.180","true","181","4.35","","",""
"1487.199999988079","5","confid","","","html-slider-response","1612","1097296","0.0-4.0-10.180-0.180","","","","Rate your confidence","1",""
"72.19999998807907","i","choice","right","i","experimental","1619","1099179","0.0-4.0-8.181","true","182","4.25","","",""
"1544.4000000059605","4","confid","","","html-slider-response","1621","1101229","0.0-4.0-10.181-0.181","","","","Rate your confidence","1",""
"156.69999998807907","i","choice","right","i","experimental","1628","1103202","0.0-4.0-8.182","true","183","4.25","","",""
"2808.5999999940395","4","confid","","","html-slider-response","1630","1106517","0.0-4.0-10.182-0.182","","","","Rate your confidence","1",""
"211.90000000596046","e","choice","left","e","experimental","1637","1108525","0.0-4.0-8.183","true","184","4.15","","",""
"2841.199999988079","4","confid","","","html-slider-response","1639","1111891","0.0-4.0-10.183-0.183","","","","Rate your confidence","1",""
"670.9000000059605","i","choice","right","i","experimental","1646","1114359","0.0-4.0-8.184","true","185","4.15","","",""
"2138.5999999940395","5","confid","","","html-slider-response","1648","1117003","0.0-4.0-10.184-0.184","","","","Rate your confidence","1",""
"27.799999982118607","e","choice","left","e","experimental","1655","1118844","0.0-4.0-8.185","true","186","4.050000000000001","","",""
"1506.300000011921","3","confid","","","html-slider-response","1657","1120857","0.0-4.0-10.185-0.185","","","","Rate your confidence","1",""
"128","e","choice","left","e","experimental","1664","1122782","0.0-4.0-8.186","true","187","4.050000000000001","","",""
"1613.199999988079","5","confid","","","html-slider-response","1666","1124900","0.0-4.0-10.186-0.186","","","","Rate your confidence","1",""
"344.69999998807907","e","choice","right","i","experimental","1673","1127042","0.0-4.0-8.187","false","188","3.9500000000000006","","",""
"1808.9000000059605","2","confid","","","html-slider-response","1675","1129357","0.0-4.0-10.187-0.187","","","","Rate your confidence","1",""
"166.39999997615814","i","choice","right","i","experimental","1682","1131320","0.0-4.0-8.188","true","189","4.050000000000001","","",""
"2571.300000011921","4","confid","","","html-slider-response","1684","1134398","0.0-4.0-10.188-0.188","","","","Rate your confidence","1",""
"94.30000001192093","e","choice","left","e","experimental","1691","1136288","0.0-4.0-8.189","true","190","4.050000000000001","","",""
"3847.699999988079","5","confid","","","html-slider-response","1693","1140640","0.0-4.0-10.189-0.189","","","","Rate your confidence","1",""
"257.80000001192093","e","choice","left","e","experimental","1700","1142690","0.0-4.0-8.190","true","191","3.9500000000000006","","",""
"2860.199999988079","5","confid","","","html-slider-response","1702","1146057","0.0-4.0-10.190-0.190","","","","Rate your confidence","1",""
"256.5","i","choice","right","i","experimental","1709","1148128","0.0-4.0-8.191","true","192","3.9500000000000006","","",""
"2462.300000011921","4","confid","","","html-slider-response","1711","1151097","0.0-4.0-10.191-0.191","","","","Rate your confidence","1",""
"395.7000000178814","i","choice","right","i","experimental","1718","1153289","0.0-4.0-8.192","true","193","3.8500000000000005","","",""
"1843.9000000059605","2","confid","","","html-slider-response","1720","1155640","0.0-4.0-10.192-0.192","","","","Rate your confidence","1",""
"291.7999999821186","e","choice","left","e","experimental","1727","1157731","0.0-4.0-8.193","true","194","3.8500000000000005","","",""
"1858","2","confid","","","html-slider-response","1729","1160112","0.0-4.0-10.193-0.193","","","","Rate your confidence","1","75800"
