"rt","response","task","target_side","correct_response","trial_type","trial_index","time_elapsed","internal_node_id","correct","trial_number","n_dots","stimulus","slider_start","participant"
"9242.29999999702","i","choice","right","i","practice","10","56909","0.0-4.0-8.0","true","1","4.25","","",""
"263.30000001192093","e","choice","left","e","practice","18","59509","0.0-4.0-8.1","true","2","4.25","","",""
"581.2999999970198","e","choice","left","e","practice","26","62397","0.0-4.0-8.2","true","3","3.85","","",""
"882.7999999970198","i","choice","right","i","practice","34","65582","0.0-4.0-8.3","true","4","3.85","","",""
"567.8999999910593","i","choice","right","i","practice","42","68467","0.0-4.0-8.4","true","5","3.45","","",""
"430.40000000596046","e","choice","left","e","practice","50","71181","0.0-4.0-8.5","true","6","3.45","","",""
"535.2999999970198","e","choice","right","i","practice","58","74032","0.0-4.0-8.6","false","7","3.25","","",""
"259.30000001192093","e","choice","left","e","practice","66","76615","0.0-4.0-8.7","true","8","3.45","","",""
"1058","i","choice","right","i","practice","74","79973","0.0-4.0-8.8","true","9","3.45","","",""
"396.90000000596046","e","choice","left","e","practice","82","82694","0.0-4.0-8.9","true","10","3.25","","",""
"1706.4000000059605","e","choice","left","e","practice","90","86725","0.0-4.0-8.10","true","11","3.25","","",""
"613.1999999880791","i","choice","right","i","practice","98","89628","0.0-4.0-8.11","true","12","3.15","","",""
"850.1000000089407","e","choice","right","i","practice","106","92781","0.0-4.0-8.12","false","13","3.15","","",""
"499.09999999403954","e","choice","left","e","practice","114","95584","0.0-4.0-8.13","true","14","3.25","","",""
"794.5","e","choice","right","i","practice","122","98702","0.0-4.0-8.14","false","15","3.25","","",""
"561.3999999910593","e","choice","left","e","practice","130","101613","0.0-4.0-8.15","true","16","3.35","","",""
"570.3000000119209","i","choice","right","i","practice","138","104470","0.0-4.0-8.16","true","17","3.35","","",""
"482.3999999910593","e","choice","left","e","practice","146","107247","0.0-4.0-8.17","true","18","3.25","","",""
"317.79999999701977","e","choice","left","e","practice","154","109912","0.0-4.0-8.18","true","19","3.25","","",""
"383.29999999701977","e","choice","right","i","practice","162","112629","0.0-4.0-8.19","false","20","3.15","","",""
"533.7999999970198","e","choice","right","i","practice","170","115478","0.0-4.0-8.20","false","21","3.25","","",""
"604.2999999970198","e","choice","left","e","practice","178","118407","0.0-4.0-8.21","true","22","3.35","","",""
"672.0999999940395","i","choice","right","i","practice","186","121391","0.0-4.0-8.22","true","23","3.35","","",""
"266.90000000596046","e","choice","left","e","practice","194","123973","0.0-4.0-8.23","true","24","3.25","","",""
"545.2999999970198","e","choice","right","i","practice","202","126861","0.0-4.0-8.24","false","25","3.25","","",""
"576.3000000119209","e","choice","left","e","practice","210","129750","0.0-4.0-8.25","true","26","3.35","","",""
"1024.300000011921","e","choice","left","e","experimental","221","165613","0.0-4.0-8.26","true","27","3.35","","",""
"4778.20000000298","5","confid","","","html-slider-response","223","170895","0.0-4.0-10.26-0.26","","","","Rate your confidence","1",""
"597.3000000119209","i","choice","right","i","experimental","230","173326","0.0-4.0-8.27","true","28","3.25","","",""
"2723.5","4","confid","","","html-slider-response","232","176555","0.0-4.0-10.27-0.27","","","","Rate your confidence","1",""
"838.2000000029802","i","choice","right","i","experimental","239","179215","0.0-4.0-8.28","true","29","3.25","","",""
"2715.5","3","confid","","","html-slider-response","241","182435","0.0-4.0-10.28-0.28","","","","Rate your confidence","1",""
"1019.2000000029802","e","choice","left","e","experimental","248","185244","0.0-4.0-8.29","true","30","3.15","","",""
"3231.2999999970198","5","confid","","","html-slider-response","250","188979","0.0-4.0-10.29-0.29","","","","Rate your confidence","1",""
"794.1000000089407","e","choice","left","e","experimental","257","191581","0.0-4.0-8.30","true","31","3.15","","",""
"2452.2000000029802","5","confid","","","html-slider-response","259","194539","0.0-4.0-10.30-0.30","","","","Rate your confidence","1",""
"556.2999999970198","i","choice","right","i","experimental","266","196908","0.0-4.0-8.31","true","32","3.05","","",""
"2231.2000000029802","4","confid","","","html-slider-response","268","199643","0.0-4.0-10.31-0.31","","","","Rate your confidence","1",""
"563","e","choice","right","i","experimental","275","201990","0.0-4.0-8.32","false","33","3.05","","",""
"2228.0999999940395","3","confid","","","html-slider-response","277","204723","0.0-4.0-10.32-0.32","","","","Rate your confidence","1",""
"1078.5","i","choice","left","e","experimental","284","207615","0.0-4.0-8.33","false","34","3.15","","",""
"2095.4000000059605","3","confid","","","html-slider-response","286","210215","0.0-4.0-10.33-0.33","","","","Rate your confidence","1",""
"533.9000000059605","e","choice","left","e","experimental","293","212589","0.0-4.0-8.34","true","35","3.25","","",""
"2198.5","4","confid","","","html-slider-response","295","215291","0.0-4.0-10.34-0.34","","","","Rate your confidence","1",""
"1108.7999999970198","i","choice","right","i","experimental","302","218247","0.0-4.0-8.35","true","36","3.25","","",""
"3011.5","3","confid","","","html-slider-response","304","221763","0.0-4.0-10.35-0.35","","","","Rate your confidence","1",""
"686.7000000029802","e","choice","right","i","experimental","311","224254","0.0-4.0-8.36","false","37","3.15","","",""
"2271.7000000029802","3","confid","","","html-slider-response","313","227035","0.0-4.0-10.36-0.36","","","","Rate your confidence","1",""
"1155","e","choice","left","e","experimental","320","229987","0.0-4.0-8.37","true","38","3.25","","",""
"2166.1000000089407","3","confid","","","html-slider-response","322","232655","0.0-4.0-10.37-0.37","","","","Rate your confidence","1",""
"463.59999999403954","i","choice","right","i","experimental","329","234926","0.0-4.0-8.38","true","39","3.25","","",""
"2292.5","4","confid","","","html-slider-response","331","237731","0.0-4.0-10.38-0.38","","","","Rate your confidence","1",""
"767.4000000059605","e","choice","left","e","experimental","338","240296","0.0-4.0-8.39","true","40","3.15","","",""
"2366.8999999910593","3","confid","","","html-slider-response","340","243174","0.0-4.0-10.39-0.39","","","","Rate your confidence","1",""
"582.6000000089407","e","choice","right","i","experimental","347","245539","0.0-4.0-8.40","false","41","3.15","","",""
"1879.5","4","confid","","","html-slider-response","349","247923","0.0-4.0-10.40-0.40","","","","Rate your confidence","1",""
"1350.5","e","choice","left","e","experimental","356","251063","0.0-4.0-8.41","true","42","3.25","","",""
"2378.699999988079","4","confid","","","html-slider-response","358","253947","0.0-4.0-10.41-0.41","","","","Rate your confidence","1",""
"507.70000000298023","e","choice","left","e","experimental","365","256253","0.0-4.0-8.42","true","43","3.25","","",""
"2554.7999999970198","4","confid","","","html-slider-response","367","259322","0.0-4.0-10.42-0.42","","","","Rate your confidence","1",""
"1230","e","choice","right","i","experimental","374","262367","0.0-4.0-8.43","false","44","3.15","","",""
"2668.3999999910593","3","confid","","","html-slider-response","376","265542","0.0-4.0-10.43-0.43","","","","Rate your confidence","1",""
"1010","e","choice","right","i","experimental","383","268374","0.0-4.0-8.44","false","45","3.25","","",""
"2695.7000000029802","4","confid","","","html-slider-response","385","271574","0.0-4.0-10.44-0.44","","","","Rate your confidence","1",""
"767.1000000089407","e","choice","left","e","experimental","392","274126","0.0-4.0-8.45","true","46","3.35","","",""
"2368.5","4","confid","","","html-slider-response","394","277011","0.0-4.0-10.45-0.45","","","","Rate your confidence","1",""
"567.5999999940395","e","choice","left","e","experimental","401","279412","0.0-4.0-8.46","true","47","3.35","","",""
"2017.6000000089407","4","confid","","","html-slider-response","403","281935","0.0-4.0-10.46-0.46","","","","Rate your confidence","1",""
"1937.2000000029802","i","choice","right","i","experimental","410","285687","0.0-4.0-8.47","true","48","3.25","","",""
"2394.0999999940395","4","confid","","","html-slider-response","412","288586","0.0-4.0-10.47-0.47","","","","Rate your confidence","1",""
"450.90000000596046","e","choice","left","e","experimental","419","290827","0.0-4.0-8.48","true","49","3.25","","",""
"2270.2000000029802","4","confid","","","html-slider-response","421","293602","0.0-4.0-10.48-0.48","","","","Rate your confidence","1",""
"940.2000000029802","i","choice","right","i","experimental","428","296333","0.0-4.0-8.49","true","50","3.15","","",""
"2219.1000000089407","4","confid","","","html-slider-response","430","299066","0.0-4.0-10.49-0.49","","","","Rate your confidence","1",""
"1010.2999999970198","i","choice","right","i","experimental","437","301869","0.0-4.0-8.50","true","51","3.15","","",""
"2264.2999999970198","4","confid","","","html-slider-response","439","304647","0.0-4.0-10.50-0.50","","","","Rate your confidence","1",""
"1112","e","choice","left","e","experimental","446","307595","0.0-4.0-8.51","true","52","3.05","","",""
"2452.5","4","confid","","","html-slider-response","448","310551","0.0-4.0-10.51-0.51","","","","Rate your confidence","1",""
"949.5999999940395","i","choice","right","i","experimental","455","313317","0.0-4.0-8.52","true","53","3.05","","",""
"2729.7000000029802","3","confid","","","html-slider-response","457","316550","0.0-4.0-10.52-0.52","","","","Rate your confidence","1",""
"814","e","choice","left","e","experimental","464","319182","0.0-4.0-8.53","true","54","2.9499999999999997","","",""
"2390.300000011921","4","confid","","","html-slider-response","466","322078","0.0-4.0-10.53-0.53","","","","Rate your confidence","1",""
"618.0999999940395","i","choice","right","i","experimental","473","324485","0.0-4.0-8.54","true","55","2.9499999999999997","","",""
"2638","4","confid","","","html-slider-response","475","327638","0.0-4.0-10.54-0.54","","","","Rate your confidence","1",""
"493","e","choice","left","e","experimental","482","329941","0.0-4.0-8.55","true","56","2.8499999999999996","","",""
"2176.6000000089407","4","confid","","","html-slider-response","484","332623","0.0-4.0-10.55-0.55","","","","Rate your confidence","1",""
"229.79999999701977","e","choice","left","e","experimental","491","334682","0.0-4.0-8.56","true","57","2.8499999999999996","","",""
"3057.2999999970198","5","confid","","","html-slider-response","493","338243","0.0-4.0-10.56-0.56","","","","Rate your confidence","1",""
"551.8999999910593","i","choice","right","i","experimental","500","340621","0.0-4.0-8.57","true","58","2.7499999999999996","","",""
"2896.2999999970198","4","confid","","","html-slider-response","502","344022","0.0-4.0-10.57-0.57","","","","Rate your confidence","1",""
"1257.7000000029802","i","choice","right","i","experimental","509","347125","0.0-4.0-8.58","true","59","2.7499999999999996","","",""
"2747.7999999970198","4","confid","","","html-slider-response","511","350378","0.0-4.0-10.58-0.58","","","","Rate your confidence","1",""
"603.1999999880791","e","choice","left","e","experimental","518","352782","0.0-4.0-8.59","true","60","2.6499999999999995","","",""
"3190.4000000059605","5","confid","","","html-slider-response","520","356486","0.0-4.0-10.59-0.59","","","","Rate your confidence","1",""
"564.5","i","choice","right","i","experimental","527","358845","0.0-4.0-8.60","true","61","2.6499999999999995","","",""
"2093","4","confid","","","html-slider-response","529","361442","0.0-4.0-10.60-0.60","","","","Rate your confidence","1",""
"663.9000000059605","e","choice","left","e","experimental","536","363911","0.0-4.0-8.61","true","62","2.5499999999999994","","",""
"3523.2999999970198","5","confid","","","html-slider-response","538","367947","0.0-4.0-10.61-0.61","","","","Rate your confidence","1",""
"709.8999999910593","e","choice","right","i","experimental","545","370445","0.0-4.0-8.62","false","63","2.5499999999999994","","",""
"2225.7000000029802","4","confid","","","html-slider-response","547","373175","0.0-4.0-10.62-0.62","","","","Rate your confidence","1",""
"735","e","choice","left","e","experimental","554","375725","0.0-4.0-8.63","true","64","2.6499999999999995","","",""
"2324.2999999970198","5","confid","","","html-slider-response","556","378567","0.0-4.0-10.63-0.63","","","","Rate your confidence","1",""
"680.9000000059605","i","choice","left","e","experimental","563","381046","0.0-4.0-8.64","false","65","2.6499999999999995","","",""
"3096.2999999970198","3","confid","","","html-slider-response","565","384647","0.0-4.0-10.64-0.64","","","","Rate your confidence","1",""
"659.3999999910593","e","choice","right","i","experimental","572","387144","0.0-4.0-8.65","false","66","2.7499999999999996","","",""
"2886.5999999940395","3","confid","","","html-slider-response","574","390535","0.0-4.0-10.65-0.65","","","","Rate your confidence","1",""
"476.79999999701977","e","choice","left","e","experimental","581","392812","0.0-4.0-8.66","true","67","2.8499999999999996","","",""
"2235.2999999970198","4","confid","","","html-slider-response","583","395551","0.0-4.0-10.66-0.66","","","","Rate your confidence","1",""
"1644.7999999970198","e","choice","right","i","experimental","590","399050","0.0-4.0-8.67","false","68","2.8499999999999996","","",""
"4768.5","3","confid","","","html-slider-response","592","404323","0.0-4.0-10.67-0.67","","","","Rate your confidence","1",""
"745","e","choice","right","i","experimental","600","426637","0.0-4.0-8.68","false","69","2.9499999999999997","","",""
"2305.7999999970198","3","confid","","","html-slider-response","602","429447","0.0-4.0-10.68-0.68","","","","Rate your confidence","1",""
"1387.0999999940395","e","choice","left","e","experimental","609","432654","0.0-4.0-8.69","true","70","3.05","","",""
"3752.9000000059605","3","confid","","","html-slider-response","611","436919","0.0-4.0-10.69-0.69","","","","Rate your confidence","1",""
"580.7999999970198","e","choice","left","e","experimental","618","439301","0.0-4.0-8.70","true","71","3.05","","",""
"2300.5999999940395","4","confid","","","html-slider-response","620","442107","0.0-4.0-10.70-0.70","","","","Rate your confidence","1",""
"1941.7000000029802","i","choice","right","i","experimental","627","445848","0.0-4.0-8.71","true","72","2.9499999999999997","","",""
"2130.2000000029802","3","confid","","","html-slider-response","629","448483","0.0-4.0-10.71-0.71","","","","Rate your confidence","1",""
"1881","e","choice","right","i","experimental","636","452198","0.0-4.0-8.72","false","73","2.9499999999999997","","",""
"2025","4","confid","","","html-slider-response","638","454728","0.0-4.0-10.72-0.72","","","","Rate your confidence","1",""
"1309.9000000059605","e","choice","left","e","experimental","645","457831","0.0-4.0-8.73","true","74","3.05","","",""
"2651.6000000089407","3","confid","","","html-slider-response","647","460987","0.0-4.0-10.73-0.73","","","","Rate your confidence","1",""
"440.90000000596046","i","choice","right","i","experimental","654","463214","0.0-4.0-8.74","true","75","3.05","","",""
"3092.8999999910593","5","confid","","","html-slider-response","656","466815","0.0-4.0-10.74-0.74","","","","Rate your confidence","1",""
"1856.0999999940395","e","choice","left","e","experimental","663","470471","0.0-4.0-8.75","true","76","2.9499999999999997","","",""
"2226.5","4","confid","","","html-slider-response","665","473203","0.0-4.0-10.75-0.75","","","","Rate your confidence","1",""
"1008.5","e","choice","left","e","experimental","672","476019","0.0-4.0-8.76","true","77","2.9499999999999997","","",""
"2351.7000000029802","4","confid","","","html-slider-response","674","478887","0.0-4.0-10.76-0.76","","","","Rate your confidence","1",""
"1763.0999999940395","e","choice","right","i","experimental","681","482480","0.0-4.0-8.77","false","78","2.8499999999999996","","",""
"2534.6000000089407","4","confid","","","html-slider-response","683","485519","0.0-4.0-10.77-0.77","","","","Rate your confidence","1",""
"414.59999999403954","i","choice","right","i","experimental","690","487764","0.0-4.0-8.78","true","79","2.9499999999999997","","",""
"3824.2999999970198","5","confid","","","html-slider-response","692","492094","0.0-4.0-10.78-0.78","","","","Rate your confidence","1",""
"1007.7999999970198","e","choice","left","e","experimental","699","494899","0.0-4.0-8.79","true","80","2.9499999999999997","","",""
"2708.0999999940395","4","confid","","","html-slider-response","701","498110","0.0-4.0-10.79-0.79","","","","Rate your confidence","1",""
"904","i","choice","right","i","experimental","708","500805","0.0-4.0-8.80","true","81","2.8499999999999996","","",""
"2193.4000000059605","3","confid","","","html-slider-response","710","503502","0.0-4.0-10.80-0.80","","","","Rate your confidence","1",""
"461.79999999701977","e","choice","left","e","experimental","717","505757","0.0-4.0-8.81","true","82","2.8499999999999996","","",""
"3777.4000000059605","4","confid","","","html-slider-response","719","510039","0.0-4.0-10.81-0.81","","","","Rate your confidence","1",""
"914.7000000029802","i","choice","right","i","experimental","726","512779","0.0-4.0-8.82","true","83","2.7499999999999996","","",""
"2924.2999999970198","4","confid","","","html-slider-response","728","516206","0.0-4.0-10.82-0.82","","","","Rate your confidence","1",""
"868.6000000089407","e","choice","left","e","experimental","735","518899","0.0-4.0-8.83","true","84","2.7499999999999996","","",""
"2443.5","4","confid","","","html-slider-response","737","521846","0.0-4.0-10.83-0.83","","","","Rate your confidence","1",""
"687.8999999910593","i","choice","right","i","experimental","744","524341","0.0-4.0-8.84","true","85","2.6499999999999995","","",""
"2608.699999988079","4","confid","","","html-slider-response","746","527454","0.0-4.0-10.84-0.84","","","","Rate your confidence","1",""
"693.6999999880791","e","choice","left","e","experimental","753","529982","0.0-4.0-8.85","true","86","2.6499999999999995","","",""
"2960","4","confid","","","html-slider-response","755","533446","0.0-4.0-10.85-0.85","","","","Rate your confidence","1",""
"938.7999999970198","e","choice","left","e","experimental","762","536229","0.0-4.0-8.86","true","87","2.5499999999999994","","",""
"2737.3999999910593","4","confid","","","html-slider-response","764","539471","0.0-4.0-10.86-0.86","","","","Rate your confidence","1",""
"888.2999999970198","i","choice","right","i","experimental","771","542190","0.0-4.0-8.87","true","88","2.5499999999999994","","",""
"2385.2000000029802","4","confid","","","html-slider-response","773","545087","0.0-4.0-10.87-0.87","","","","Rate your confidence","1",""
"1507.800000011921","i","choice","right","i","experimental","780","548406","0.0-4.0-8.88","true","89","2.4499999999999993","","",""
"2077.800000011921","4","confid","","","html-slider-response","782","550998","0.0-4.0-10.88-0.88","","","","Rate your confidence","1",""
"821.1000000089407","e","choice","left","e","experimental","789","553611","0.0-4.0-8.89","true","90","2.4499999999999993","","",""
"2475.5999999940395","4","confid","","","html-slider-response","791","556590","0.0-4.0-10.89-0.89","","","","Rate your confidence","1",""
"424.20000000298023","e","choice","right","i","experimental","798","558827","0.0-4.0-8.90","false","91","2.349999999999999","","",""
"2339.7000000029802","4","confid","","","html-slider-response","800","561671","0.0-4.0-10.90-0.90","","","","Rate your confidence","1",""
"1413.9000000059605","e","choice","left","e","experimental","807","564878","0.0-4.0-8.91","true","92","2.4499999999999993","","",""
"2311.6000000089407","4","confid","","","html-slider-response","809","567695","0.0-4.0-10.91-0.91","","","","Rate your confidence","1",""
"2732.0999999940395","e","choice","right","i","experimental","816","572246","0.0-4.0-8.92","false","93","2.4499999999999993","","",""
"2908.5","3","confid","","","html-slider-response","818","575659","0.0-4.0-10.92-0.92","","","","Rate your confidence","1",""
"1029.199999988079","e","choice","left","e","experimental","825","578484","0.0-4.0-8.93","true","94","2.5499999999999994","","",""
"1939.5999999940395","3","confid","","","html-slider-response","827","580942","0.0-4.0-10.93-0.93","","","","Rate your confidence","1",""
"860","e","choice","right","i","experimental","834","583589","0.0-4.0-8.94","false","95","2.5499999999999994","","",""
"1943","3","confid","","","html-slider-response","836","586047","0.0-4.0-10.94-0.94","","","","Rate your confidence","1",""
"811.5999999940395","e","choice","left","e","experimental","843","588648","0.0-4.0-8.95","true","96","2.6499999999999995","","",""
"2645","3","confid","","","html-slider-response","845","591798","0.0-4.0-10.95-0.95","","","","Rate your confidence","1",""
"847.9000000059605","i","choice","right","i","experimental","852","594462","0.0-4.0-8.96","true","97","2.6499999999999995","","",""
"2769","3","confid","","","html-slider-response","854","597743","0.0-4.0-10.96-0.96","","","","Rate your confidence","1",""
"1012.7000000029802","e","choice","left","e","experimental","861","600620","0.0-4.0-8.97","true","98","2.5499999999999994","","",""
"2155.800000011921","3","confid","","","html-slider-response","863","603279","0.0-4.0-10.97-0.97","","","","Rate your confidence","1",""
"764.5","e","choice","right","i","experimental","870","605861","0.0-4.0-8.98","false","99","2.5499999999999994","","",""
"1939.2999999970198","3","confid","","","html-slider-response","872","608310","0.0-4.0-10.98-0.98","","","","Rate your confidence","1",""
"1847.699999988079","e","choice","left","e","experimental","879","611949","0.0-4.0-8.99","true","100","2.6499999999999995","","",""
"1928.7999999970198","3","confid","","","html-slider-response","881","614382","0.0-4.0-10.99-0.99","","","","Rate your confidence","1",""
"708.7000000029802","e","choice","right","i","experimental","888","616899","0.0-4.0-8.100","false","101","2.6499999999999995","","",""
"2368.2000000029802","3","confid","","","html-slider-response","890","619771","0.0-4.0-10.100-0.100","","","","Rate your confidence","1",""
"1940.1000000089407","e","choice","left","e","experimental","897","623533","0.0-4.0-8.101","true","102","2.7499999999999996","","",""
"4951.699999988079","4","confid","","","html-slider-response","899","628990","0.0-4.0-10.101-0.101","","","","Rate your confidence","1",""
"530.7999999970198","i","choice","right","i","experimental","906","631348","0.0-4.0-8.102","true","103","2.7499999999999996","","",""
"3274.4000000059605","4","confid","","","html-slider-response","908","635126","0.0-4.0-10.102-0.102","","","","Rate your confidence","1",""
"737.3000000119209","e","choice","left","e","experimental","915","637670","0.0-4.0-8.103","true","104","2.6499999999999995","","",""
"3406.7000000029802","4","confid","","","html-slider-response","917","641582","0.0-4.0-10.103-0.103","","","","Rate your confidence","1",""
"823.2999999970198","e","choice","left","e","experimental","924","644237","0.0-4.0-8.104","true","105","2.6499999999999995","","",""
"2305.5","4","confid","","","html-slider-response","926","647046","0.0-4.0-10.104-0.104","","","","Rate your confidence","1",""
"1481.5999999940395","e","choice","right","i","experimental","933","650365","0.0-4.0-8.105","false","106","2.5499999999999994","","",""
"1847.5999999940395","4","confid","","","html-slider-response","935","652718","0.0-4.0-10.105-0.105","","","","Rate your confidence","1",""
"1143.5999999940395","e","choice","left","e","experimental","942","655699","0.0-4.0-8.106","true","107","2.6499999999999995","","",""
"2612.5","4","confid","","","html-slider-response","944","658814","0.0-4.0-10.106-0.106","","","","Rate your confidence","1",""
"884.7000000029802","i","choice","right","i","experimental","951","661500","0.0-4.0-8.107","true","108","2.6499999999999995","","",""
"3381.5","4","confid","","","html-slider-response","953","665398","0.0-4.0-10.107-0.107","","","","Rate your confidence","1",""
"675.7999999970198","e","choice","right","i","experimental","960","667861","0.0-4.0-8.108","false","109","2.5499999999999994","","",""
"3581.1000000089407","4","confid","","","html-slider-response","962","671974","0.0-4.0-10.108-0.108","","","","Rate your confidence","1",""
"3011.7000000029802","i","choice","left","e","experimental","969","676805","0.0-4.0-8.109","false","110","2.6499999999999995","","",""
"3260.2999999970198","3","confid","","","html-slider-response","971","680570","0.0-4.0-10.109-0.109","","","","Rate your confidence","1",""
"1893.2000000029802","i","choice","left","e","experimental","979","688415","0.0-4.0-8.110","false","111","2.7499999999999996","","",""
"3006.0999999940395","3","confid","","","html-slider-response","981","691926","0.0-4.0-10.110-0.110","","","","Rate your confidence","1",""
"547.5","i","choice","right","i","experimental","988","694311","0.0-4.0-8.111","true","112","2.8499999999999996","","",""
"1894.5","4","confid","","","html-slider-response","990","696710","0.0-4.0-10.111-0.111","","","","Rate your confidence","1",""
"564.8999999910593","i","choice","right","i","experimental","997","699070","0.0-4.0-8.112","true","113","2.8499999999999996","","",""
"1775.0999999940395","4","confid","","","html-slider-response","999","701350","0.0-4.0-10.112-0.112","","","","Rate your confidence","1",""
"1719.300000011921","e","choice","left","e","experimental","1006","704909","0.0-4.0-8.113","true","114","2.7499999999999996","","",""
"1790.4000000059605","3","confid","","","html-slider-response","1008","707215","0.0-4.0-10.113-0.113","","","","Rate your confidence","1",""
"575.2000000029802","i","choice","left","e","experimental","1015","709597","0.0-4.0-8.114","false","115","2.7499999999999996","","",""
"1863.5","4","confid","","","html-slider-response","1017","711967","0.0-4.0-10.114-0.114","","","","Rate your confidence","1",""
"1416.9000000059605","e","choice","right","i","experimental","1024","715181","0.0-4.0-8.115","false","116","2.8499999999999996","","",""
"2294.8999999910593","3","confid","","","html-slider-response","1026","717990","0.0-4.0-10.115-0.115","","","","Rate your confidence","1",""
"632.6000000089407","i","choice","left","e","experimental","1033","720421","0.0-4.0-8.116","false","117","2.9499999999999997","","",""
"3681.2000000029802","3","confid","","","html-slider-response","1035","724607","0.0-4.0-10.116-0.116","","","","Rate your confidence","1",""
"517.2000000029802","i","choice","right","i","experimental","1042","726942","0.0-4.0-8.117","true","118","3.05","","",""
"2328.5","4","confid","","","html-slider-response","1044","729782","0.0-4.0-10.117-0.117","","","","Rate your confidence","1",""
"411.90000000596046","i","choice","right","i","experimental","1051","732009","0.0-4.0-8.118","true","119","3.05","","",""
"1836.2000000029802","4","confid","","","html-slider-response","1053","734350","0.0-4.0-10.118-0.118","","","","Rate your confidence","1",""
"317.40000000596046","e","choice","left","e","experimental","1060","736516","0.0-4.0-8.119","true","120","2.9499999999999997","","",""
"4397.70000000298","3","confid","","","html-slider-response","1062","741422","0.0-4.0-10.119-0.119","","","","Rate your confidence","1",""
"277.6000000089407","i","choice","right","i","experimental","1069","743502","0.0-4.0-8.120","true","121","2.9499999999999997","","",""
"2085.6000000089407","3","confid","","","html-slider-response","1071","746119","0.0-4.0-10.120-0.120","","","","Rate your confidence","1",""
"562.9000000059605","e","choice","left","e","experimental","1078","748502","0.0-4.0-8.121","true","122","2.8499999999999996","","",""
"1630.1000000089407","3","confid","","","html-slider-response","1080","750638","0.0-4.0-10.121-0.121","","","","Rate your confidence","1",""
"89.1000000089407","i","choice","right","i","experimental","1087","752563","0.0-4.0-8.122","true","123","2.8499999999999996","","",""
"2330","4","confid","","","html-slider-response","1089","755398","0.0-4.0-10.122-0.122","","","","Rate your confidence","1",""
"1754.6000000089407","e","choice","left","e","experimental","1096","758957","0.0-4.0-8.123","true","124","2.7499999999999996","","",""
"2077.5999999940395","3","confid","","","html-slider-response","1098","761542","0.0-4.0-10.123-0.123","","","","Rate your confidence","1",""
"308.59999999403954","e","choice","left","e","experimental","1105","763652","0.0-4.0-8.124","true","125","2.7499999999999996","","",""
"2304.6000000089407","4","confid","","","html-slider-response","1107","766462","0.0-4.0-10.124-0.124","","","","Rate your confidence","1",""
"386.90000000596046","i","choice","right","i","experimental","1114","768669","0.0-4.0-8.125","true","126","2.6499999999999995","","",""
"2264.5","4","confid","","","html-slider-response","1116","771438","0.0-4.0-10.125-0.125","","","","Rate your confidence","1",""
"466","e","choice","right","i","experimental","1123","773724","0.0-4.0-8.126","false","127","2.6499999999999995","","",""
"2137.5","4","confid","","","html-slider-response","1125","776366","0.0-4.0-10.126-0.126","","","","Rate your confidence","1",""
"379.40000000596046","e","choice","left","e","experimental","1132","778580","0.0-4.0-8.127","true","128","2.7499999999999996","","",""
"2648.5","4","confid","","","html-slider-response","1134","781734","0.0-4.0-10.127-0.127","","","","Rate your confidence","1",""
"366.5","i","choice","right","i","experimental","1141","783931","0.0-4.0-8.128","true","129","2.7499999999999996","","",""
"2147.2999999970198","4","confid","","","html-slider-response","1143","786583","0.0-4.0-10.128-0.128","","","","Rate your confidence","1",""
"638.2999999970198","e","choice","left","e","experimental","1150","789053","0.0-4.0-8.129","true","130","2.6499999999999995","","",""
"1478.7999999970198","4","confid","","","html-slider-response","1152","791039","0.0-4.0-10.129-0.129","","","","Rate your confidence","1",""
"997.5999999940395","i","choice","right","i","experimental","1159","793836","0.0-4.0-8.130","true","131","2.6499999999999995","","",""
"1884.0999999940395","4","confid","","","html-slider-response","1161","796223","0.0-4.0-10.130-0.130","","","","Rate your confidence","1",""
"393","e","choice","left","e","experimental","1168","798491","0.0-4.0-8.131","true","132","2.5499999999999994","","",""
"3269.1000000089407","3","confid","","","html-slider-response","1170","802263","0.0-4.0-10.131-0.131","","","","Rate your confidence","1",""
"223.8999999910593","i","choice","left","e","experimental","1177","804309","0.0-4.0-8.132","false","133","2.5499999999999994","","",""
"4168.199999988079","4","confid","","","html-slider-response","1179","808982","0.0-4.0-10.132-0.132","","","","Rate your confidence","1",""
"308.30000001192093","i","choice","right","i","experimental","1186","811091","0.0-4.0-8.133","true","134","2.6499999999999995","","",""
"2159.2999999970198","4","confid","","","html-slider-response","1188","813783","0.0-4.0-10.133-0.133","","","","Rate your confidence","1",""
"385.79999999701977","i","choice","left","e","experimental","1195","815965","0.0-4.0-8.134","false","135","2.6499999999999995","","",""
"1663.6000000089407","4","confid","","","html-slider-response","1197","818135","0.0-4.0-10.134-0.134","","","","Rate your confidence","1",""
"418.70000000298023","i","choice","right","i","experimental","1204","820349","0.0-4.0-8.135","true","136","2.7499999999999996","","",""
"2025.0999999940395","4","confid","","","html-slider-response","1206","822878","0.0-4.0-10.135-0.135","","","","Rate your confidence","1",""
"420.20000000298023","i","choice","left","e","experimental","1213","825135","0.0-4.0-8.136","false","137","2.7499999999999996","","",""
"1700.0999999940395","4","confid","","","html-slider-response","1215","827343","0.0-4.0-10.136-0.136","","","","Rate your confidence","1",""
"428","i","choice","right","i","experimental","1222","829580","0.0-4.0-8.137","true","138","2.8499999999999996","","",""
"2332.5","4","confid","","","html-slider-response","1224","832415","0.0-4.0-10.137-0.137","","","","Rate your confidence","1",""
"705.5","i","choice","left","e","experimental","1231","834923","0.0-4.0-8.138","false","139","2.8499999999999996","","",""
"2235.5","4","confid","","","html-slider-response","1233","837662","0.0-4.0-10.138-0.138","","","","Rate your confidence","1",""
"1008.8999999910593","i","choice","right","i","experimental","1240","840484","0.0-4.0-8.139","true","140","2.9499999999999997","","",""
"1816.5","4","confid","","","html-slider-response","1242","842806","0.0-4.0-10.139-0.139","","","","Rate your confidence","1",""
"410.70000000298023","e","choice","left","e","experimental","1249","845029","0.0-4.0-8.140","true","141","2.9499999999999997","","",""
"3191","3","confid","","","html-slider-response","1251","848726","0.0-4.0-10.140-0.140","","","","Rate your confidence","1",""
"345.5","i","choice","right","i","experimental","1258","850891","0.0-4.0-8.141","true","142","2.8499999999999996","","",""
"2297.7999999970198","4","confid","","","html-slider-response","1260","853694","0.0-4.0-10.141-0.141","","","","Rate your confidence","1",""
"585.6000000089407","i","choice","right","i","experimental","1267","856087","0.0-4.0-8.142","true","143","2.8499999999999996","","",""
"3419.5","3","confid","","","html-slider-response","1269","860014","0.0-4.0-10.142-0.142","","","","Rate your confidence","1",""
"477.29999999701977","e","choice","left","e","experimental","1276","862292","0.0-4.0-8.143","true","144","2.7499999999999996","","",""
"1864.2000000029802","3","confid","","","html-slider-response","1278","864662","0.0-4.0-10.143-0.143","","","","Rate your confidence","1",""
"227.5","i","choice","right","i","experimental","1285","866709","0.0-4.0-8.144","true","145","2.7499999999999996","","",""
"2213.7999999970198","4","confid","","","html-slider-response","1287","869430","0.0-4.0-10.144-0.144","","","","Rate your confidence","1",""
"232.70000000298023","i","choice","left","e","experimental","1294","871476","0.0-4.0-8.145","false","146","2.6499999999999995","","",""
"4991.70000000298","3","confid","","","html-slider-response","1296","876974","0.0-4.0-10.145-0.145","","","","Rate your confidence","1",""
"182.40000000596046","i","choice","right","i","experimental","1303","878982","0.0-4.0-8.146","true","147","2.7499999999999996","","",""
"1872.7000000029802","3","confid","","","html-slider-response","1305","881370","0.0-4.0-10.146-0.146","","","","Rate your confidence","1",""
"496.5","e","choice","left","e","experimental","1312","883661","0.0-4.0-8.147","true","148","2.7499999999999996","","",""
"2576.7000000029802","3","confid","","","html-slider-response","1314","886767","0.0-4.0-10.147-0.147","","","","Rate your confidence","1",""
"141.6000000089407","i","choice","right","i","experimental","1321","888715","0.0-4.0-8.148","true","149","2.6499999999999995","","",""
"1620.2000000029802","3","confid","","","html-slider-response","1323","890838","0.0-4.0-10.148-0.148","","","","Rate your confidence","1",""
"1287.7000000029802","i","choice","left","e","experimental","1330","893941","0.0-4.0-8.149","false","150","2.6499999999999995","","",""
"2503.9000000059605","3","confid","","","html-slider-response","1332","896951","0.0-4.0-10.149-0.149","","","","Rate your confidence","1",""
"1625.5","i","choice","right","i","experimental","1339","900381","0.0-4.0-8.150","true","151","2.7499999999999996","","",""
"2223.4000000059605","3","confid","","","html-slider-response","1341","903118","0.0-4.0-10.150-0.150","","","","Rate your confidence","1",""
"671.7000000029802","i","choice","left","e","experimental","1348","905621","0.0-4.0-8.151","false","152","2.7499999999999996","","",""
"2158.7999999970198","4","confid","","","html-slider-response","1350","908286","0.0-4.0-10.151-0.151","","","","Rate your confidence","1",""
"1629.0999999940395","i","choice","left","e","experimental","1358","914515","0.0-4.0-8.152","false","153","2.8499999999999996","","",""
"4364","3","confid","","","html-slider-response","1360","919382","0.0-4.0-10.152-0.152","","","","Rate your confidence","1",""
"922.9000000059605","i","choice","right","i","experimental","1367","922101","0.0-4.0-8.153","true","154","2.9499999999999997","","",""
"2387.9000000059605","3","confid","","","html-slider-response","1369","924998","0.0-4.0-10.153-0.153","","","","Rate your confidence","1",""
"572.6000000089407","e","choice","right","i","experimental","1376","927373","0.0-4.0-8.154","false","155","2.9499999999999997","","",""
"2071.5","3","confid","","","html-slider-response","1378","929950","0.0-4.0-10.154-0.154","","","","Rate your confidence","1",""
"286.70000000298023","e","choice","left","e","experimental","1385","932092","0.0-4.0-8.155","true","156","3.05","","",""
"1992.2000000029802","4","confid","","","html-slider-response","1387","934590","0.0-4.0-10.155-0.155","","","","Rate your confidence","1",""
"541.7000000029802","i","choice","left","e","experimental","1394","936965","0.0-4.0-8.156","false","157","3.05","","",""
"3248","3","confid","","","html-slider-response","1396","940718","0.0-4.0-10.156-0.156","","","","Rate your confidence","1",""
"442","i","choice","right","i","experimental","1403","942957","0.0-4.0-8.157","true","158","3.15","","",""
"2086.1000000089407","4","confid","","","html-slider-response","1405","945550","0.0-4.0-10.157-0.157","","","","Rate your confidence","1",""
"342.09999999403954","e","choice","right","i","experimental","1412","947692","0.0-4.0-8.158","false","159","3.15","","",""
"2904.8999999910593","4","confid","","","html-slider-response","1414","951102","0.0-4.0-10.158-0.158","","","","Rate your confidence","1",""
"387.1000000089407","i","choice","left","e","experimental","1421","953348","0.0-4.0-8.159","false","160","3.25","","",""
"2248.7999999970198","4","confid","","","html-slider-response","1423","956102","0.0-4.0-10.159-0.159","","","","Rate your confidence","1",""
"119","e","choice","left","e","experimental","1430","958053","0.0-4.0-8.160","true","161","3.35","","",""
"2076.7999999970198","4","confid","","","html-slider-response","1432","960634","0.0-4.0-10.160-0.160","","","","Rate your confidence","1",""
"109.79999999701977","i","choice","right","i","experimental","1439","962566","0.0-4.0-8.161","true","162","3.35","","",""
"1935.0999999940395","4","confid","","","html-slider-response","1441","965006","0.0-4.0-10.161-0.161","","","","Rate your confidence","1",""
"821.7999999970198","i","choice","right","i","experimental","1448","967623","0.0-4.0-8.162","true","163","3.25","","",""
"1933.5","3","confid","","","html-slider-response","1450","970062","0.0-4.0-10.162-0.162","","","","Rate your confidence","1",""
"407.79999999701977","e","choice","left","e","experimental","1457","972284","0.0-4.0-8.163","true","164","3.25","","",""
"2558.2999999970198","3","confid","","","html-slider-response","1459","975350","0.0-4.0-10.163-0.163","","","","Rate your confidence","1",""
"344.20000000298023","i","choice","left","e","experimental","1466","977540","0.0-4.0-8.164","false","165","3.15","","",""
"4233.70000000298","4","confid","","","html-slider-response","1468","982279","0.0-4.0-10.164-0.164","","","","Rate your confidence","1",""
"384.1000000089407","e","choice","right","i","experimental","1475","984485","0.0-4.0-8.165","false","166","3.25","","",""
"4223.20000000298","3","confid","","","html-slider-response","1477","989214","0.0-4.0-10.165-0.165","","","","Rate your confidence","1",""
"121.20000000298023","e","choice","left","e","experimental","1484","991124","0.0-4.0-8.166","true","167","3.35","","",""
"1679.5","4","confid","","","html-slider-response","1486","993310","0.0-4.0-10.166-0.166","","","","Rate your confidence","1",""
"114.70000000298023","i","choice","right","i","experimental","1493","995254","0.0-4.0-8.167","true","168","3.35","","",""
"1856.699999988079","4","confid","","","html-slider-response","1495","997616","0.0-4.0-10.167-0.167","","","","Rate your confidence","1",""
"180.3999999910593","i","choice","right","i","experimental","1502","999613","0.0-4.0-8.168","true","169","3.25","","",""
"1927.800000011921","4","confid","","","html-slider-response","1504","1002047","0.0-4.0-10.168-0.168","","","","Rate your confidence","1",""
"76.8999999910593","e","choice","left","e","experimental","1511","1003915","0.0-4.0-8.169","true","170","3.25","","",""
"2131.2000000029802","4","confid","","","html-slider-response","1513","1006550","0.0-4.0-10.169-0.169","","","","Rate your confidence","1",""
"231.09999999403954","i","choice","right","i","experimental","1520","1008571","0.0-4.0-8.170","true","171","3.15","","",""
"1663.4000000059605","4","confid","","","html-slider-response","1522","1010738","0.0-4.0-10.170-0.170","","","","Rate your confidence","1",""
"54.20000000298023","e","choice","left","e","experimental","1529","1012621","0.0-4.0-8.171","true","172","3.15","","",""
"2207.6000000089407","4","confid","","","html-slider-response","1531","1015334","0.0-4.0-10.171-0.171","","","","Rate your confidence","1",""
"3931.7000000029802","i","choice","right","i","experimental","1538","1021092","0.0-4.0-8.172","true","173","3.05","","",""
"2042.2000000029802","5","confid","","","html-slider-response","1540","1023638","0.0-4.0-10.172-0.172","","","","Rate your confidence","1",""
"119.3999999910593","e","choice","left","e","experimental","1547","1025572","0.0-4.0-8.173","true","174","3.05","","",""
"1728.5999999940395","5","confid","","","html-slider-response","1549","1027806","0.0-4.0-10.173-0.173","","","","Rate your confidence","1",""
"175.59999999403954","e","choice","left","e","experimental","1556","1029781","0.0-4.0-8.174","true","175","2.9499999999999997","","",""
"2008.5","5","confid","","","html-slider-response","1558","1032294","0.0-4.0-10.174-0.174","","","","Rate your confidence","1",""
"152.79999999701977","i","choice","right","i","experimental","1565","1034278","0.0-4.0-8.175","true","176","2.9499999999999997","","",""
"1693.6000000089407","5","confid","","","html-slider-response","1567","1036478","0.0-4.0-10.175-0.175","","","","Rate your confidence","1",""
"2.5","e","choice","left","e","experimental","1574","1038270","0.0-4.0-8.176","true","177","2.8499999999999996","","",""
"1910.8999999910593","4","confid","","","html-slider-response","1576","1040686","0.0-4.0-10.176-0.176","","","","Rate your confidence","1",""
"20.399999991059303","i","choice","right","i","experimental","1583","1042515","0.0-4.0-8.177","true","178","2.8499999999999996","","",""
"2069.5","5","confid","","","html-slider-response","1585","1045087","0.0-4.0-10.177-0.177","","","","Rate your confidence","1",""
"86.20000000298023","e","choice","left","e","experimental","1592","1046990","0.0-4.0-8.178","true","179","2.7499999999999996","","",""
"2339.800000011921","4","confid","","","html-slider-response","1594","1049846","0.0-4.0-10.178-0.178","","","","Rate your confidence","1",""
"100.20000000298023","i","choice","right","i","experimental","1601","1051739","0.0-4.0-8.179","true","180","2.7499999999999996","","",""
"1915.699999988079","3","confid","","","html-slider-response","1603","1054158","0.0-4.0-10.179-0.179","","","","Rate your confidence","1",""
"371.70000000298023","i","choice","right","i","experimental","1610","1056356","0.0-4.0-8.180","true","181","2.6499999999999995","","",""
"1886.8999999910593","4","confid","","","html-slider-response","1612","1058751","0.0-4.0-10.180-0.180","","","","Rate your confidence","1",""
"1898.7000000029802","e","choice","left","e","experimental","1619","1062486","0.0-4.0-8.181","true","182","2.6499999999999995","","",""
"1830.4000000059605","4","confid","","","html-slider-response","1621","1064822","0.0-4.0-10.181-0.181","","","","Rate your confidence","1",""
"681.2000000029802","e","choice","left","e","experimental","1628","1067342","0.0-4.0-8.182","true","183","2.5499999999999994","","",""
"4509.29999999702","3","confid","","","html-slider-response","1630","1072358","0.0-4.0-10.182-0.182","","","","Rate your confidence","1",""
"407","i","choice","right","i","experimental","1637","1074588","0.0-4.0-8.183","true","184","2.5499999999999994","","",""
"2424.7999999970198","3","confid","","","html-slider-response","1639","1077518","0.0-4.0-10.183-0.183","","","","Rate your confidence","1",""
"1307.800000011921","e","choice","left","e","experimental","1646","1080622","0.0-4.0-8.184","true","185","2.4499999999999993","","",""
"2590.2000000029802","3","confid","","","html-slider-response","1648","1083718","0.0-4.0-10.184-0.184","","","","Rate your confidence","1",""
"497.20000000298023","e","choice","right","i","experimental","1655","1086005","0.0-4.0-8.185","false","186","2.4499999999999993","","",""
"1920.1000000089407","3","confid","","","html-slider-response","1657","1088430","0.0-4.0-10.185-0.185","","","","Rate your confidence","1",""
"1736.7000000029802","e","choice","right","i","experimental","1664","1091996","0.0-4.0-8.186","false","187","2.5499999999999994","","",""
"2031.3999999910593","4","confid","","","html-slider-response","1666","1094542","0.0-4.0-10.186-0.186","","","","Rate your confidence","1",""
"216.8999999910593","e","choice","left","e","experimental","1673","1096590","0.0-4.0-8.187","true","188","2.6499999999999995","","",""
"2254.4000000059605","4","confid","","","html-slider-response","1675","1099350","0.0-4.0-10.187-0.187","","","","Rate your confidence","1",""
"1431","e","choice","left","e","experimental","1682","1102619","0.0-4.0-8.188","true","189","2.6499999999999995","","",""
"1962.0999999940395","4","confid","","","html-slider-response","1684","1105086","0.0-4.0-10.188-0.188","","","","Rate your confidence","1",""
"436.20000000298023","e","choice","right","i","experimental","1691","1107325","0.0-4.0-8.189","false","190","2.5499999999999994","","",""
"2048.5","4","confid","","","html-slider-response","1693","1109878","0.0-4.0-10.189-0.189","","","","Rate your confidence","1",""
"584.5","i","choice","left","e","experimental","1700","1112261","0.0-4.0-8.190","false","191","2.6499999999999995","","",""
"1659.0999999940395","4","confid","","","html-slider-response","1702","1114430","0.0-4.0-10.190-0.190","","","","Rate your confidence","1",""
"460.5","i","choice","right","i","experimental","1709","1116691","0.0-4.0-8.191","true","192","2.7499999999999996","","",""
"2288.7999999970198","4","confid","","","html-slider-response","1711","1119486","0.0-4.0-10.191-0.191","","","","Rate your confidence","1",""
"440.29999999701977","i","choice","left","e","experimental","1718","1121732","0.0-4.0-8.192","false","193","2.7499999999999996","","",""
"2017","4","confid","","","html-slider-response","1720","1124254","0.0-4.0-10.192-0.192","","","","Rate your confidence","1",""
"338.8999999910593","i","choice","right","i","experimental","1727","1126427","0.0-4.0-8.193","true","194","2.8499999999999996","","",""
"2601.9000000059605","4","confid","","","html-slider-response","1729","1129534","0.0-4.0-10.193-0.193","","","","Rate your confidence","1","55336"
