"rt","response","task","target_side","correct_response","trial_type","trial_index","time_elapsed","internal_node_id","correct","trial_number","n_dots","stimulus","slider_start","participant"
"2244.100000143051","e","choice","right","i","practice","10","103792","0.0-4.0-8.0","false","1","4.25","","",""
"764.1999998092651","e","choice","left","e","practice","18","106845","0.0-4.0-8.1","true","2","4.65","","",""
"972.5","e","choice","left","e","practice","26","110104","0.0-4.0-8.2","true","3","4.65","","",""
"629.1000001430511","i","choice","right","i","practice","34","113033","0.0-4.0-8.3","true","4","4.25","","",""
"3736.2000000476837","i","choice","right","i","practice","42","119071","0.0-4.0-8.4","true","5","4.25","","",""
"1066.0999999046326","i","choice","left","e","practice","50","122440","0.0-4.0-8.5","false","6","3.85","","",""
"1212.5","i","choice","right","i","practice","58","125933","0.0-4.0-8.6","true","7","4.05","","",""
"990.6999998092651","e","choice","left","e","practice","66","129214","0.0-4.0-8.7","true","8","4.05","","",""
"780.9000000953674","i","choice","left","e","practice","74","132292","0.0-4.0-8.8","false","9","3.8499999999999996","","",""
"208.40000009536743","i","choice","right","i","practice","82","134800","0.0-4.0-8.9","true","10","4.05","","",""
"358.2000000476837","i","choice","right","i","practice","90","137446","0.0-4.0-8.10","true","11","4.05","","",""
"799.9000000953674","i","choice","left","e","practice","98","140528","0.0-4.0-8.11","false","12","3.9499999999999997","","",""
"575","e","choice","left","e","practice","106","143392","0.0-4.0-8.12","true","13","4.05","","",""
"457.7000000476837","i","choice","right","i","practice","114","146152","0.0-4.0-8.13","true","14","4.05","","",""
"98.20000004768372","i","choice","right","i","practice","122","148547","0.0-4.0-8.14","true","15","3.9499999999999997","","",""
"224.89999985694885","i","choice","left","e","practice","130","151067","0.0-4.0-8.15","false","16","3.9499999999999997","","",""
"1126.8000001907349","i","choice","right","i","practice","138","154484","0.0-4.0-8.16","true","17","4.05","","",""
"288.2000000476837","e","choice","left","e","practice","146","157060","0.0-4.0-8.17","true","18","4.05","","",""
"596.2000000476837","i","choice","right","i","practice","154","159956","0.0-4.0-8.18","true","19","3.9499999999999997","","",""
"400.7999999523163","i","choice","left","e","practice","162","162655","0.0-4.0-8.19","false","20","3.9499999999999997","","",""
"12.599999904632568","e","choice","left","e","practice","170","164970","0.0-4.0-8.20","true","21","4.05","","",""
"380.2999999523163","i","choice","right","i","practice","178","167640","0.0-4.0-8.21","true","22","4.05","","",""
"1071.2999999523163","i","choice","right","i","practice","186","170995","0.0-4.0-8.22","true","23","3.9499999999999997","","",""
"591.2000000476837","e","choice","left","e","practice","194","173883","0.0-4.0-8.23","true","24","3.9499999999999997","","",""
"258.59999990463257","i","choice","right","i","practice","202","176444","0.0-4.0-8.24","true","25","3.8499999999999996","","",""
"532.2999999523163","e","choice","left","e","practice","210","179264","0.0-4.0-8.25","true","26","3.8499999999999996","","",""
"612.7000000476837","e","choice","right","i","experimental","221","213814","0.0-4.0-8.26","false","27","3.7499999999999996","","",""
"5346.600000143051","3","confid","","","html-slider-response","223","219665","0.0-4.0-10.26-0.26","","","","Rate your confidence","1",""
"2965.100000143051","i","choice","left","e","experimental","230","224420","0.0-4.0-8.27","false","28","3.8499999999999996","","",""
"3075","5","confid","","","html-slider-response","232","227998","0.0-4.0-10.27-0.27","","","","Rate your confidence","1",""
"970.2999999523163","i","choice","right","i","experimental","239","230753","0.0-4.0-8.28","true","29","3.9499999999999997","","",""
"2081.2999999523163","5","confid","","","html-slider-response","241","233338","0.0-4.0-10.28-0.28","","","","Rate your confidence","1",""
"1480.1999998092651","e","choice","left","e","experimental","248","236601","0.0-4.0-8.29","true","30","3.9499999999999997","","",""
"1868","5","confid","","","html-slider-response","250","238972","0.0-4.0-10.29-0.29","","","","Rate your confidence","1",""
"771.0999999046326","i","choice","right","i","experimental","257","241544","0.0-4.0-8.30","true","31","3.8499999999999996","","",""
"2848.4000000953674","5","confid","","","html-slider-response","259","244895","0.0-4.0-10.30-0.30","","","","Rate your confidence","1",""
"1266","e","choice","left","e","experimental","266","247959","0.0-4.0-8.31","true","32","3.8499999999999996","","",""
"3597.7999999523163","3","confid","","","html-slider-response","268","252060","0.0-4.0-10.31-0.31","","","","Rate your confidence","1",""
"934.6000001430511","i","choice","right","i","experimental","275","254797","0.0-4.0-8.32","true","33","3.7499999999999996","","",""
"1738.1999998092651","5","confid","","","html-slider-response","277","257039","0.0-4.0-10.32-0.32","","","","Rate your confidence","1",""
"1153.6000001430511","i","choice","left","e","experimental","284","259971","0.0-4.0-8.33","false","34","3.7499999999999996","","",""
"1551.7999999523163","4","confid","","","html-slider-response","286","262025","0.0-4.0-10.33-0.33","","","","Rate your confidence","1",""
"789.3999998569489","i","choice","right","i","experimental","293","264599","0.0-4.0-8.34","true","35","3.8499999999999996","","",""
"3750.7999999523163","5","confid","","","html-slider-response","295","268866","0.0-4.0-10.34-0.34","","","","Rate your confidence","1",""
"1687.5","i","choice","left","e","experimental","302","272339","0.0-4.0-8.35","false","36","3.8499999999999996","","",""
"4181.5","1","confid","","","html-slider-response","304","277025","0.0-4.0-10.35-0.35","","","","Rate your confidence","1",""
"2186.0999999046326","i","choice","right","i","experimental","311","281014","0.0-4.0-8.36","true","37","3.9499999999999997","","",""
"3176.5","3","confid","","","html-slider-response","313","284695","0.0-4.0-10.36-0.36","","","","Rate your confidence","1",""
"659.5","i","choice","left","e","experimental","320","287155","0.0-4.0-8.37","false","38","3.9499999999999997","","",""
"2795.5","5","confid","","","html-slider-response","322","290453","0.0-4.0-10.37-0.37","","","","Rate your confidence","1",""
"1610","e","choice","left","e","experimental","329","293860","0.0-4.0-8.38","true","39","4.05","","",""
"2308","5","confid","","","html-slider-response","331","296671","0.0-4.0-10.38-0.38","","","","Rate your confidence","1",""
"738","i","choice","right","i","experimental","338","299212","0.0-4.0-8.39","true","40","4.05","","",""
"2278.100000143051","4","confid","","","html-slider-response","340","301993","0.0-4.0-10.39-0.39","","","","Rate your confidence","1",""
"995.5","i","choice","right","i","experimental","347","304778","0.0-4.0-8.40","true","41","3.9499999999999997","","",""
"2177.9000000953674","5","confid","","","html-slider-response","349","307459","0.0-4.0-10.40-0.40","","","","Rate your confidence","1",""
"1696.1999998092651","e","choice","left","e","experimental","356","310945","0.0-4.0-8.41","true","42","3.9499999999999997","","",""
"2070.0999999046326","4","confid","","","html-slider-response","358","313519","0.0-4.0-10.41-0.41","","","","Rate your confidence","1",""
"353.10000014305115","i","choice","right","i","experimental","365","315675","0.0-4.0-8.42","true","43","3.8499999999999996","","",""
"2016.5","5","confid","","","html-slider-response","367","318196","0.0-4.0-10.42-0.42","","","","Rate your confidence","1",""
"1306.0999999046326","e","choice","left","e","experimental","374","321286","0.0-4.0-8.43","true","44","3.8499999999999996","","",""
"2507.199999809265","5","confid","","","html-slider-response","376","324297","0.0-4.0-10.43-0.43","","","","Rate your confidence","1",""
"1842.3999998569489","e","choice","right","i","experimental","383","327921","0.0-4.0-8.44","false","45","3.7499999999999996","","",""
"2141.300000190735","3","confid","","","html-slider-response","385","330568","0.0-4.0-10.44-0.44","","","","Rate your confidence","1",""
"1470.2999999523163","e","choice","left","e","experimental","392","333827","0.0-4.0-8.45","true","46","3.8499999999999996","","",""
"2405.7000000476837","5","confid","","","html-slider-response","394","336737","0.0-4.0-10.45-0.45","","","","Rate your confidence","1",""
"1046","i","choice","right","i","experimental","401","339568","0.0-4.0-8.46","true","47","3.8499999999999996","","",""
"2373.399999856949","5","confid","","","html-slider-response","403","342445","0.0-4.0-10.46-0.46","","","","Rate your confidence","1",""
"1091.4000000953674","e","choice","left","e","experimental","410","345336","0.0-4.0-8.47","true","48","3.7499999999999996","","",""
"1565.3999998569489","5","confid","","","html-slider-response","412","347406","0.0-4.0-10.47-0.47","","","","Rate your confidence","1",""
"1114.0999999046326","e","choice","left","e","experimental","419","350313","0.0-4.0-8.48","true","49","3.7499999999999996","","",""
"1330.2000000476837","5","confid","","","html-slider-response","421","352161","0.0-4.0-10.48-0.48","","","","Rate your confidence","1",""
"876.0999999046326","i","choice","right","i","experimental","428","354827","0.0-4.0-8.49","true","50","3.6499999999999995","","",""
"1555.1000001430511","5","confid","","","html-slider-response","430","356887","0.0-4.0-10.49-0.49","","","","Rate your confidence","1",""
"724.5999999046326","e","choice","left","e","experimental","437","359414","0.0-4.0-8.50","true","51","3.6499999999999995","","",""
"1523.6999998092651","6","confid","","","html-slider-response","439","361441","0.0-4.0-10.50-0.50","","","","Rate your confidence","1",""
"1738.2999999523163","i","choice","right","i","experimental","446","364971","0.0-4.0-8.51","true","52","3.5499999999999994","","",""
"1355.7000000476837","5","confid","","","html-slider-response","448","366832","0.0-4.0-10.51-0.51","","","","Rate your confidence","1",""
"742.2000000476837","i","choice","right","i","experimental","455","369357","0.0-4.0-8.52","true","53","3.5499999999999994","","",""
"2812.7000000476837","6","confid","","","html-slider-response","457","372672","0.0-4.0-10.52-0.52","","","","Rate your confidence","1",""
"3345.7999999523163","i","choice","left","e","experimental","464","377804","0.0-4.0-8.53","false","54","3.4499999999999993","","",""
"1515.7000000476837","4","confid","","","html-slider-response","466","379823","0.0-4.0-10.53-0.53","","","","Rate your confidence","1",""
"1591.2999999523163","i","choice","right","i","experimental","473","383209","0.0-4.0-8.54","true","55","3.5499999999999994","","",""
"3154.399999856949","5","confid","","","html-slider-response","475","386867","0.0-4.0-10.54-0.54","","","","Rate your confidence","1",""
"1251.7000000476837","e","choice","left","e","experimental","482","389920","0.0-4.0-8.55","true","56","3.5499999999999994","","",""
"1855.7999999523163","4","confid","","","html-slider-response","484","392280","0.0-4.0-10.55-0.55","","","","Rate your confidence","1",""
"1324.6000001430511","i","choice","left","e","experimental","491","395390","0.0-4.0-8.56","false","57","3.4499999999999993","","",""
"2151.5","4","confid","","","html-slider-response","493","398046","0.0-4.0-10.56-0.56","","","","Rate your confidence","1",""
"891.6999998092651","i","choice","right","i","experimental","500","400722","0.0-4.0-8.57","true","58","3.5499999999999994","","",""
"2579.4000000953674","6","confid","","","html-slider-response","502","403806","0.0-4.0-10.57-0.57","","","","Rate your confidence","1",""
"1402.2999999523163","e","choice","left","e","experimental","509","407001","0.0-4.0-8.58","true","59","3.5499999999999994","","",""
"3268.5","4","confid","","","html-slider-response","511","410773","0.0-4.0-10.58-0.58","","","","Rate your confidence","1",""
"683.8999998569489","i","choice","right","i","experimental","518","413261","0.0-4.0-8.59","true","60","3.4499999999999993","","",""
"5498.200000047684","5","confid","","","html-slider-response","520","419262","0.0-4.0-10.59-0.59","","","","Rate your confidence","1",""
"402.90000009536743","i","choice","right","i","experimental","527","421466","0.0-4.0-8.60","true","61","3.4499999999999993","","",""
"2073","5","confid","","","html-slider-response","529","424044","0.0-4.0-10.60-0.60","","","","Rate your confidence","1",""
"1371.5","i","choice","left","e","experimental","536","427202","0.0-4.0-8.61","false","62","3.349999999999999","","",""
"5543.600000143051","4","confid","","","html-slider-response","538","433249","0.0-4.0-10.61-0.61","","","","Rate your confidence","1",""
"1013.9000000953674","e","choice","left","e","experimental","545","436053","0.0-4.0-8.62","true","63","3.4499999999999993","","",""
"1535","5","confid","","","html-slider-response","547","438104","0.0-4.0-10.62-0.62","","","","Rate your confidence","1",""
"1759.7999999523163","i","choice","right","i","experimental","554","441654","0.0-4.0-8.63","true","64","3.4499999999999993","","",""
"4136.599999904633","3","confid","","","html-slider-response","556","446294","0.0-4.0-10.63-0.63","","","","Rate your confidence","1",""
"2277.5","e","choice","left","e","experimental","563","450369","0.0-4.0-8.64","true","65","3.349999999999999","","",""
"2140.2000000476837","5","confid","","","html-slider-response","565","453012","0.0-4.0-10.64-0.64","","","","Rate your confidence","1",""
"993.3999998569489","i","choice","right","i","experimental","572","455794","0.0-4.0-8.65","true","66","3.349999999999999","","",""
"2688.2999999523163","5","confid","","","html-slider-response","574","458988","0.0-4.0-10.65-0.65","","","","Rate your confidence","1",""
"1177.8999998569489","e","choice","left","e","experimental","581","461951","0.0-4.0-8.66","true","67","3.249999999999999","","",""
"1494.6999998092651","5","confid","","","html-slider-response","583","463962","0.0-4.0-10.66-0.66","","","","Rate your confidence","1",""
"1303.4000000953674","i","choice","right","i","experimental","590","467054","0.0-4.0-8.67","true","68","3.249999999999999","","",""
"1524.6000001430511","4","confid","","","html-slider-response","592","469082","0.0-4.0-10.67-0.67","","","","Rate your confidence","1",""
"544.2999999523163","e","choice","left","e","experimental","600","482626","0.0-4.0-8.68","true","69","3.149999999999999","","",""
"2935.7999999523163","4","confid","","","html-slider-response","602","486067","0.0-4.0-10.68-0.68","","","","Rate your confidence","1",""
"662.0999999046326","e","choice","right","i","experimental","609","488533","0.0-4.0-8.69","false","70","3.149999999999999","","",""
"2211.2000000476837","4","confid","","","html-slider-response","611","491248","0.0-4.0-10.69-0.69","","","","Rate your confidence","1",""
"899.7999999523163","i","choice","right","i","experimental","618","493930","0.0-4.0-8.70","true","71","3.249999999999999","","",""
"1299","5","confid","","","html-slider-response","620","495735","0.0-4.0-10.70-0.70","","","","Rate your confidence","1",""
"1794.2999999523163","e","choice","left","e","experimental","627","499310","0.0-4.0-8.71","true","72","3.249999999999999","","",""
"2168.300000190735","5","confid","","","html-slider-response","629","501982","0.0-4.0-10.71-0.71","","","","Rate your confidence","1",""
"1086.1000001430511","e","choice","left","e","experimental","636","504853","0.0-4.0-8.72","true","73","3.149999999999999","","",""
"1819.6000001430511","5","confid","","","html-slider-response","638","507187","0.0-4.0-10.72-0.72","","","","Rate your confidence","1",""
"1209.5","e","choice","right","i","experimental","645","510176","0.0-4.0-8.73","false","74","3.149999999999999","","",""
"1420.7000000476837","4","confid","","","html-slider-response","647","512100","0.0-4.0-10.73-0.73","","","","Rate your confidence","1",""
"1064.5","e","choice","left","e","experimental","654","514964","0.0-4.0-8.74","true","75","3.249999999999999","","",""
"2528.5","6","confid","","","html-slider-response","656","517996","0.0-4.0-10.74-0.74","","","","Rate your confidence","1",""
"1133.0999999046326","i","choice","right","i","experimental","663","520926","0.0-4.0-8.75","true","76","3.249999999999999","","",""
"3284.5999999046326","3","confid","","","html-slider-response","665","524714","0.0-4.0-10.75-0.75","","","","Rate your confidence","1",""
"1753.4000000953674","e","choice","right","i","experimental","672","528272","0.0-4.0-8.76","false","77","3.149999999999999","","",""
"4213.799999952316","4","confid","","","html-slider-response","674","532989","0.0-4.0-10.76-0.76","","","","Rate your confidence","1",""
"1306.0999999046326","e","choice","left","e","experimental","681","536079","0.0-4.0-8.77","true","78","3.249999999999999","","",""
"1668.5","4","confid","","","html-slider-response","683","538264","0.0-4.0-10.77-0.77","","","","Rate your confidence","1",""
"1309.1000001430511","i","choice","right","i","experimental","690","541364","0.0-4.0-8.78","true","79","3.249999999999999","","",""
"2984.7999999523163","5","confid","","","html-slider-response","692","544852","0.0-4.0-10.78-0.78","","","","Rate your confidence","1",""
"1030.4000000953674","i","choice","left","e","experimental","699","547682","0.0-4.0-8.79","false","80","3.149999999999999","","",""
"3145.7999999523163","4","confid","","","html-slider-response","701","551333","0.0-4.0-10.79-0.79","","","","Rate your confidence","1",""
"840","e","choice","left","e","experimental","708","553956","0.0-4.0-8.80","true","81","3.249999999999999","","",""
"3859.899999856949","5","confid","","","html-slider-response","710","558319","0.0-4.0-10.80-0.80","","","","Rate your confidence","1",""
"2972.7999999523163","i","choice","right","i","experimental","717","563081","0.0-4.0-8.81","true","82","3.249999999999999","","",""
"2286.2999999523163","5","confid","","","html-slider-response","719","565871","0.0-4.0-10.81-0.81","","","","Rate your confidence","1",""
"957.5999999046326","e","choice","left","e","experimental","726","568618","0.0-4.0-8.82","true","83","3.149999999999999","","",""
"1723.3000001907349","4","confid","","","html-slider-response","728","570847","0.0-4.0-10.82-0.82","","","","Rate your confidence","1",""
"1327.2000000476837","i","choice","right","i","experimental","735","573958","0.0-4.0-8.83","true","84","3.149999999999999","","",""
"2462.7999999523163","5","confid","","","html-slider-response","737","576924","0.0-4.0-10.83-0.83","","","","Rate your confidence","1",""
"2165.9000000953674","i","choice","right","i","experimental","744","580891","0.0-4.0-8.84","true","85","3.049999999999999","","",""
"2300.7999999523163","5","confid","","","html-slider-response","746","583697","0.0-4.0-10.84-0.84","","","","Rate your confidence","1",""
"1218.5999999046326","e","choice","left","e","experimental","753","586718","0.0-4.0-8.85","true","86","3.049999999999999","","",""
"3111.5","5","confid","","","html-slider-response","755","590333","0.0-4.0-10.85-0.85","","","","Rate your confidence","1",""
"1181.1000001430511","e","choice","left","e","experimental","762","593294","0.0-4.0-8.86","true","87","2.949999999999999","","",""
"2406.2000000476837","6","confid","","","html-slider-response","764","596204","0.0-4.0-10.86-0.86","","","","Rate your confidence","1",""
"1480.5","e","choice","right","i","experimental","771","599476","0.0-4.0-8.87","false","88","2.949999999999999","","",""
"1915","3","confid","","","html-slider-response","773","601898","0.0-4.0-10.87-0.87","","","","Rate your confidence","1",""
"929.7000000476837","e","choice","left","e","experimental","780","604614","0.0-4.0-8.88","true","89","3.049999999999999","","",""
"3204.5","4","confid","","","html-slider-response","782","608336","0.0-4.0-10.88-0.88","","","","Rate your confidence","1",""
"968.4000000953674","e","choice","right","i","experimental","789","611082","0.0-4.0-8.89","false","90","3.049999999999999","","",""
"2085.7999999523163","4","confid","","","html-slider-response","791","613671","0.0-4.0-10.89-0.89","","","","Rate your confidence","1",""
"1150.5999999046326","e","choice","left","e","experimental","798","616622","0.0-4.0-8.90","true","91","3.149999999999999","","",""
"1766.3000001907349","4","confid","","","html-slider-response","800","618892","0.0-4.0-10.90-0.90","","","","Rate your confidence","1",""
"1373.5999999046326","i","choice","right","i","experimental","807","622071","0.0-4.0-8.91","true","92","3.149999999999999","","",""
"1618.5999999046326","6","confid","","","html-slider-response","809","624193","0.0-4.0-10.91-0.91","","","","Rate your confidence","1",""
"2802.5","e","choice","left","e","experimental","816","628796","0.0-4.0-8.92","true","93","3.049999999999999","","",""
"2303","4","confid","","","html-slider-response","818","631603","0.0-4.0-10.92-0.92","","","","Rate your confidence","1",""
"3326.5999999046326","i","choice","right","i","experimental","825","636720","0.0-4.0-8.93","true","94","3.049999999999999","","",""
"2249.9000000953674","5","confid","","","html-slider-response","827","639475","0.0-4.0-10.93-0.93","","","","Rate your confidence","1",""
"990.1999998092651","e","choice","right","i","experimental","834","642253","0.0-4.0-8.94","false","95","2.949999999999999","","",""
"1757.7999999523163","5","confid","","","html-slider-response","836","644514","0.0-4.0-10.94-0.94","","","","Rate your confidence","1",""
"1055.5999999046326","e","choice","left","e","experimental","843","647348","0.0-4.0-8.95","true","96","3.049999999999999","","",""
"2607.2000000476837","5","confid","","","html-slider-response","845","650459","0.0-4.0-10.95-0.95","","","","Rate your confidence","1",""
"531.5999999046326","e","choice","left","e","experimental","852","652789","0.0-4.0-8.96","true","97","3.049999999999999","","",""
"1809.4000000953674","5","confid","","","html-slider-response","854","655102","0.0-4.0-10.96-0.96","","","","Rate your confidence","1",""
"1882.6000001430511","i","choice","right","i","experimental","861","658785","0.0-4.0-8.97","true","98","2.949999999999999","","",""
"2139.7999999523163","5","confid","","","html-slider-response","863","661428","0.0-4.0-10.97-0.97","","","","Rate your confidence","1",""
"1752.9000000953674","e","choice","right","i","experimental","870","664970","0.0-4.0-8.98","false","99","2.949999999999999","","",""
"2462.100000143051","4","confid","","","html-slider-response","872","667934","0.0-4.0-10.98-0.98","","","","Rate your confidence","1",""
"748.6000001430511","e","choice","left","e","experimental","879","670471","0.0-4.0-8.99","true","100","3.049999999999999","","",""
"2171.5","5","confid","","","html-slider-response","881","673146","0.0-4.0-10.99-0.99","","","","Rate your confidence","1",""
"2230.699999809265","i","choice","right","i","experimental","888","677179","0.0-4.0-8.100","true","101","3.049999999999999","","",""
"2841.300000190735","6","confid","","","html-slider-response","890","680524","0.0-4.0-10.100-0.100","","","","Rate your confidence","1",""
"2567.2000000476837","i","choice","left","e","experimental","897","684899","0.0-4.0-8.101","false","102","2.949999999999999","","",""
"3886.2999999523163","2","confid","","","html-slider-response","899","689289","0.0-4.0-10.101-0.101","","","","Rate your confidence","1",""
"1379.4000000953674","e","choice","left","e","experimental","906","692467","0.0-4.0-8.102","true","103","3.049999999999999","","",""
"2304.5","3","confid","","","html-slider-response","908","695275","0.0-4.0-10.102-0.102","","","","Rate your confidence","1",""
"195.79999995231628","i","choice","right","i","experimental","915","697258","0.0-4.0-8.103","true","104","3.049999999999999","","",""
"3189","4","confid","","","html-slider-response","917","700951","0.0-4.0-10.103-0.103","","","","Rate your confidence","1",""
"205","i","choice","right","i","experimental","924","702947","0.0-4.0-8.104","true","105","2.949999999999999","","",""
"5478.5","1","confid","","","html-slider-response","926","708929","0.0-4.0-10.104-0.104","","","","Rate your confidence","1",""
"1204.7999999523163","e","choice","left","e","experimental","933","711921","0.0-4.0-8.105","true","106","2.949999999999999","","",""
"1794.7000000476837","5","confid","","","html-slider-response","935","714220","0.0-4.0-10.105-0.105","","","","Rate your confidence","1",""
"675.9000000953674","e","choice","left","e","experimental","942","716685","0.0-4.0-8.106","true","107","2.8499999999999988","","",""
"1663.1999998092651","5","confid","","","html-slider-response","944","718851","0.0-4.0-10.106-0.106","","","","Rate your confidence","1",""
"451.60000014305115","i","choice","right","i","experimental","951","721097","0.0-4.0-8.107","true","108","2.8499999999999988","","",""
"2278.2000000476837","4","confid","","","html-slider-response","953","723878","0.0-4.0-10.107-0.107","","","","Rate your confidence","1",""
"1940.7999999523163","i","choice","left","e","experimental","960","727606","0.0-4.0-8.108","false","109","2.7499999999999987","","",""
"2365.2000000476837","4","confid","","","html-slider-response","962","730475","0.0-4.0-10.108-0.108","","","","Rate your confidence","1",""
"1355.4000000953674","e","choice","right","i","experimental","969","733618","0.0-4.0-8.109","false","110","2.8499999999999988","","",""
"2556.2999999523163","4","confid","","","html-slider-response","971","736678","0.0-4.0-10.109-0.109","","","","Rate your confidence","1",""
"483.90000009536743","e","choice","right","i","experimental","979","752933","0.0-4.0-8.110","false","111","2.949999999999999","","",""
"3676.899999856949","5","confid","","","html-slider-response","981","757116","0.0-4.0-10.110-0.110","","","","Rate your confidence","1",""
"935.4000000953674","e","choice","left","e","experimental","988","759852","0.0-4.0-8.111","true","112","3.049999999999999","","",""
"1469.5","5","confid","","","html-slider-response","990","761824","0.0-4.0-10.111-0.111","","","","Rate your confidence","1",""
"653.7999999523163","e","choice","left","e","experimental","997","764264","0.0-4.0-8.112","true","113","3.049999999999999","","",""
"1626.7000000476837","5","confid","","","html-slider-response","999","766394","0.0-4.0-10.112-0.112","","","","Rate your confidence","1",""
"1182","e","choice","right","i","experimental","1006","769365","0.0-4.0-8.113","false","114","2.949999999999999","","",""
"2751.2000000476837","5","confid","","","html-slider-response","1008","772620","0.0-4.0-10.113-0.113","","","","Rate your confidence","1",""
"672.0999999046326","i","choice","left","e","experimental","1015","775092","0.0-4.0-8.114","false","115","3.049999999999999","","",""
"1434.7999999523163","5","confid","","","html-slider-response","1017","777033","0.0-4.0-10.114-0.114","","","","Rate your confidence","1",""
"1178","i","choice","right","i","experimental","1024","780015","0.0-4.0-8.115","true","116","3.149999999999999","","",""
"1965.2999999523163","5","confid","","","html-slider-response","1026","782484","0.0-4.0-10.115-0.115","","","","Rate your confidence","1",""
"2248.2000000476837","i","choice","left","e","experimental","1033","786525","0.0-4.0-8.116","false","117","3.149999999999999","","",""
"1633.3000001907349","6","confid","","","html-slider-response","1035","788663","0.0-4.0-10.116-0.116","","","","Rate your confidence","1",""
"1820.8999998569489","e","choice","right","i","experimental","1042","792276","0.0-4.0-8.117","false","118","3.249999999999999","","",""
"2667.5","5","confid","","","html-slider-response","1044","795450","0.0-4.0-10.117-0.117","","","","Rate your confidence","1",""
"976.7999999523163","e","choice","left","e","experimental","1051","798221","0.0-4.0-8.118","true","119","3.349999999999999","","",""
"1619.2000000476837","3","confid","","","html-slider-response","1053","800344","0.0-4.0-10.118-0.118","","","","Rate your confidence","1",""
"229.20000004768372","i","choice","right","i","experimental","1060","802380","0.0-4.0-8.119","true","120","3.349999999999999","","",""
"1760.2999999523163","6","confid","","","html-slider-response","1062","804646","0.0-4.0-10.119-0.119","","","","Rate your confidence","1",""
"1038","e","choice","left","e","experimental","1069","807485","0.0-4.0-8.120","true","121","3.249999999999999","","",""
"1699.5","5","confid","","","html-slider-response","1071","809688","0.0-4.0-10.120-0.120","","","","Rate your confidence","1",""
"1618","i","choice","right","i","experimental","1078","813100","0.0-4.0-8.121","true","122","3.249999999999999","","",""
"1412.7000000476837","5","confid","","","html-slider-response","1080","815016","0.0-4.0-10.121-0.121","","","","Rate your confidence","1",""
"977.2999999523163","e","choice","left","e","experimental","1087","817782","0.0-4.0-8.122","true","123","3.149999999999999","","",""
"4706.799999952316","5","confid","","","html-slider-response","1089","822993","0.0-4.0-10.122-0.122","","","","Rate your confidence","1",""
"701.7999999523163","i","choice","right","i","experimental","1096","825482","0.0-4.0-8.123","true","124","3.149999999999999","","",""
"1311","5","confid","","","html-slider-response","1098","827296","0.0-4.0-10.123-0.123","","","","Rate your confidence","1",""
"1290.9000000953674","e","choice","right","i","experimental","1105","830389","0.0-4.0-8.124","false","125","3.049999999999999","","",""
"1253.3000001907349","5","confid","","","html-slider-response","1107","832146","0.0-4.0-10.124-0.124","","","","Rate your confidence","1",""
"833.7999999523163","e","choice","left","e","experimental","1114","834780","0.0-4.0-8.125","true","126","3.149999999999999","","",""
"1196.5","5","confid","","","html-slider-response","1116","836480","0.0-4.0-10.125-0.125","","","","Rate your confidence","1",""
"606.4000000953674","i","choice","left","e","experimental","1123","838890","0.0-4.0-8.126","false","127","3.149999999999999","","",""
"1751","5","confid","","","html-slider-response","1125","841147","0.0-4.0-10.126-0.126","","","","Rate your confidence","1",""
"103.90000009536743","i","choice","right","i","experimental","1132","843039","0.0-4.0-8.127","true","128","3.249999999999999","","",""
"2578.7000000476837","5","confid","","","html-slider-response","1134","846124","0.0-4.0-10.127-0.127","","","","Rate your confidence","1",""
"595.6000001430511","i","choice","right","i","experimental","1141","848511","0.0-4.0-8.128","true","129","3.249999999999999","","",""
"1361.2999999523163","5","confid","","","html-slider-response","1143","850378","0.0-4.0-10.128-0.128","","","","Rate your confidence","1",""
"872.6000001430511","e","choice","left","e","experimental","1150","853058","0.0-4.0-8.129","true","130","3.149999999999999","","",""
"1954","5","confid","","","html-slider-response","1152","855516","0.0-4.0-10.129-0.129","","","","Rate your confidence","1",""
"1051.7000000476837","e","choice","left","e","experimental","1159","858360","0.0-4.0-8.130","true","131","3.149999999999999","","",""
"2059.100000143051","4","confid","","","html-slider-response","1161","860922","0.0-4.0-10.130-0.130","","","","Rate your confidence","1",""
"802","i","choice","right","i","experimental","1168","863528","0.0-4.0-8.131","true","132","3.049999999999999","","",""
"2474.899999856949","5","confid","","","html-slider-response","1170","866507","0.0-4.0-10.131-0.131","","","","Rate your confidence","1",""
"144.39999985694885","i","choice","left","e","experimental","1177","868445","0.0-4.0-8.132","false","133","3.049999999999999","","",""
"1979.7000000476837","2","confid","","","html-slider-response","1179","870930","0.0-4.0-10.132-0.132","","","","Rate your confidence","1",""
"1519.2999999523163","i","choice","right","i","experimental","1186","874235","0.0-4.0-8.133","true","134","3.149999999999999","","",""
"2289.9000000953674","5","confid","","","html-slider-response","1188","877030","0.0-4.0-10.133-0.133","","","","Rate your confidence","1",""
"1851.3999998569489","i","choice","right","i","experimental","1195","880688","0.0-4.0-8.134","true","135","3.149999999999999","","",""
"3466","5","confid","","","html-slider-response","1197","884659","0.0-4.0-10.134-0.134","","","","Rate your confidence","1",""
"1375.7999999523163","i","choice","left","e","experimental","1204","887835","0.0-4.0-8.135","false","136","3.049999999999999","","",""
"2410.2999999523163","5","confid","","","html-slider-response","1206","890750","0.0-4.0-10.135-0.135","","","","Rate your confidence","1",""
"82.89999985694885","i","choice","right","i","experimental","1213","892621","0.0-4.0-8.136","true","137","3.149999999999999","","",""
"1437.2000000476837","5","confid","","","html-slider-response","1215","894563","0.0-4.0-10.136-0.136","","","","Rate your confidence","1",""
"2287","e","choice","left","e","experimental","1222","898652","0.0-4.0-8.137","true","138","3.149999999999999","","",""
"2325.300000190735","4","confid","","","html-slider-response","1224","901481","0.0-4.0-10.137-0.137","","","","Rate your confidence","1",""
"218.80000019073486","i","choice","right","i","experimental","1231","903493","0.0-4.0-8.138","true","139","3.049999999999999","","",""
"4113.200000047684","5","confid","","","html-slider-response","1233","908125","0.0-4.0-10.138-0.138","","","","Rate your confidence","1",""
"1217.2000000476837","e","choice","left","e","experimental","1240","911133","0.0-4.0-8.139","true","140","3.049999999999999","","",""
"1827.0999999046326","5","confid","","","html-slider-response","1242","913464","0.0-4.0-10.139-0.139","","","","Rate your confidence","1",""
"285.90000009536743","i","choice","right","i","experimental","1249","915551","0.0-4.0-8.140","true","141","2.949999999999999","","",""
"2712.2999999523163","4","confid","","","html-slider-response","1251","918767","0.0-4.0-10.140-0.140","","","","Rate your confidence","1",""
"1474.0999999046326","e","choice","left","e","experimental","1258","922033","0.0-4.0-8.141","true","142","2.949999999999999","","",""
"1287.7999999523163","4","confid","","","html-slider-response","1260","923825","0.0-4.0-10.141-0.141","","","","Rate your confidence","1",""
"1945.7999999523163","e","choice","right","i","experimental","1267","927558","0.0-4.0-8.142","false","143","2.8499999999999988","","",""
"3083.5","4","confid","","","html-slider-response","1269","931145","0.0-4.0-10.142-0.142","","","","Rate your confidence","1",""
"1215","e","choice","left","e","experimental","1276","934150","0.0-4.0-8.143","true","144","2.949999999999999","","",""
"1578.3999998569489","6","confid","","","html-slider-response","1278","936232","0.0-4.0-10.143-0.143","","","","Rate your confidence","1",""
"798.3999998569489","e","choice","left","e","experimental","1285","938819","0.0-4.0-8.144","true","145","2.949999999999999","","",""
"1479","5","confid","","","html-slider-response","1287","940800","0.0-4.0-10.144-0.144","","","","Rate your confidence","1",""
"868.9000000953674","e","choice","right","i","experimental","1294","943473","0.0-4.0-8.145","false","146","2.8499999999999988","","",""
"2359.899999856949","4","confid","","","html-slider-response","1296","946336","0.0-4.0-10.145-0.145","","","","Rate your confidence","1",""
"703.2000000476837","e","choice","left","e","experimental","1303","948830","0.0-4.0-8.146","true","147","2.949999999999999","","",""
"1278.9000000953674","5","confid","","","html-slider-response","1305","950613","0.0-4.0-10.146-0.146","","","","Rate your confidence","1",""
"1210.2999999523163","i","choice","right","i","experimental","1312","953631","0.0-4.0-8.147","true","148","2.949999999999999","","",""
"1748.9000000953674","5","confid","","","html-slider-response","1314","955883","0.0-4.0-10.147-0.147","","","","Rate your confidence","1",""
"4499.299999952316","e","choice","left","e","experimental","1321","962173","0.0-4.0-8.148","true","149","2.8499999999999988","","",""
"3153.9000000953674","4","confid","","","html-slider-response","1323","965831","0.0-4.0-10.148-0.148","","","","Rate your confidence","1",""
"2810.2999999523163","e","choice","right","i","experimental","1330","970431","0.0-4.0-8.149","false","150","2.8499999999999988","","",""
"2034.2999999523163","3","confid","","","html-slider-response","1332","972971","0.0-4.0-10.149-0.149","","","","Rate your confidence","1",""
"1522.7999999523163","i","choice","right","i","experimental","1339","976287","0.0-4.0-8.150","true","151","2.949999999999999","","",""
"2605.899999856949","5","confid","","","html-slider-response","1341","979399","0.0-4.0-10.150-0.150","","","","Rate your confidence","1",""
"2125.4000000953674","i","choice","left","e","experimental","1348","983314","0.0-4.0-8.151","false","152","2.949999999999999","","",""
"1174.8000001907349","4","confid","","","html-slider-response","1350","984994","0.0-4.0-10.151-0.151","","","","Rate your confidence","1",""
"776.2000000476837","i","choice","right","i","experimental","1358","998144","0.0-4.0-8.152","true","153","3.049999999999999","","",""
"1874.6000001430511","4","confid","","","html-slider-response","1360","1000524","0.0-4.0-10.152-0.152","","","","Rate your confidence","1",""
"854.6000001430511","i","choice","left","e","experimental","1367","1003170","0.0-4.0-8.153","false","154","3.049999999999999","","",""
"1637.8000001907349","4","confid","","","html-slider-response","1369","1005313","0.0-4.0-10.153-0.153","","","","Rate your confidence","1",""
"582.2999999523163","i","choice","right","i","experimental","1376","1007687","0.0-4.0-8.154","true","155","3.149999999999999","","",""
"1195","4","confid","","","html-slider-response","1378","1009387","0.0-4.0-10.154-0.154","","","","Rate your confidence","1",""
"659.2000000476837","i","choice","left","e","experimental","1385","1011832","0.0-4.0-8.155","false","156","3.149999999999999","","",""
"2043.3999998569489","4","confid","","","html-slider-response","1387","1014380","0.0-4.0-10.155-0.155","","","","Rate your confidence","1",""
"1059.2000000476837","i","choice","left","e","experimental","1394","1017240","0.0-4.0-8.156","false","157","3.249999999999999","","",""
"1906.5","4","confid","","","html-slider-response","1396","1019651","0.0-4.0-10.156-0.156","","","","Rate your confidence","1",""
"333.80000019073486","i","choice","right","i","experimental","1403","1021778","0.0-4.0-8.157","true","158","3.349999999999999","","",""
"2458.2999999523163","4","confid","","","html-slider-response","1405","1024742","0.0-4.0-10.157-0.157","","","","Rate your confidence","1",""
"1336.2999999523163","e","choice","right","i","experimental","1412","1027871","0.0-4.0-8.158","false","159","3.349999999999999","","",""
"2617.300000190735","4","confid","","","html-slider-response","1414","1030994","0.0-4.0-10.158-0.158","","","","Rate your confidence","1",""
"964.7000000476837","e","choice","left","e","experimental","1421","1033760","0.0-4.0-8.159","true","160","3.4499999999999993","","",""
"1324.0999999046326","5","confid","","","html-slider-response","1423","1035588","0.0-4.0-10.159-0.159","","","","Rate your confidence","1",""
"596.6000001430511","e","choice","left","e","experimental","1430","1037993","0.0-4.0-8.160","true","161","3.4499999999999993","","",""
"3050.600000143051","5","confid","","","html-slider-response","1432","1041547","0.0-4.0-10.160-0.160","","","","Rate your confidence","1",""
"884.5999999046326","i","choice","right","i","experimental","1439","1044233","0.0-4.0-8.161","true","162","3.349999999999999","","",""
"1999.2000000476837","5","confid","","","html-slider-response","1441","1046736","0.0-4.0-10.161-0.161","","","","Rate your confidence","1",""
"1207.1999998092651","i","choice","right","i","experimental","1448","1049731","0.0-4.0-8.162","true","163","3.349999999999999","","",""
"1395","5","confid","","","html-slider-response","1450","1051630","0.0-4.0-10.162-0.162","","","","Rate your confidence","1",""
"1232.6000001430511","e","choice","left","e","experimental","1457","1054652","0.0-4.0-8.163","true","164","3.249999999999999","","",""
"2395","5","confid","","","html-slider-response","1459","1057551","0.0-4.0-10.163-0.163","","","","Rate your confidence","1",""
"908.5999999046326","e","choice","left","e","experimental","1466","1060252","0.0-4.0-8.164","true","165","3.249999999999999","","",""
"1592","6","confid","","","html-slider-response","1468","1062349","0.0-4.0-10.164-0.164","","","","Rate your confidence","1",""
"1061.6000001430511","i","choice","right","i","experimental","1475","1065212","0.0-4.0-8.165","true","166","3.149999999999999","","",""
"1837.2000000476837","5","confid","","","html-slider-response","1477","1067553","0.0-4.0-10.165-0.165","","","","Rate your confidence","1",""
"995.5","i","choice","right","i","experimental","1484","1070351","0.0-4.0-8.166","true","167","3.149999999999999","","",""
"2235.399999856949","5","confid","","","html-slider-response","1486","1073091","0.0-4.0-10.166-0.166","","","","Rate your confidence","1",""
"419.2999999523163","i","choice","left","e","experimental","1493","1075295","0.0-4.0-8.167","false","168","3.049999999999999","","",""
"1760.2000000476837","5","confid","","","html-slider-response","1495","1077572","0.0-4.0-10.167-0.167","","","","Rate your confidence","1",""
"529.7999999523163","i","choice","right","i","experimental","1502","1079890","0.0-4.0-8.168","true","169","3.149999999999999","","",""
"2737.600000143051","5","confid","","","html-slider-response","1504","1083133","0.0-4.0-10.168-0.168","","","","Rate your confidence","1",""
"1034.8999998569489","e","choice","left","e","experimental","1511","1085973","0.0-4.0-8.169","true","170","3.149999999999999","","",""
"1776.5","4","confid","","","html-slider-response","1513","1088253","0.0-4.0-10.169-0.169","","","","Rate your confidence","1",""
"877.5","i","choice","right","i","experimental","1520","1090925","0.0-4.0-8.170","true","171","3.049999999999999","","",""
"2278.4000000953674","5","confid","","","html-slider-response","1522","1093708","0.0-4.0-10.170-0.170","","","","Rate your confidence","1",""
"2195.5999999046326","e","choice","left","e","experimental","1529","1097704","0.0-4.0-8.171","true","172","3.049999999999999","","",""
"3471.100000143051","5","confid","","","html-slider-response","1531","1101679","0.0-4.0-10.171-0.171","","","","Rate your confidence","1",""
"381.09999990463257","i","choice","right","i","experimental","1538","1103865","0.0-4.0-8.172","true","173","2.949999999999999","","",""
"1758.2000000476837","5","confid","","","html-slider-response","1540","1106127","0.0-4.0-10.172-0.172","","","","Rate your confidence","1",""
"2873.7000000476837","i","choice","left","e","experimental","1547","1110789","0.0-4.0-8.173","false","174","2.949999999999999","","",""
"5709.799999952316","5","confid","","","html-slider-response","1549","1117004","0.0-4.0-10.173-0.173","","","","Rate your confidence","1",""
"1087.7999999523163","e","choice","left","e","experimental","1556","1119884","0.0-4.0-8.174","true","175","3.049999999999999","","",""
"1999.8000001907349","6","confid","","","html-slider-response","1558","1122400","0.0-4.0-10.174-0.174","","","","Rate your confidence","1",""
"1065.2000000476837","i","choice","right","i","experimental","1565","1125258","0.0-4.0-8.175","true","176","3.049999999999999","","",""
"1637.7999999523163","5","confid","","","html-slider-response","1567","1127400","0.0-4.0-10.175-0.175","","","","Rate your confidence","1",""
"999.9000000953674","e","choice","left","e","experimental","1574","1130204","0.0-4.0-8.176","true","177","2.949999999999999","","",""
"1579.1000001430511","3","confid","","","html-slider-response","1576","1132287","0.0-4.0-10.176-0.176","","","","Rate your confidence","1",""
"768.5","i","choice","right","i","experimental","1583","1134853","0.0-4.0-8.177","true","178","2.949999999999999","","",""
"2279.2000000476837","4","confid","","","html-slider-response","1585","1137636","0.0-4.0-10.177-0.177","","","","Rate your confidence","1",""
"2175.5999999046326","e","choice","right","i","experimental","1592","1141599","0.0-4.0-8.178","false","179","2.8499999999999988","","",""
"1517.7000000476837","3","confid","","","html-slider-response","1594","1143620","0.0-4.0-10.178-0.178","","","","Rate your confidence","1",""
"7058.299999952316","e","choice","left","e","experimental","1601","1152468","0.0-4.0-8.179","true","180","2.949999999999999","","",""
"2669.100000143051","4","confid","","","html-slider-response","1603","1155640","0.0-4.0-10.179-0.179","","","","Rate your confidence","1",""
"1033","i","choice","right","i","experimental","1610","1158462","0.0-4.0-8.180","true","181","2.949999999999999","","",""
"1771.9000000953674","5","confid","","","html-slider-response","1612","1160738","0.0-4.0-10.180-0.180","","","","Rate your confidence","1",""
"1299.2999999523163","e","choice","left","e","experimental","1619","1163826","0.0-4.0-8.181","true","182","2.8499999999999988","","",""
"1429.0999999046326","5","confid","","","html-slider-response","1621","1165760","0.0-4.0-10.181-0.181","","","","Rate your confidence","1",""
"9.699999809265137","i","choice","right","i","experimental","1628","1167573","0.0-4.0-8.182","true","183","2.8499999999999988","","",""
"1724.4000000953674","5","confid","","","html-slider-response","1630","1169801","0.0-4.0-10.182-0.182","","","","Rate your confidence","1",""
"512","i","choice","left","e","experimental","1637","1172106","0.0-4.0-8.183","false","184","2.7499999999999987","","",""
"1282.2000000476837","5","confid","","","html-slider-response","1639","1173892","0.0-4.0-10.183-0.183","","","","Rate your confidence","1",""
"492.7000000476837","i","choice","right","i","experimental","1646","1176174","0.0-4.0-8.184","true","185","2.8499999999999988","","",""
"2595.9000000953674","6","confid","","","html-slider-response","1648","1179274","0.0-4.0-10.184-0.184","","","","Rate your confidence","1",""
"1497.2999999523163","e","choice","left","e","experimental","1655","1182568","0.0-4.0-8.185","true","186","2.8499999999999988","","",""
"1970.2999999523163","4","confid","","","html-slider-response","1657","1185043","0.0-4.0-10.185-0.185","","","","Rate your confidence","1",""
"1484.5999999046326","e","choice","right","i","experimental","1664","1188316","0.0-4.0-8.186","false","187","2.7499999999999987","","",""
"6507.900000095367","4","confid","","","html-slider-response","1666","1195330","0.0-4.0-10.186-0.186","","","","Rate your confidence","1",""
"1091","e","choice","left","e","experimental","1673","1198207","0.0-4.0-8.187","true","188","2.8499999999999988","","",""
"2131.899999856949","5","confid","","","html-slider-response","1675","1200843","0.0-4.0-10.187-0.187","","","","Rate your confidence","1",""
"1145.6000001430511","e","choice","right","i","experimental","1682","1203787","0.0-4.0-8.188","false","189","2.8499999999999988","","",""
"1355.5999999046326","5","confid","","","html-slider-response","1684","1205646","0.0-4.0-10.188-0.188","","","","Rate your confidence","1",""
"557.2000000476837","i","choice","left","e","experimental","1691","1207988","0.0-4.0-8.189","false","190","2.949999999999999","","",""
"1383.0999999046326","5","confid","","","html-slider-response","1693","1209874","0.0-4.0-10.189-0.189","","","","Rate your confidence","1",""
"154.79999995231628","i","choice","right","i","experimental","1700","1211821","0.0-4.0-8.190","true","191","3.049999999999999","","",""
"1639.5999999046326","5","confid","","","html-slider-response","1702","1213965","0.0-4.0-10.190-0.190","","","","Rate your confidence","1",""
"698.6000001430511","e","choice","left","e","experimental","1709","1216463","0.0-4.0-8.191","true","192","3.049999999999999","","",""
"1689.1000001430511","6","confid","","","html-slider-response","1711","1218656","0.0-4.0-10.191-0.191","","","","Rate your confidence","1",""
"805.3999998569489","e","choice","left","e","experimental","1718","1221265","0.0-4.0-8.192","true","193","2.949999999999999","","",""
"2099.2999999523163","5","confid","","","html-slider-response","1720","1223869","0.0-4.0-10.192-0.192","","","","Rate your confidence","1",""
"260.90000009536743","i","choice","right","i","experimental","1727","1225931","0.0-4.0-8.193","true","194","2.949999999999999","","",""
"2206.0999999046326","5","confid","","","html-slider-response","1729","1228642","0.0-4.0-10.193-0.193","","","","Rate your confidence","1","84857"
