"rt","response","task","target_side","correct_response","trial_type","trial_index","time_elapsed","internal_node_id","correct","trial_number","n_dots","stimulus","slider_start","participant"
"1032","e","choice","left","e","practice","10","97957","0.0-4.0-8.0","true","1","4.25","","",""
"792","i","choice","right","i","practice","18","101042","0.0-4.0-8.1","true","2","4.25","","",""
"504.40000000596046","e","choice","left","e","practice","26","103827","0.0-4.0-8.2","true","3","3.85","","",""
"648.7000000029802","i","choice","right","i","practice","34","106757","0.0-4.0-8.3","true","4","3.85","","",""
"525.7999999970198","i","choice","left","e","practice","42","109579","0.0-4.0-8.4","false","5","3.45","","",""
"524.6999999880791","i","choice","right","i","practice","50","112400","0.0-4.0-8.5","true","6","3.85","","",""
"611.2999999970198","i","choice","right","i","practice","58","115293","0.0-4.0-8.6","true","7","3.85","","",""
"441.09999999403954","e","choice","left","e","practice","66","118015","0.0-4.0-8.7","true","8","3.65","","",""
"502.29999999701977","i","choice","right","i","practice","74","120811","0.0-4.0-8.8","true","9","3.65","","",""
"363.09999999403954","e","choice","left","e","practice","82","123454","0.0-4.0-8.9","true","10","3.4499999999999997","","",""
"372.8999999910593","e","choice","left","e","practice","90","126122","0.0-4.0-8.10","true","11","3.4499999999999997","","",""
"481.70000000298023","i","choice","right","i","practice","98","128900","0.0-4.0-8.11","true","12","3.3499999999999996","","",""
"466","e","choice","left","e","practice","106","131648","0.0-4.0-8.12","true","13","3.3499999999999996","","",""
"441.20000000298023","i","choice","right","i","practice","114","134370","0.0-4.0-8.13","true","14","3.2499999999999996","","",""
"413.90000000596046","i","choice","right","i","practice","122","137066","0.0-4.0-8.14","true","15","3.2499999999999996","","",""
"474.90000000596046","e","choice","left","e","practice","130","139832","0.0-4.0-8.15","true","16","3.1499999999999995","","",""
"444.09999999403954","i","choice","right","i","practice","138","142569","0.0-4.0-8.16","true","17","3.1499999999999995","","",""
"524.9000000059605","e","choice","left","e","practice","146","145386","0.0-4.0-8.17","true","18","3.0499999999999994","","",""
"520.7999999970198","i","choice","right","i","practice","154","148191","0.0-4.0-8.18","true","19","3.0499999999999994","","",""
"409.90000000596046","e","choice","left","e","practice","162","150892","0.0-4.0-8.19","true","20","2.9499999999999993","","",""
"488.19999998807907","e","choice","left","e","practice","170","153675","0.0-4.0-8.20","true","21","2.9499999999999993","","",""
"533.2000000029802","i","choice","right","i","practice","178","156493","0.0-4.0-8.21","true","22","2.849999999999999","","",""
"488.20000000298023","e","choice","right","i","practice","186","159265","0.0-4.0-8.22","false","23","2.849999999999999","","",""
"492.69999998807907","e","choice","left","e","practice","194","162040","0.0-4.0-8.23","true","24","2.9499999999999993","","",""
"468.29999999701977","e","choice","left","e","practice","202","164800","0.0-4.0-8.24","true","25","2.9499999999999993","","",""
"531.5999999940395","i","choice","right","i","practice","210","167612","0.0-4.0-8.25","true","26","2.849999999999999","","",""
"425","e","choice","left","e","experimental","221","231500","0.0-4.0-8.26","true","27","2.849999999999999","","",""
"3350.5","4","confid","","","html-slider-response","223","235353","0.0-4.0-10.26-0.26","","","","Rate your confidence","1",""
"1254.2000000029802","i","choice","right","i","experimental","230","238377","0.0-4.0-8.27","true","28","2.749999999999999","","",""
"4895.399999991059","3","confid","","","html-slider-response","232","243774","0.0-4.0-10.27-0.27","","","","Rate your confidence","1",""
"449.6000000089407","e","choice","left","e","experimental","239","245995","0.0-4.0-8.28","true","29","2.749999999999999","","",""
"3123.7999999970198","4","confid","","","html-slider-response","241","249622","0.0-4.0-10.28-0.28","","","","Rate your confidence","1",""
"646.7000000029802","e","choice","right","i","experimental","248","252047","0.0-4.0-8.29","false","30","2.649999999999999","","",""
"2919.2999999970198","3","confid","","","html-slider-response","250","255470","0.0-4.0-10.29-0.29","","","","Rate your confidence","1",""
"1272.7000000029802","i","choice","left","e","experimental","257","258524","0.0-4.0-8.30","false","31","2.749999999999999","","",""
"3271.5","2","confid","","","html-slider-response","259","262298","0.0-4.0-10.30-0.30","","","","Rate your confidence","1",""
"764","e","choice","right","i","experimental","266","264838","0.0-4.0-8.31","false","32","2.849999999999999","","",""
"1938.5999999940395","3","confid","","","html-slider-response","268","267279","0.0-4.0-10.31-0.31","","","","Rate your confidence","1",""
"922.8000000119209","i","choice","left","e","experimental","275","269972","0.0-4.0-8.32","false","33","2.9499999999999993","","",""
"1748.9000000059605","4","confid","","","html-slider-response","277","272223","0.0-4.0-10.32-0.32","","","","Rate your confidence","1",""
"550.7000000029802","i","choice","right","i","experimental","284","274537","0.0-4.0-8.33","true","34","3.0499999999999994","","",""
"2591.300000011921","4","confid","","","html-slider-response","286","277630","0.0-4.0-10.33-0.33","","","","Rate your confidence","1",""
"455.5","e","choice","left","e","experimental","293","279847","0.0-4.0-8.34","true","35","3.0499999999999994","","",""
"2973.2000000029802","4","confid","","","html-slider-response","295","283322","0.0-4.0-10.34-0.34","","","","Rate your confidence","1",""
"579","e","choice","right","i","experimental","302","285664","0.0-4.0-8.35","false","36","2.9499999999999993","","",""
"2517","3","confid","","","html-slider-response","304","288683","0.0-4.0-10.35-0.35","","","","Rate your confidence","1",""
"1062.7000000029802","e","choice","right","i","experimental","311","291514","0.0-4.0-8.36","false","37","3.0499999999999994","","",""
"2340.5","3","confid","","","html-slider-response","313","294355","0.0-4.0-10.36-0.36","","","","Rate your confidence","1",""
"1395.2000000029802","e","choice","left","e","experimental","320","297520","0.0-4.0-8.37","true","38","3.1499999999999995","","",""
"2101.7000000029802","4","confid","","","html-slider-response","322","300123","0.0-4.0-10.37-0.37","","","","Rate your confidence","1",""
"481.5","i","choice","right","i","experimental","329","302368","0.0-4.0-8.38","true","39","3.1499999999999995","","",""
"2449.0999999940395","3","confid","","","html-slider-response","331","305319","0.0-4.0-10.38-0.38","","","","Rate your confidence","1",""
"778.2000000029802","e","choice","left","e","experimental","338","307862","0.0-4.0-8.39","true","40","3.0499999999999994","","",""
"2257.7999999970198","3","confid","","","html-slider-response","340","310621","0.0-4.0-10.39-0.39","","","","Rate your confidence","1",""
"664.9000000059605","i","choice","right","i","experimental","347","313059","0.0-4.0-8.40","true","41","3.0499999999999994","","",""
"4157.5","3","confid","","","html-slider-response","349","317721","0.0-4.0-10.40-0.40","","","","Rate your confidence","1",""
"480.79999999701977","e","choice","left","e","experimental","356","319997","0.0-4.0-8.41","true","42","2.9499999999999993","","",""
"2043","2","confid","","","html-slider-response","358","322544","0.0-4.0-10.41-0.41","","","","Rate your confidence","1",""
"1032.2999999970198","i","choice","right","i","experimental","365","325370","0.0-4.0-8.42","true","43","2.9499999999999993","","",""
"2294.8999999910593","3","confid","","","html-slider-response","367","328169","0.0-4.0-10.42-0.42","","","","Rate your confidence","1",""
"603.3999999910593","e","choice","left","e","experimental","374","330546","0.0-4.0-8.43","true","44","2.849999999999999","","",""
"2470.2000000029802","4","confid","","","html-slider-response","376","333518","0.0-4.0-10.43-0.43","","","","Rate your confidence","1",""
"1099.3999999910593","e","choice","right","i","experimental","383","336383","0.0-4.0-8.44","false","45","2.849999999999999","","",""
"2968","4","confid","","","html-slider-response","385","339857","0.0-4.0-10.44-0.44","","","","Rate your confidence","1",""
"541.5","e","choice","left","e","experimental","392","342163","0.0-4.0-8.45","true","46","2.9499999999999993","","",""
"2837.5","4","confid","","","html-slider-response","394","345502","0.0-4.0-10.45-0.45","","","","Rate your confidence","1",""
"1307.7000000029802","e","choice","right","i","experimental","401","348578","0.0-4.0-8.46","false","47","2.9499999999999993","","",""
"2697.1000000089407","3","confid","","","html-slider-response","403","351777","0.0-4.0-10.46-0.46","","","","Rate your confidence","1",""
"629.1999999880791","e","choice","left","e","experimental","410","354175","0.0-4.0-8.47","true","48","3.0499999999999994","","",""
"2720","3","confid","","","html-slider-response","412","357398","0.0-4.0-10.47-0.47","","","","Rate your confidence","1",""
"674.0999999940395","i","choice","right","i","experimental","419","359847","0.0-4.0-8.48","true","49","3.0499999999999994","","",""
"2045.4000000059605","3","confid","","","html-slider-response","421","362394","0.0-4.0-10.48-0.48","","","","Rate your confidence","1",""
"359.20000000298023","e","choice","left","e","experimental","428","364520","0.0-4.0-8.49","true","50","2.9499999999999993","","",""
"1849.6000000089407","4","confid","","","html-slider-response","430","366872","0.0-4.0-10.49-0.49","","","","Rate your confidence","1",""
"520.3999999910593","i","choice","right","i","experimental","437","369160","0.0-4.0-8.50","true","51","2.9499999999999993","","",""
"1751.7999999970198","4","confid","","","html-slider-response","439","371413","0.0-4.0-10.50-0.50","","","","Rate your confidence","1",""
"531.3999999910593","e","choice","left","e","experimental","446","373714","0.0-4.0-8.51","true","52","2.849999999999999","","",""
"1762.2000000029802","4","confid","","","html-slider-response","448","375978","0.0-4.0-10.51-0.51","","","","Rate your confidence","1",""
"652.2999999970198","i","choice","right","i","experimental","455","378426","0.0-4.0-8.52","true","53","2.849999999999999","","",""
"1826.5999999940395","4","confid","","","html-slider-response","457","380757","0.0-4.0-10.52-0.52","","","","Rate your confidence","1",""
"769.7000000029802","i","choice","left","e","experimental","464","383321","0.0-4.0-8.53","false","54","2.749999999999999","","",""
"1523.5999999940395","3","confid","","","html-slider-response","466","385349","0.0-4.0-10.53-0.53","","","","Rate your confidence","1",""
"353.79999999701977","e","choice","left","e","experimental","473","387487","0.0-4.0-8.54","true","55","2.849999999999999","","",""
"2118.5999999940395","4","confid","","","html-slider-response","475","390109","0.0-4.0-10.54-0.54","","","","Rate your confidence","1",""
"463.20000000298023","i","choice","right","i","experimental","482","392359","0.0-4.0-8.55","true","56","2.849999999999999","","",""
"1935.300000011921","4","confid","","","html-slider-response","484","394799","0.0-4.0-10.55-0.55","","","","Rate your confidence","1",""
"915.5","e","choice","right","i","experimental","491","397509","0.0-4.0-8.56","false","57","2.749999999999999","","",""
"2396.0999999940395","3","confid","","","html-slider-response","493","400409","0.0-4.0-10.56-0.56","","","","Rate your confidence","1",""
"476.09999999403954","e","choice","left","e","experimental","500","402675","0.0-4.0-8.57","true","58","2.849999999999999","","",""
"1499.5999999940395","4","confid","","","html-slider-response","502","404679","0.0-4.0-10.57-0.57","","","","Rate your confidence","1",""
"464.40000000596046","i","choice","right","i","experimental","509","406929","0.0-4.0-8.58","true","59","2.849999999999999","","",""
"2030.9000000059605","4","confid","","","html-slider-response","511","409463","0.0-4.0-10.58-0.58","","","","Rate your confidence","1",""
"522.4000000059605","i","choice","left","e","experimental","518","411771","0.0-4.0-8.59","false","60","2.749999999999999","","",""
"1866.9000000059605","3","confid","","","html-slider-response","520","414143","0.0-4.0-10.59-0.59","","","","Rate your confidence","1",""
"412.30000001192093","e","choice","left","e","experimental","527","416336","0.0-4.0-8.60","true","61","2.849999999999999","","",""
"2267.5999999940395","4","confid","","","html-slider-response","529","419107","0.0-4.0-10.60-0.60","","","","Rate your confidence","1",""
"1460.300000011921","e","choice","right","i","experimental","536","422360","0.0-4.0-8.61","false","62","2.849999999999999","","",""
"3418.2999999970198","3","confid","","","html-slider-response","538","426282","0.0-4.0-10.61-0.61","","","","Rate your confidence","1",""
"943.9000000059605","e","choice","right","i","experimental","545","429023","0.0-4.0-8.62","false","63","2.9499999999999993","","",""
"1820.4000000059605","3","confid","","","html-slider-response","547","431347","0.0-4.0-10.62-0.62","","","","Rate your confidence","1",""
"781.6000000089407","e","choice","left","e","experimental","554","433919","0.0-4.0-8.63","true","64","3.0499999999999994","","",""
"2427.6000000089407","4","confid","","","html-slider-response","556","436851","0.0-4.0-10.63-0.63","","","","Rate your confidence","1",""
"488.1000000089407","e","choice","left","e","experimental","563","439124","0.0-4.0-8.64","true","65","3.0499999999999994","","",""
"1891.4000000059605","4","confid","","","html-slider-response","565","441531","0.0-4.0-10.64-0.64","","","","Rate your confidence","1",""
"559.7999999970198","e","choice","right","i","experimental","572","443874","0.0-4.0-8.65","false","66","2.9499999999999993","","",""
"1531","3","confid","","","html-slider-response","574","445910","0.0-4.0-10.65-0.65","","","","Rate your confidence","1",""
"691.5","e","choice","left","e","experimental","581","448399","0.0-4.0-8.66","true","67","3.0499999999999994","","",""
"3075.2000000029802","3","confid","","","html-slider-response","583","451978","0.0-4.0-10.66-0.66","","","","Rate your confidence","1",""
"368","i","choice","right","i","experimental","590","454137","0.0-4.0-8.67","true","68","3.0499999999999994","","",""
"2816.0999999940395","4","confid","","","html-slider-response","592","457456","0.0-4.0-10.67-0.67","","","","Rate your confidence","1",""
"545.5999999940395","e","choice","left","e","experimental","600","521734","0.0-4.0-8.68","true","69","2.9499999999999993","","",""
"3051.9000000059605","3","confid","","","html-slider-response","602","525289","0.0-4.0-10.68-0.68","","","","Rate your confidence","1",""
"318","i","choice","right","i","experimental","609","527391","0.0-4.0-8.69","true","70","2.9499999999999993","","",""
"3544.6000000089407","4","confid","","","html-slider-response","611","531439","0.0-4.0-10.69-0.69","","","","Rate your confidence","1",""
"328.59999999403954","e","choice","left","e","experimental","618","533554","0.0-4.0-8.70","true","71","2.849999999999999","","",""
"2733.5","4","confid","","","html-slider-response","620","536791","0.0-4.0-10.70-0.70","","","","Rate your confidence","1",""
"319.59999999403954","i","choice","right","i","experimental","627","538904","0.0-4.0-8.71","true","72","2.849999999999999","","",""
"1747.2000000029802","4","confid","","","html-slider-response","629","541157","0.0-4.0-10.71-0.71","","","","Rate your confidence","1",""
"812.2000000029802","e","choice","left","e","experimental","636","543762","0.0-4.0-8.72","true","73","2.749999999999999","","",""
"1462.699999988079","3","confid","","","html-slider-response","638","545730","0.0-4.0-10.72-0.72","","","","Rate your confidence","1",""
"392.5","i","choice","right","i","experimental","645","547910","0.0-4.0-8.73","true","74","2.749999999999999","","",""
"1470.7999999970198","3","confid","","","html-slider-response","647","549885","0.0-4.0-10.73-0.73","","","","Rate your confidence","1",""
"344.09999999403954","i","choice","right","i","experimental","654","552012","0.0-4.0-8.74","true","75","2.649999999999999","","",""
"1520.9000000059605","3","confid","","","html-slider-response","656","554048","0.0-4.0-10.74-0.74","","","","Rate your confidence","1",""
"303.20000000298023","e","choice","left","e","experimental","663","556135","0.0-4.0-8.75","true","76","2.649999999999999","","",""
"1800.699999988079","4","confid","","","html-slider-response","665","558439","0.0-4.0-10.75-0.75","","","","Rate your confidence","1",""
"315.59999999403954","i","choice","right","i","experimental","672","560537","0.0-4.0-8.76","true","77","2.549999999999999","","",""
"1494.300000011921","3","confid","","","html-slider-response","674","562535","0.0-4.0-10.76-0.76","","","","Rate your confidence","1",""
"335","e","choice","left","e","experimental","681","564648","0.0-4.0-8.77","true","78","2.549999999999999","","",""
"2581.3999999910593","3","confid","","","html-slider-response","683","567733","0.0-4.0-10.77-0.77","","","","Rate your confidence","1",""
"366.20000000298023","i","choice","left","e","experimental","690","569891","0.0-4.0-8.78","false","79","2.449999999999999","","",""
"1810.7999999970198","3","confid","","","html-slider-response","692","572207","0.0-4.0-10.78-0.78","","","","Rate your confidence","1",""
"501.6000000089407","i","choice","right","i","experimental","699","574487","0.0-4.0-8.79","true","80","2.549999999999999","","",""
"1919.7000000029802","3","confid","","","html-slider-response","701","576910","0.0-4.0-10.79-0.79","","","","Rate your confidence","1",""
"303.1000000089407","i","choice","right","i","experimental","708","578998","0.0-4.0-8.80","true","81","2.549999999999999","","",""
"1920.3999999910593","4","confid","","","html-slider-response","710","581435","0.0-4.0-10.80-0.80","","","","Rate your confidence","1",""
"416.1000000089407","e","choice","left","e","experimental","717","583638","0.0-4.0-8.81","true","82","2.449999999999999","","",""
"1500.8999999910593","4","confid","","","html-slider-response","719","585642","0.0-4.0-10.81-0.81","","","","Rate your confidence","1",""
"328.90000000596046","e","choice","left","e","experimental","726","587766","0.0-4.0-8.82","true","83","2.449999999999999","","",""
"2409.699999988079","4","confid","","","html-slider-response","728","590679","0.0-4.0-10.82-0.82","","","","Rate your confidence","1",""
"490.6000000089407","e","choice","right","i","experimental","735","592966","0.0-4.0-8.83","false","84","2.3499999999999988","","",""
"1622","3","confid","","","html-slider-response","737","595092","0.0-4.0-10.83-0.83","","","","Rate your confidence","1",""
"443.29999999701977","i","choice","left","e","experimental","744","597320","0.0-4.0-8.84","false","85","2.449999999999999","","",""
"1963.8999999910593","3","confid","","","html-slider-response","746","599787","0.0-4.0-10.84-0.84","","","","Rate your confidence","1",""
"431.19999998807907","i","choice","right","i","experimental","753","602004","0.0-4.0-8.85","true","86","2.549999999999999","","",""
"2221.4000000059605","3","confid","","","html-slider-response","755","604730","0.0-4.0-10.85-0.85","","","","Rate your confidence","1",""
"284.1000000089407","e","choice","left","e","experimental","762","606797","0.0-4.0-8.86","true","87","2.549999999999999","","",""
"1738.2000000029802","4","confid","","","html-slider-response","764","609040","0.0-4.0-10.86-0.86","","","","Rate your confidence","1",""
"424.70000000298023","i","choice","right","i","experimental","771","611259","0.0-4.0-8.87","true","88","2.449999999999999","","",""
"2839.7000000029802","4","confid","","","html-slider-response","773","614603","0.0-4.0-10.87-0.87","","","","Rate your confidence","1",""
"356.29999999701977","i","choice","right","i","experimental","780","616743","0.0-4.0-8.88","true","89","2.449999999999999","","",""
"2564.1000000089407","4","confid","","","html-slider-response","782","619811","0.0-4.0-10.88-0.88","","","","Rate your confidence","1",""
"763.3999999910593","e","choice","left","e","experimental","789","622357","0.0-4.0-8.89","true","90","2.3499999999999988","","",""
"1918","3","confid","","","html-slider-response","791","624779","0.0-4.0-10.89-0.89","","","","Rate your confidence","1",""
"355.29999999701977","i","choice","left","e","experimental","798","626916","0.0-4.0-8.90","false","91","2.3499999999999988","","",""
"1989.4000000059605","3","confid","","","html-slider-response","800","629410","0.0-4.0-10.90-0.90","","","","Rate your confidence","1",""
"502.3999999910593","e","choice","right","i","experimental","807","631698","0.0-4.0-8.91","false","92","2.449999999999999","","",""
"1349.9000000059605","4","confid","","","html-slider-response","809","633551","0.0-4.0-10.91-0.91","","","","Rate your confidence","1",""
"1840.7000000029802","i","choice","right","i","experimental","816","637173","0.0-4.0-8.92","true","93","2.549999999999999","","",""
"2488.9000000059605","4","confid","","","html-slider-response","818","640165","0.0-4.0-10.92-0.92","","","","Rate your confidence","1",""
"404.20000000298023","e","choice","left","e","experimental","825","642365","0.0-4.0-8.93","true","94","2.549999999999999","","",""
"1732.5999999940395","4","confid","","","html-slider-response","827","644599","0.0-4.0-10.93-0.93","","","","Rate your confidence","1",""
"360.30000001192093","i","choice","right","i","experimental","834","646743","0.0-4.0-8.94","true","95","2.449999999999999","","",""
"2066.7999999970198","3","confid","","","html-slider-response","836","649313","0.0-4.0-10.94-0.94","","","","Rate your confidence","1",""
"331.20000000298023","e","choice","left","e","experimental","843","651418","0.0-4.0-8.95","true","96","2.449999999999999","","",""
"1963","3","confid","","","html-slider-response","845","653883","0.0-4.0-10.95-0.95","","","","Rate your confidence","1",""
"462.19999998807907","e","choice","left","e","experimental","852","656114","0.0-4.0-8.96","true","97","2.3499999999999988","","",""
"1806.0999999940395","3","confid","","","html-slider-response","854","658422","0.0-4.0-10.96-0.96","","","","Rate your confidence","1",""
"673.3999999910593","i","choice","right","i","experimental","861","660869","0.0-4.0-8.97","true","98","2.3499999999999988","","",""
"2623.7999999970198","3","confid","","","html-slider-response","863","663995","0.0-4.0-10.97-0.97","","","","Rate your confidence","1",""
"376.20000000298023","i","choice","right","i","experimental","870","666150","0.0-4.0-8.98","true","99","2.2499999999999987","","",""
"2323.7000000029802","3","confid","","","html-slider-response","872","668976","0.0-4.0-10.98-0.98","","","","Rate your confidence","1",""
"446.5","e","choice","left","e","experimental","879","671195","0.0-4.0-8.99","true","100","2.2499999999999987","","",""
"1761.800000011921","4","confid","","","html-slider-response","881","673459","0.0-4.0-10.99-0.99","","","","Rate your confidence","1",""
"419.40000000596046","e","choice","right","i","experimental","888","675646","0.0-4.0-8.100","false","101","2.1499999999999986","","",""
"2029.2999999970198","4","confid","","","html-slider-response","890","678178","0.0-4.0-10.100-0.100","","","","Rate your confidence","1",""
"372.3999999910593","e","choice","left","e","experimental","897","680324","0.0-4.0-8.101","true","102","2.2499999999999987","","",""
"3034.5999999940395","4","confid","","","html-slider-response","899","683861","0.0-4.0-10.101-0.101","","","","Rate your confidence","1",""
"737.0999999940395","i","choice","right","i","experimental","906","686377","0.0-4.0-8.102","true","103","2.2499999999999987","","",""
"1690.5","4","confid","","","html-slider-response","908","688569","0.0-4.0-10.102-0.102","","","","Rate your confidence","1",""
"315.1000000089407","e","choice","left","e","experimental","915","690648","0.0-4.0-8.103","true","104","2.1499999999999986","","",""
"2182.0999999940395","4","confid","","","html-slider-response","917","693337","0.0-4.0-10.103-0.103","","","","Rate your confidence","1",""
"731.2000000029802","i","choice","right","i","experimental","924","695832","0.0-4.0-8.104","true","105","2.1499999999999986","","",""
"1738.2999999970198","3","confid","","","html-slider-response","926","698073","0.0-4.0-10.104-0.104","","","","Rate your confidence","1",""
"302.29999999701977","e","choice","left","e","experimental","933","700139","0.0-4.0-8.105","true","106","2.0499999999999985","","",""
"1717.7999999970198","4","confid","","","html-slider-response","935","702359","0.0-4.0-10.105-0.105","","","","Rate your confidence","1",""
"253.1000000089407","e","choice","left","e","experimental","942","704384","0.0-4.0-8.106","true","107","2.0499999999999985","","",""
"2946.2000000029802","4","confid","","","html-slider-response","944","707833","0.0-4.0-10.106-0.106","","","","Rate your confidence","1",""
"420.40000000596046","e","choice","right","i","experimental","951","710017","0.0-4.0-8.107","false","108","1.9499999999999984","","",""
"1749.2000000029802","4","confid","","","html-slider-response","953","712268","0.0-4.0-10.107-0.107","","","","Rate your confidence","1",""
"327.79999999701977","e","choice","left","e","experimental","960","714358","0.0-4.0-8.108","true","109","2.0499999999999985","","",""
"1560","3","confid","","","html-slider-response","962","716419","0.0-4.0-10.108-0.108","","","","Rate your confidence","1",""
"276.19999998807907","i","choice","right","i","experimental","969","718460","0.0-4.0-8.109","true","110","2.0499999999999985","","",""
"2243.3999999910593","3","confid","","","html-slider-response","971","721210","0.0-4.0-10.109-0.109","","","","Rate your confidence","1",""
"287.1000000089407","e","choice","left","e","experimental","979","728799","0.0-4.0-8.110","true","111","1.9499999999999984","","",""
"1735.3999999910593","3","confid","","","html-slider-response","981","731039","0.0-4.0-10.110-0.110","","","","Rate your confidence","1",""
"406.1000000089407","e","choice","right","i","experimental","988","733226","0.0-4.0-8.111","false","112","1.9499999999999984","","",""
"1451.8999999910593","3","confid","","","html-slider-response","990","735182","0.0-4.0-10.111-0.111","","","","Rate your confidence","1",""
"409","i","choice","right","i","experimental","997","737387","0.0-4.0-8.112","true","113","2.0499999999999985","","",""
"2403.8999999910593","3","confid","","","html-slider-response","999","740296","0.0-4.0-10.112-0.112","","","","Rate your confidence","1",""
"433.59999999403954","e","choice","left","e","experimental","1006","742527","0.0-4.0-8.113","true","114","2.0499999999999985","","",""
"1597.0999999940395","4","confid","","","html-slider-response","1008","744629","0.0-4.0-10.113-0.113","","","","Rate your confidence","1",""
"501.29999999701977","i","choice","right","i","experimental","1015","746926","0.0-4.0-8.114","true","115","1.9499999999999984","","",""
"3223.800000011921","3","confid","","","html-slider-response","1017","750654","0.0-4.0-10.114-0.114","","","","Rate your confidence","1",""
"287.79999999701977","e","choice","left","e","experimental","1024","752725","0.0-4.0-8.115","true","116","1.9499999999999984","","",""
"1459.2000000029802","4","confid","","","html-slider-response","1026","754688","0.0-4.0-10.115-0.115","","","","Rate your confidence","1",""
"273","e","choice","left","e","experimental","1033","756744","0.0-4.0-8.116","true","117","1.8499999999999983","","",""
"2247.5","4","confid","","","html-slider-response","1035","759497","0.0-4.0-10.116-0.116","","","","Rate your confidence","1",""
"343.20000000298023","e","choice","right","i","experimental","1042","761636","0.0-4.0-8.117","false","118","1.8499999999999983","","",""
"2384.9000000059605","4","confid","","","html-slider-response","1044","764525","0.0-4.0-10.117-0.117","","","","Rate your confidence","1",""
"320.40000000596046","e","choice","right","i","experimental","1051","766641","0.0-4.0-8.118","false","119","1.9499999999999984","","",""
"2036.5999999940395","4","confid","","","html-slider-response","1053","769182","0.0-4.0-10.118-0.118","","","","Rate your confidence","1",""
"429.79999999701977","e","choice","left","e","experimental","1060","771397","0.0-4.0-8.119","true","120","2.0499999999999985","","",""
"1477.199999988079","3","confid","","","html-slider-response","1062","773378","0.0-4.0-10.119-0.119","","","","Rate your confidence","1",""
"361.30000001192093","i","choice","left","e","experimental","1069","775528","0.0-4.0-8.120","false","121","2.0499999999999985","","",""
"2039.1000000089407","2","confid","","","html-slider-response","1071","778072","0.0-4.0-10.120-0.120","","","","Rate your confidence","1",""
"484","i","choice","right","i","experimental","1078","780340","0.0-4.0-8.121","true","122","2.1499999999999986","","",""
"1809.6000000089407","3","confid","","","html-slider-response","1080","782654","0.0-4.0-10.121-0.121","","","","Rate your confidence","1",""
"435.6000000089407","e","choice","right","i","experimental","1087","784875","0.0-4.0-8.122","false","123","2.1499999999999986","","",""
"1963.6000000089407","3","confid","","","html-slider-response","1089","787343","0.0-4.0-10.122-0.122","","","","Rate your confidence","1",""
"339.90000000596046","e","choice","left","e","experimental","1096","789470","0.0-4.0-8.123","true","124","2.2499999999999987","","",""
"2418.0999999940395","3","confid","","","html-slider-response","1098","792391","0.0-4.0-10.123-0.123","","","","Rate your confidence","1",""
"843.6000000089407","i","choice","right","i","experimental","1105","795031","0.0-4.0-8.124","true","125","2.2499999999999987","","",""
"2072.8999999910593","3","confid","","","html-slider-response","1107","797608","0.0-4.0-10.124-0.124","","","","Rate your confidence","1",""
"335","e","choice","left","e","experimental","1114","799741","0.0-4.0-8.125","true","126","2.1499999999999986","","",""
"2324.199999988079","4","confid","","","html-slider-response","1116","802570","0.0-4.0-10.125-0.125","","","","Rate your confidence","1",""
"417.79999999701977","i","choice","right","i","experimental","1123","804773","0.0-4.0-8.126","true","127","2.1499999999999986","","",""
"1701.8999999910593","4","confid","","","html-slider-response","1125","806980","0.0-4.0-10.126-0.126","","","","Rate your confidence","1",""
"452.1000000089407","i","choice","left","e","experimental","1132","809220","0.0-4.0-8.127","false","128","2.0499999999999985","","",""
"1662.7000000029802","3","confid","","","html-slider-response","1134","811387","0.0-4.0-10.127-0.127","","","","Rate your confidence","1",""
"289.5","i","choice","left","e","experimental","1141","813459","0.0-4.0-8.128","false","129","2.1499999999999986","","",""
"1907.0999999940395","3","confid","","","html-slider-response","1143","815871","0.0-4.0-10.128-0.128","","","","Rate your confidence","1",""
"381.90000000596046","e","choice","right","i","experimental","1150","818047","0.0-4.0-8.129","false","130","2.2499999999999987","","",""
"1889.5999999940395","3","confid","","","html-slider-response","1152","820440","0.0-4.0-10.129-0.129","","","","Rate your confidence","1",""
"431.09999999403954","i","choice","right","i","experimental","1159","822657","0.0-4.0-8.130","true","131","2.3499999999999988","","",""
"1347.2000000029802","3","confid","","","html-slider-response","1161","824509","0.0-4.0-10.130-0.130","","","","Rate your confidence","1",""
"354.09999999403954","i","choice","left","e","experimental","1168","826659","0.0-4.0-8.131","false","132","2.3499999999999988","","",""
"1479.7999999970198","3","confid","","","html-slider-response","1170","828642","0.0-4.0-10.131-0.131","","","","Rate your confidence","1",""
"320.79999999701977","i","choice","right","i","experimental","1177","830745","0.0-4.0-8.132","true","133","2.449999999999999","","",""
"1913.2000000029802","4","confid","","","html-slider-response","1179","833162","0.0-4.0-10.132-0.132","","","","Rate your confidence","1",""
"228","e","choice","left","e","experimental","1186","835177","0.0-4.0-8.133","true","134","2.449999999999999","","",""
"1360.9000000059605","4","confid","","","html-slider-response","1188","837054","0.0-4.0-10.133-0.133","","","","Rate your confidence","1",""
"442.20000000298023","i","choice","right","i","experimental","1195","839280","0.0-4.0-8.134","true","135","2.3499999999999988","","",""
"1781.2000000029802","4","confid","","","html-slider-response","1197","841566","0.0-4.0-10.134-0.134","","","","Rate your confidence","1",""
"390.6000000089407","e","choice","left","e","experimental","1204","843753","0.0-4.0-8.135","true","136","2.3499999999999988","","",""
"1922.8999999910593","4","confid","","","html-slider-response","1206","846180","0.0-4.0-10.135-0.135","","","","Rate your confidence","1",""
"353.40000000596046","i","choice","right","i","experimental","1213","848319","0.0-4.0-8.136","true","137","2.2499999999999987","","",""
"2067.4000000059605","3","confid","","","html-slider-response","1215","850891","0.0-4.0-10.136-0.136","","","","Rate your confidence","1",""
"507.6000000089407","e","choice","left","e","experimental","1222","853195","0.0-4.0-8.137","true","138","2.2499999999999987","","",""
"2352.7999999970198","3","confid","","","html-slider-response","1224","856052","0.0-4.0-10.137-0.137","","","","Rate your confidence","1",""
"443.59999999403954","i","choice","right","i","experimental","1231","858282","0.0-4.0-8.138","true","139","2.1499999999999986","","",""
"1358.2999999970198","3","confid","","","html-slider-response","1233","860145","0.0-4.0-10.138-0.138","","","","Rate your confidence","1",""
"398.29999999701977","i","choice","left","e","experimental","1240","862324","0.0-4.0-8.139","false","140","2.1499999999999986","","",""
"1608.9000000059605","3","confid","","","html-slider-response","1242","864436","0.0-4.0-10.139-0.139","","","","Rate your confidence","1",""
"326.20000000298023","e","choice","left","e","experimental","1249","866560","0.0-4.0-8.140","true","141","2.2499999999999987","","",""
"1346.6000000089407","4","confid","","","html-slider-response","1251","868412","0.0-4.0-10.140-0.140","","","","Rate your confidence","1",""
"356.40000000596046","i","choice","right","i","experimental","1258","870553","0.0-4.0-8.141","true","142","2.2499999999999987","","",""
"1771","4","confid","","","html-slider-response","1260","872828","0.0-4.0-10.141-0.141","","","","Rate your confidence","1",""
"236.19999998807907","e","choice","left","e","experimental","1267","874860","0.0-4.0-8.142","true","143","2.1499999999999986","","",""
"1369.0999999940395","4","confid","","","html-slider-response","1269","876733","0.0-4.0-10.142-0.142","","","","Rate your confidence","1",""
"328.20000000298023","e","choice","right","i","experimental","1276","878844","0.0-4.0-8.143","false","144","2.1499999999999986","","",""
"1316.8999999910593","4","confid","","","html-slider-response","1278","880664","0.0-4.0-10.143-0.143","","","","Rate your confidence","1",""
"328.29999999701977","e","choice","left","e","experimental","1285","882778","0.0-4.0-8.144","true","145","2.2499999999999987","","",""
"1341.5","4","confid","","","html-slider-response","1287","884623","0.0-4.0-10.144-0.144","","","","Rate your confidence","1",""
"314.6000000089407","e","choice","right","i","experimental","1294","886734","0.0-4.0-8.145","false","146","2.2499999999999987","","",""
"1727","3","confid","","","html-slider-response","1296","888966","0.0-4.0-10.145-0.145","","","","Rate your confidence","1",""
"42.900000005960464","i","choice","right","i","experimental","1303","890805","0.0-4.0-8.146","true","147","2.3499999999999988","","",""
"2238.3999999910593","3","confid","","","html-slider-response","1305","893549","0.0-4.0-10.146-0.146","","","","Rate your confidence","1",""
"452.69999998807907","e","choice","left","e","experimental","1312","895787","0.0-4.0-8.147","true","148","2.3499999999999988","","",""
"4782.20000000298","4","confid","","","html-slider-response","1314","901073","0.0-4.0-10.147-0.147","","","","Rate your confidence","1",""
"349.5","e","choice","right","i","experimental","1321","903211","0.0-4.0-8.148","false","149","2.2499999999999987","","",""
"1671.5","4","confid","","","html-slider-response","1323","905387","0.0-4.0-10.148-0.148","","","","Rate your confidence","1",""
"636.5999999940395","e","choice","left","e","experimental","1330","907819","0.0-4.0-8.149","true","150","2.3499999999999988","","",""
"2811.2999999970198","4","confid","","","html-slider-response","1332","911134","0.0-4.0-10.149-0.149","","","","Rate your confidence","1",""
"543.6000000089407","i","choice","right","i","experimental","1339","913471","0.0-4.0-8.150","true","151","2.3499999999999988","","",""
"1671.1000000089407","3","confid","","","html-slider-response","1341","915648","0.0-4.0-10.150-0.150","","","","Rate your confidence","1",""
"582.5999999940395","i","choice","left","e","experimental","1348","918014","0.0-4.0-8.151","false","152","2.2499999999999987","","",""
"2040.5","3","confid","","","html-slider-response","1350","920559","0.0-4.0-10.151-0.151","","","","Rate your confidence","1",""
"378.70000000298023","i","choice","right","i","experimental","1358","927199","0.0-4.0-8.152","true","153","2.3499999999999988","","",""
"2071.0999999940395","3","confid","","","html-slider-response","1360","929775","0.0-4.0-10.152-0.152","","","","Rate your confidence","1",""
"438.79999999701977","e","choice","left","e","experimental","1367","932010","0.0-4.0-8.153","true","154","2.3499999999999988","","",""
"3401.0999999940395","3","confid","","","html-slider-response","1369","935915","0.0-4.0-10.153-0.153","","","","Rate your confidence","1",""
"381.59999999403954","i","choice","right","i","experimental","1376","938091","0.0-4.0-8.154","true","155","2.2499999999999987","","",""
"2765.5","3","confid","","","html-slider-response","1378","941360","0.0-4.0-10.154-0.154","","","","Rate your confidence","1",""
"318.29999999701977","e","choice","left","e","experimental","1385","943476","0.0-4.0-8.155","true","156","2.2499999999999987","","",""
"1618.5999999940395","4","confid","","","html-slider-response","1387","945599","0.0-4.0-10.155-0.155","","","","Rate your confidence","1",""
"388.20000000298023","e","choice","left","e","experimental","1394","947775","0.0-4.0-8.156","true","157","2.1499999999999986","","",""
"1339.9000000059605","4","confid","","","html-slider-response","1396","949619","0.0-4.0-10.156-0.156","","","","Rate your confidence","1",""
"516.1000000089407","e","choice","right","i","experimental","1403","951918","0.0-4.0-8.157","false","158","2.1499999999999986","","",""
"1566","4","confid","","","html-slider-response","1405","953989","0.0-4.0-10.157-0.157","","","","Rate your confidence","1",""
"794.8999999910593","i","choice","left","e","experimental","1412","956576","0.0-4.0-8.158","false","159","2.2499999999999987","","",""
"1778","3","confid","","","html-slider-response","1414","958859","0.0-4.0-10.158-0.158","","","","Rate your confidence","1",""
"355.80000001192093","i","choice","right","i","experimental","1421","961010","0.0-4.0-8.159","true","160","2.3499999999999988","","",""
"1270.7000000029802","3","confid","","","html-slider-response","1423","962785","0.0-4.0-10.159-0.159","","","","Rate your confidence","1",""
"347.79999999701977","i","choice","right","i","experimental","1430","964918","0.0-4.0-8.160","true","161","2.3499999999999988","","",""
"1274.0999999940395","4","confid","","","html-slider-response","1432","966696","0.0-4.0-10.160-0.160","","","","Rate your confidence","1",""
"404.1000000089407","e","choice","left","e","experimental","1439","968882","0.0-4.0-8.161","true","162","2.2499999999999987","","",""
"1339.2000000029802","3","confid","","","html-slider-response","1441","970726","0.0-4.0-10.161-0.161","","","","Rate your confidence","1",""
"541.8999999910593","i","choice","left","e","experimental","1448","973054","0.0-4.0-8.162","false","163","2.2499999999999987","","",""
"2521.6000000089407","4","confid","","","html-slider-response","1450","976081","0.0-4.0-10.162-0.162","","","","Rate your confidence","1",""
"299.20000000298023","i","choice","right","i","experimental","1457","978178","0.0-4.0-8.163","true","164","2.3499999999999988","","",""
"1389.5","4","confid","","","html-slider-response","1459","980072","0.0-4.0-10.163-0.163","","","","Rate your confidence","1",""
"356.79999999701977","i","choice","right","i","experimental","1466","982225","0.0-4.0-8.164","true","165","2.3499999999999988","","",""
"1882.7999999970198","4","confid","","","html-slider-response","1468","984612","0.0-4.0-10.164-0.164","","","","Rate your confidence","1",""
"315.80000001192093","e","choice","left","e","experimental","1475","986713","0.0-4.0-8.165","true","166","2.2499999999999987","","",""
"1514.699999988079","4","confid","","","html-slider-response","1477","988732","0.0-4.0-10.165-0.165","","","","Rate your confidence","1",""
"486.70000000298023","e","choice","right","i","experimental","1484","991005","0.0-4.0-8.166","false","167","2.2499999999999987","","",""
"1472.0999999940395","4","confid","","","html-slider-response","1486","992981","0.0-4.0-10.166-0.166","","","","Rate your confidence","1",""
"335.70000000298023","e","choice","left","e","experimental","1493","995114","0.0-4.0-8.167","true","168","2.3499999999999988","","",""
"1630.2999999970198","4","confid","","","html-slider-response","1495","997248","0.0-4.0-10.167-0.167","","","","Rate your confidence","1",""
"334.40000000596046","e","choice","left","e","experimental","1502","999378","0.0-4.0-8.168","true","169","2.3499999999999988","","",""
"2602.0999999940395","4","confid","","","html-slider-response","1504","1002485","0.0-4.0-10.168-0.168","","","","Rate your confidence","1",""
"503.70000000298023","e","choice","right","i","experimental","1511","1004781","0.0-4.0-8.169","false","170","2.2499999999999987","","",""
"1494.5","4","confid","","","html-slider-response","1513","1006780","0.0-4.0-10.169-0.169","","","","Rate your confidence","1",""
"342.5","i","choice","right","i","experimental","1520","1008910","0.0-4.0-8.170","true","171","2.3499999999999988","","",""
"1829.7000000029802","3","confid","","","html-slider-response","1522","1011255","0.0-4.0-10.170-0.170","","","","Rate your confidence","1",""
"359.20000000298023","e","choice","left","e","experimental","1529","1013403","0.0-4.0-8.171","true","172","2.3499999999999988","","",""
"2717.5999999940395","3","confid","","","html-slider-response","1531","1016624","0.0-4.0-10.171-0.171","","","","Rate your confidence","1",""
"318.19999998807907","i","choice","left","e","experimental","1538","1018741","0.0-4.0-8.172","false","173","2.2499999999999987","","",""
"1809.9000000059605","3","confid","","","html-slider-response","1540","1021053","0.0-4.0-10.172-0.172","","","","Rate your confidence","1",""
"354.5","i","choice","right","i","experimental","1547","1023195","0.0-4.0-8.173","true","174","2.3499999999999988","","",""
"2034.7000000029802","4","confid","","","html-slider-response","1549","1025734","0.0-4.0-10.173-0.173","","","","Rate your confidence","1",""
"324.5","i","choice","left","e","experimental","1556","1027844","0.0-4.0-8.174","false","175","2.3499999999999988","","",""
"1936.699999988079","3","confid","","","html-slider-response","1558","1030285","0.0-4.0-10.174-0.174","","","","Rate your confidence","1",""
"445.09999999403954","i","choice","right","i","experimental","1565","1032515","0.0-4.0-8.175","true","176","2.449999999999999","","",""
"2117.2999999970198","4","confid","","","html-slider-response","1567","1035137","0.0-4.0-10.175-0.175","","","","Rate your confidence","1",""
"344.59999999403954","i","choice","left","e","experimental","1574","1037275","0.0-4.0-8.176","false","177","2.449999999999999","","",""
"1596.7000000029802","3","confid","","","html-slider-response","1576","1039376","0.0-4.0-10.176-0.176","","","","Rate your confidence","1",""
"386.40000000596046","i","choice","right","i","experimental","1583","1041559","0.0-4.0-8.177","true","178","2.549999999999999","","",""
"1922.5","4","confid","","","html-slider-response","1585","1043986","0.0-4.0-10.177-0.177","","","","Rate your confidence","1",""
"366.70000000298023","i","choice","right","i","experimental","1592","1046150","0.0-4.0-8.178","true","179","2.549999999999999","","",""
"1512.2000000029802","4","confid","","","html-slider-response","1594","1048167","0.0-4.0-10.178-0.178","","","","Rate your confidence","1",""
"334.09999999403954","e","choice","left","e","experimental","1601","1050284","0.0-4.0-8.179","true","180","2.449999999999999","","",""
"1451.699999988079","4","confid","","","html-slider-response","1603","1052240","0.0-4.0-10.179-0.179","","","","Rate your confidence","1",""
"275.3999999910593","i","choice","right","i","experimental","1610","1054292","0.0-4.0-8.180","true","181","2.449999999999999","","",""
"1280.699999988079","4","confid","","","html-slider-response","1612","1056078","0.0-4.0-10.180-0.180","","","","Rate your confidence","1",""
"394.1000000089407","e","choice","left","e","experimental","1619","1058270","0.0-4.0-8.181","true","182","2.3499999999999988","","",""
"2855.7999999970198","4","confid","","","html-slider-response","1621","1061630","0.0-4.0-10.181-0.181","","","","Rate your confidence","1",""
"387.5","e","choice","left","e","experimental","1628","1063805","0.0-4.0-8.182","true","183","2.3499999999999988","","",""
"1581.5","4","confid","","","html-slider-response","1630","1065889","0.0-4.0-10.182-0.182","","","","Rate your confidence","1",""
"315.3999999910593","i","choice","right","i","experimental","1637","1068001","0.0-4.0-8.183","true","184","2.2499999999999987","","",""
"1541.9000000059605","3","confid","","","html-slider-response","1639","1070047","0.0-4.0-10.183-0.183","","","","Rate your confidence","1",""
"547.2000000029802","e","choice","left","e","experimental","1646","1072380","0.0-4.0-8.184","true","185","2.2499999999999987","","",""
"1793.3999999910593","4","confid","","","html-slider-response","1648","1074677","0.0-4.0-10.184-0.184","","","","Rate your confidence","1",""
"486.59999999403954","i","choice","right","i","experimental","1655","1076953","0.0-4.0-8.185","true","186","2.1499999999999986","","",""
"2167.6000000089407","3","confid","","","html-slider-response","1657","1079625","0.0-4.0-10.185-0.185","","","","Rate your confidence","1",""
"404.30000001192093","e","choice","left","e","experimental","1664","1081822","0.0-4.0-8.186","true","187","2.1499999999999986","","",""
"1786.3999999910593","3","confid","","","html-slider-response","1666","1084114","0.0-4.0-10.186-0.186","","","","Rate your confidence","1",""
"98.69999998807907","e","choice","right","i","experimental","1673","1086007","0.0-4.0-8.187","false","188","2.0499999999999985","","",""
"2856.2000000029802","4","confid","","","html-slider-response","1675","1089367","0.0-4.0-10.187-0.187","","","","Rate your confidence","1",""
"404.79999999701977","e","choice","left","e","experimental","1682","1091556","0.0-4.0-8.188","true","189","2.1499999999999986","","",""
"2174.7999999970198","3","confid","","","html-slider-response","1684","1094235","0.0-4.0-10.188-0.188","","","","Rate your confidence","1",""
"442.79999999701977","e","choice","right","i","experimental","1691","1096463","0.0-4.0-8.189","false","190","2.1499999999999986","","",""
"1808.5","4","confid","","","html-slider-response","1693","1098776","0.0-4.0-10.189-0.189","","","","Rate your confidence","1",""
"515.9000000059605","e","choice","right","i","experimental","1700","1101075","0.0-4.0-8.190","false","191","2.2499999999999987","","",""
"1401.4000000059605","3","confid","","","html-slider-response","1702","1102981","0.0-4.0-10.190-0.190","","","","Rate your confidence","1",""
"401.29999999701977","e","choice","left","e","experimental","1709","1105165","0.0-4.0-8.191","true","192","2.3499999999999988","","",""
"1431.9000000059605","3","confid","","","html-slider-response","1711","1107101","0.0-4.0-10.191-0.191","","","","Rate your confidence","1",""
"577.4000000059605","e","choice","left","e","experimental","1718","1109466","0.0-4.0-8.192","true","193","2.3499999999999988","","",""
"2466.300000011921","3","confid","","","html-slider-response","1720","1112437","0.0-4.0-10.192-0.192","","","","Rate your confidence","1",""
"672","e","choice","right","i","experimental","1727","1114894","0.0-4.0-8.193","false","194","2.2499999999999987","","",""
"1547.7999999970198","4","confid","","","html-slider-response","1729","1116946","0.0-4.0-10.193-0.193","","","","Rate your confidence","1","57902"
