"rt","response","task","target_side","correct_response","trial_type","trial_index","time_elapsed","internal_node_id","correct","trial_number","n_dots","stimulus","slider_start","participant"
"934.7000000476837","e","choice","right","i","practice","10","68012","0.0-4.0-8.0","false","1","4.25","","",""
"223.60000002384186","e","choice","left","e","practice","18","70567","0.0-4.0-8.1","true","2","4.65","","",""
"467.89999997615814","i","choice","right","i","practice","26","73369","0.0-4.0-8.2","true","3","4.65","","",""
"405.2999999523163","e","choice","left","e","practice","34","76077","0.0-4.0-8.3","true","4","4.25","","",""
"222.5","i","choice","right","i","practice","42","78625","0.0-4.0-8.4","true","5","4.25","","",""
"248","e","choice","left","e","practice","50","81187","0.0-4.0-8.5","true","6","3.85","","",""
"79.5","i","choice","right","i","practice","58","83581","0.0-4.0-8.6","true","7","3.85","","",""
"202.90000009536743","e","choice","left","e","practice","66","86089","0.0-4.0-8.7","true","8","3.65","","",""
"307.5","e","choice","left","e","practice","74","88718","0.0-4.0-8.8","true","9","3.65","","",""
"238.60000002384186","i","choice","right","i","practice","82","91291","0.0-4.0-8.9","true","10","3.4499999999999997","","",""
"55.60000002384186","e","choice","left","e","practice","90","93691","0.0-4.0-8.10","true","11","3.4499999999999997","","",""
"106.29999995231628","i","choice","right","i","practice","98","96119","0.0-4.0-8.11","true","12","3.3499999999999996","","",""
"106.29999995231628","i","choice","right","i","practice","106","98523","0.0-4.0-8.12","true","13","3.3499999999999996","","",""
"210.39999997615814","e","choice","left","e","practice","114","101047","0.0-4.0-8.13","true","14","3.2499999999999996","","",""
"325.10000002384186","e","choice","left","e","practice","122","103697","0.0-4.0-8.14","true","15","3.2499999999999996","","",""
"76.69999992847443","i","choice","right","i","practice","130","106118","0.0-4.0-8.15","true","16","3.1499999999999995","","",""
"59.59999990463257","e","choice","left","e","practice","138","108503","0.0-4.0-8.16","true","17","3.1499999999999995","","",""
"182.69999992847443","i","choice","right","i","practice","146","111018","0.0-4.0-8.17","true","18","3.0499999999999994","","",""
"64.29999995231628","e","choice","right","i","practice","154","113388","0.0-4.0-8.18","false","19","3.0499999999999994","","",""
"262.8000000715256","e","choice","left","e","practice","162","115965","0.0-4.0-8.19","true","20","3.1499999999999995","","",""
"12.5","e","choice","left","e","practice","170","118297","0.0-4.0-8.20","true","21","3.1499999999999995","","",""
"560.3999999761581","i","choice","right","i","practice","178","121168","0.0-4.0-8.21","true","22","3.0499999999999994","","",""
"290.6999999284744","i","choice","right","i","practice","186","123788","0.0-4.0-8.22","true","23","3.0499999999999994","","",""
"101.20000004768372","i","choice","left","e","practice","194","126237","0.0-4.0-8.23","false","24","2.9499999999999993","","",""
"188.10000002384186","e","choice","left","e","practice","202","128744","0.0-4.0-8.24","true","25","3.0499999999999994","","",""
"77.20000004768372","i","choice","right","i","practice","210","131151","0.0-4.0-8.25","true","26","3.0499999999999994","","",""
"241.20000004768372","i","choice","right","i","experimental","221","149810","0.0-4.0-8.26","true","27","2.9499999999999993","","",""
"5182.5","6","confid","","","html-slider-response","223","155502","0.0-4.0-10.26-0.26","","","","Rate your confidence","1",""
"368.60000002384186","i","choice","left","e","experimental","230","157674","0.0-4.0-8.27","false","28","2.9499999999999993","","",""
"3020.5","2","confid","","","html-slider-response","232","161201","0.0-4.0-10.27-0.27","","","","Rate your confidence","1",""
"203.79999995231628","e","choice","left","e","experimental","239","163229","0.0-4.0-8.28","true","29","3.0499999999999994","","",""
"4365.700000047684","3","confid","","","html-slider-response","241","168106","0.0-4.0-10.28-0.28","","","","Rate your confidence","1",""
"421.7999999523163","i","choice","right","i","experimental","248","170346","0.0-4.0-8.29","true","30","3.0499999999999994","","",""
"2715.2999999523163","5","confid","","","html-slider-response","250","173572","0.0-4.0-10.29-0.29","","","","Rate your confidence","1",""
"192.89999997615814","e","choice","left","e","experimental","257","175569","0.0-4.0-8.30","true","31","2.9499999999999993","","",""
"8087.5","3","confid","","","html-slider-response","259","184168","0.0-4.0-10.30-0.30","","","","Rate your confidence","1",""
"186.20000004768372","i","choice","right","i","experimental","266","186162","0.0-4.0-8.31","true","32","2.9499999999999993","","",""
"3118.4000000953674","4","confid","","","html-slider-response","268","189792","0.0-4.0-10.31-0.31","","","","Rate your confidence","1",""
"231.09999990463257","i","choice","right","i","experimental","275","191860","0.0-4.0-8.32","true","33","2.849999999999999","","",""
"2634.5","5","confid","","","html-slider-response","277","195004","0.0-4.0-10.32-0.32","","","","Rate your confidence","1",""
"330.60000002384186","i","choice","left","e","experimental","284","197151","0.0-4.0-8.33","false","34","2.849999999999999","","",""
"2122.600000023842","4","confid","","","html-slider-response","286","199814","0.0-4.0-10.33-0.33","","","","Rate your confidence","1",""
"254.89999997615814","i","choice","right","i","experimental","293","201876","0.0-4.0-8.34","true","35","2.9499999999999993","","",""
"2455.2999999523163","6","confid","","","html-slider-response","295","204841","0.0-4.0-10.34-0.34","","","","Rate your confidence","1",""
"119.80000007152557","e","choice","left","e","experimental","302","206766","0.0-4.0-8.35","true","36","2.9499999999999993","","",""
"2198.6999999284744","3","confid","","","html-slider-response","304","209469","0.0-4.0-10.35-0.35","","","","Rate your confidence","1",""
"280.60000002384186","i","choice","right","i","experimental","311","211562","0.0-4.0-8.36","true","37","2.849999999999999","","",""
"2366.5999999046326","5","confid","","","html-slider-response","313","214441","0.0-4.0-10.36-0.36","","","","Rate your confidence","1",""
"315.8000000715256","i","choice","left","e","experimental","320","216557","0.0-4.0-8.37","false","38","2.849999999999999","","",""
"5338.399999976158","3","confid","","","html-slider-response","322","222403","0.0-4.0-10.37-0.37","","","","Rate your confidence","1",""
"288.3000000715256","e","choice","left","e","experimental","329","224520","0.0-4.0-8.38","true","39","2.9499999999999993","","",""
"3726.0999999046326","1","confid","","","html-slider-response","331","228758","0.0-4.0-10.38-0.38","","","","Rate your confidence","1",""
"131.89999997615814","i","choice","right","i","experimental","338","230711","0.0-4.0-8.39","true","40","2.9499999999999993","","",""
"3476.2999999523163","4","confid","","","html-slider-response","340","234699","0.0-4.0-10.39-0.39","","","","Rate your confidence","1",""
"311.7999999523163","i","choice","right","i","experimental","347","236819","0.0-4.0-8.40","true","41","2.849999999999999","","",""
"3079.7999999523163","2","confid","","","html-slider-response","349","240410","0.0-4.0-10.40-0.40","","","","Rate your confidence","1",""
"289.8000000715256","i","choice","left","e","experimental","356","242507","0.0-4.0-8.41","false","42","2.849999999999999","","",""
"2963.5","2","confid","","","html-slider-response","358","245975","0.0-4.0-10.41-0.41","","","","Rate your confidence","1",""
"37.60000002384186","i","choice","right","i","experimental","365","247839","0.0-4.0-8.42","true","43","2.9499999999999993","","",""
"3068.7000000476837","3","confid","","","html-slider-response","367","251418","0.0-4.0-10.42-0.42","","","","Rate your confidence","1",""
"87","i","choice","left","e","experimental","374","253311","0.0-4.0-8.43","false","44","2.9499999999999993","","",""
"2444.5","2","confid","","","html-slider-response","376","256261","0.0-4.0-10.43-0.43","","","","Rate your confidence","1",""
"211.10000002384186","i","choice","right","i","experimental","383","258295","0.0-4.0-8.44","true","45","3.0499999999999994","","",""
"2411.1999999284744","2","confid","","","html-slider-response","385","261215","0.0-4.0-10.44-0.44","","","","Rate your confidence","1",""
"210.29999995231628","e","choice","left","e","experimental","392","263243","0.0-4.0-8.45","true","46","3.0499999999999994","","",""
"2453.600000023842","5","confid","","","html-slider-response","394","266203","0.0-4.0-10.45-0.45","","","","Rate your confidence","1",""
"255.39999997615814","i","choice","right","i","experimental","401","268253","0.0-4.0-8.46","true","47","2.9499999999999993","","",""
"2192.7000000476837","5","confid","","","html-slider-response","403","270950","0.0-4.0-10.46-0.46","","","","Rate your confidence","1",""
"313.10000002384186","e","choice","left","e","experimental","410","273061","0.0-4.0-8.47","true","48","2.9499999999999993","","",""
"2124.600000023842","5","confid","","","html-slider-response","412","275692","0.0-4.0-10.47-0.47","","","","Rate your confidence","1",""
"234.19999992847443","i","choice","right","i","experimental","419","277736","0.0-4.0-8.48","true","49","2.849999999999999","","",""
"1822.1000000238419","4","confid","","","html-slider-response","421","280065","0.0-4.0-10.48-0.48","","","","Rate your confidence","1",""
"240.30000007152557","e","choice","left","e","experimental","428","282124","0.0-4.0-8.49","true","50","2.849999999999999","","",""
"3692.3000000715256","4","confid","","","html-slider-response","430","286323","0.0-4.0-10.49-0.49","","","","Rate your confidence","1",""
"206.5","i","choice","right","i","experimental","437","288339","0.0-4.0-8.50","true","51","2.749999999999999","","",""
"2873.8000000715256","6","confid","","","html-slider-response","439","291724","0.0-4.0-10.50-0.50","","","","Rate your confidence","1",""
"253.39999997615814","i","choice","left","e","experimental","446","293788","0.0-4.0-8.51","false","52","2.749999999999999","","",""
"8008.800000071526","3","confid","","","html-slider-response","448","302315","0.0-4.0-10.51-0.51","","","","Rate your confidence","1",""
"3541.3000000715256","e","choice","right","i","experimental","455","307671","0.0-4.0-8.52","false","53","2.849999999999999","","",""
"5700","1","confid","","","html-slider-response","457","313882","0.0-4.0-10.52-0.52","","","","Rate your confidence","1",""
"256.7999999523163","e","choice","left","e","experimental","464","315946","0.0-4.0-8.53","true","54","2.9499999999999993","","",""
"17139.600000023842","6","confid","","","html-slider-response","466","333591","0.0-4.0-10.53-0.53","","","","Rate your confidence","1",""
"2223.8000000715256","i","choice","right","i","experimental","473","337633","0.0-4.0-8.54","true","55","2.9499999999999993","","",""
"2786.899999976158","1","confid","","","html-slider-response","475","340926","0.0-4.0-10.54-0.54","","","","Rate your confidence","1",""
"45","e","choice","left","e","experimental","482","342768","0.0-4.0-8.55","true","56","2.849999999999999","","",""
"2643.8000000715256","1","confid","","","html-slider-response","484","345917","0.0-4.0-10.55-0.55","","","","Rate your confidence","1",""
"673.5","i","choice","right","i","experimental","491","348392","0.0-4.0-8.56","true","57","2.849999999999999","","",""
"3408.0999999046326","6","confid","","","html-slider-response","493","352306","0.0-4.0-10.56-0.56","","","","Rate your confidence","1",""
"264","e","choice","left","e","experimental","500","354390","0.0-4.0-8.57","true","58","2.749999999999999","","",""
"2085.2999999523163","3","confid","","","html-slider-response","502","356984","0.0-4.0-10.57-0.57","","","","Rate your confidence","1",""
"395.09999990463257","e","choice","left","e","experimental","509","359197","0.0-4.0-8.58","true","59","2.749999999999999","","",""
"2072.600000023842","5","confid","","","html-slider-response","511","361779","0.0-4.0-10.58-0.58","","","","Rate your confidence","1",""
"197.80000007152557","i","choice","right","i","experimental","518","363803","0.0-4.0-8.59","true","60","2.649999999999999","","",""
"2005.2999999523163","6","confid","","","html-slider-response","520","366317","0.0-4.0-10.59-0.59","","","","Rate your confidence","1",""
"494.7000000476837","i","choice","right","i","experimental","527","368613","0.0-4.0-8.60","true","61","2.649999999999999","","",""
"3677.5","6","confid","","","html-slider-response","529","372801","0.0-4.0-10.60-0.60","","","","Rate your confidence","1",""
"361.7999999523163","i","choice","left","e","experimental","536","374999","0.0-4.0-8.61","false","62","2.549999999999999","","",""
"2170.399999976158","3","confid","","","html-slider-response","538","377677","0.0-4.0-10.61-0.61","","","","Rate your confidence","1",""
"256.3000000715256","i","choice","right","i","experimental","545","379742","0.0-4.0-8.62","true","63","2.649999999999999","","",""
"6513.799999952316","2","confid","","","html-slider-response","547","386760","0.0-4.0-10.62-0.62","","","","Rate your confidence","1",""
"357.60000002384186","e","choice","left","e","experimental","554","388923","0.0-4.0-8.63","true","64","2.649999999999999","","",""
"1843.5","4","confid","","","html-slider-response","556","391272","0.0-4.0-10.63-0.63","","","","Rate your confidence","1",""
"442.6999999284744","e","choice","left","e","experimental","563","393523","0.0-4.0-8.64","true","65","2.549999999999999","","",""
"1992.7999999523163","6","confid","","","html-slider-response","565","396027","0.0-4.0-10.64-0.64","","","","Rate your confidence","1",""
"194.79999995231628","i","choice","right","i","experimental","572","398026","0.0-4.0-8.65","true","66","2.549999999999999","","",""
"2855.7000000476837","2","confid","","","html-slider-response","574","401393","0.0-4.0-10.65-0.65","","","","Rate your confidence","1",""
"383.7000000476837","i","choice","left","e","experimental","581","403582","0.0-4.0-8.66","false","67","2.449999999999999","","",""
"2431.899999976158","3","confid","","","html-slider-response","583","406518","0.0-4.0-10.66-0.66","","","","Rate your confidence","1",""
"288.60000002384186","i","choice","right","i","experimental","590","408601","0.0-4.0-8.67","true","68","2.549999999999999","","",""
"1611.6000000238419","5","confid","","","html-slider-response","592","410721","0.0-4.0-10.67-0.67","","","","Rate your confidence","1",""
"407.90000009536743","e","choice","left","e","experimental","600","418108","0.0-4.0-8.68","true","69","2.549999999999999","","",""
"2866.8000000715256","4","confid","","","html-slider-response","602","421491","0.0-4.0-10.68-0.68","","","","Rate your confidence","1",""
"197.59999990463257","i","choice","right","i","experimental","609","423514","0.0-4.0-8.69","true","70","2.449999999999999","","",""
"2186.7000000476837","4","confid","","","html-slider-response","611","426207","0.0-4.0-10.69-0.69","","","","Rate your confidence","1",""
"646","e","choice","left","e","experimental","618","428663","0.0-4.0-8.70","true","71","2.449999999999999","","",""
"6556.5","5","confid","","","html-slider-response","620","435725","0.0-4.0-10.70-0.70","","","","Rate your confidence","1",""
"444.60000002384186","i","choice","right","i","experimental","627","438003","0.0-4.0-8.71","true","72","2.3499999999999988","","",""
"1875.1000000238419","3","confid","","","html-slider-response","629","440383","0.0-4.0-10.71-0.71","","","","Rate your confidence","1",""
"208.5","i","choice","right","i","experimental","636","442397","0.0-4.0-8.72","true","73","2.3499999999999988","","",""
"2013","5","confid","","","html-slider-response","638","444915","0.0-4.0-10.72-0.72","","","","Rate your confidence","1",""
"190.30000007152557","i","choice","left","e","experimental","645","446896","0.0-4.0-8.73","false","74","2.2499999999999987","","",""
"1804.9000000953674","5","confid","","","html-slider-response","647","449207","0.0-4.0-10.73-0.73","","","","Rate your confidence","1",""
"30.299999952316284","i","choice","left","e","experimental","654","451058","0.0-4.0-8.74","false","75","2.3499999999999988","","",""
"10130.300000071526","5","confid","","","html-slider-response","656","461694","0.0-4.0-10.74-0.74","","","","Rate your confidence","1",""
"139.80000007152557","i","choice","right","i","experimental","663","463628","0.0-4.0-8.75","true","76","2.449999999999999","","",""
"3431.5","2","confid","","","html-slider-response","665","467568","0.0-4.0-10.75-0.75","","","","Rate your confidence","1",""
"268.6999999284744","i","choice","left","e","experimental","672","469674","0.0-4.0-8.76","false","77","2.449999999999999","","",""
"2048.6999999284744","5","confid","","","html-slider-response","674","472231","0.0-4.0-10.76-0.76","","","","Rate your confidence","1",""
"379.5","e","choice","right","i","experimental","681","474418","0.0-4.0-8.77","false","78","2.549999999999999","","",""
"3330.399999976158","3","confid","","","html-slider-response","683","478263","0.0-4.0-10.77-0.77","","","","Rate your confidence","1",""
"186.90000009536743","i","choice","right","i","experimental","690","480261","0.0-4.0-8.78","true","79","2.649999999999999","","",""
"1832.2000000476837","5","confid","","","html-slider-response","692","482598","0.0-4.0-10.78-0.78","","","","Rate your confidence","1",""
"17.59999990463257","i","choice","left","e","experimental","699","484415","0.0-4.0-8.79","false","80","2.649999999999999","","",""
"1925.6999999284744","5","confid","","","html-slider-response","701","486849","0.0-4.0-10.79-0.79","","","","Rate your confidence","1",""
"395.2000000476837","e","choice","left","e","experimental","708","489078","0.0-4.0-8.80","true","81","2.749999999999999","","",""
"3770.8000000715256","6","confid","","","html-slider-response","710","493359","0.0-4.0-10.80-0.80","","","","Rate your confidence","1",""
"122.89999997615814","i","choice","right","i","experimental","717","495297","0.0-4.0-8.81","true","82","2.749999999999999","","",""
"2880.100000023842","2","confid","","","html-slider-response","719","498683","0.0-4.0-10.81-0.81","","","","Rate your confidence","1",""
"495.7999999523163","e","choice","left","e","experimental","726","501012","0.0-4.0-8.82","true","83","2.649999999999999","","",""
"2257.5","3","confid","","","html-slider-response","728","503777","0.0-4.0-10.82-0.82","","","","Rate your confidence","1",""
"113.10000002384186","i","choice","right","i","experimental","735","505698","0.0-4.0-8.83","true","84","2.649999999999999","","",""
"2021.5","6","confid","","","html-slider-response","737","508230","0.0-4.0-10.83-0.83","","","","Rate your confidence","1",""
"312.7000000476837","e","choice","left","e","experimental","744","510348","0.0-4.0-8.84","true","85","2.549999999999999","","",""
"2127.600000023842","2","confid","","","html-slider-response","746","512991","0.0-4.0-10.84-0.84","","","","Rate your confidence","1",""
"259.7999999523163","i","choice","right","i","experimental","753","515078","0.0-4.0-8.85","true","86","2.549999999999999","","",""
"3346","3","confid","","","html-slider-response","755","518942","0.0-4.0-10.85-0.85","","","","Rate your confidence","1",""
"726.3000000715256","i","choice","right","i","experimental","762","521479","0.0-4.0-8.86","true","87","2.449999999999999","","",""
"3771.7000000476837","1","confid","","","html-slider-response","764","525761","0.0-4.0-10.86-0.86","","","","Rate your confidence","1",""
"716","i","choice","left","e","experimental","771","528290","0.0-4.0-8.87","false","88","2.449999999999999","","",""
"6036.699999928474","3","confid","","","html-slider-response","773","534881","0.0-4.0-10.87-0.87","","","","Rate your confidence","1",""
"484.6999999284744","i","choice","right","i","experimental","780","537191","0.0-4.0-8.88","true","89","2.549999999999999","","",""
"1889","3","confid","","","html-slider-response","782","539590","0.0-4.0-10.88-0.88","","","","Rate your confidence","1",""
"291.5","e","choice","left","e","experimental","789","541691","0.0-4.0-8.89","true","90","2.549999999999999","","",""
"1959.3000000715256","3","confid","","","html-slider-response","791","544162","0.0-4.0-10.89-0.89","","","","Rate your confidence","1",""
"235.60000002384186","e","choice","left","e","experimental","798","546194","0.0-4.0-8.90","true","91","2.449999999999999","","",""
"3422.100000023842","2","confid","","","html-slider-response","800","550117","0.0-4.0-10.90-0.90","","","","Rate your confidence","1",""
"97.19999992847443","i","choice","right","i","experimental","807","552024","0.0-4.0-8.91","true","92","2.449999999999999","","",""
"2277.6999999284744","3","confid","","","html-slider-response","809","554806","0.0-4.0-10.91-0.91","","","","Rate your confidence","1",""
"244.79999995231628","e","choice","right","i","experimental","816","556857","0.0-4.0-8.92","false","93","2.3499999999999988","","",""
"2762.100000023842","3","confid","","","html-slider-response","818","560123","0.0-4.0-10.92-0.92","","","","Rate your confidence","1",""
"211.09999990463257","e","choice","left","e","experimental","825","562137","0.0-4.0-8.93","true","94","2.449999999999999","","",""
"1648.7000000476837","2","confid","","","html-slider-response","827","564297","0.0-4.0-10.93-0.93","","","","Rate your confidence","1",""
"289.5","i","choice","right","i","experimental","834","566415","0.0-4.0-8.94","true","95","2.449999999999999","","",""
"1762.5999999046326","1","confid","","","html-slider-response","836","568687","0.0-4.0-10.94-0.94","","","","Rate your confidence","1",""
"275.59999990463257","i","choice","left","e","experimental","843","570760","0.0-4.0-8.95","false","96","2.3499999999999988","","",""
"5825.100000023842","1","confid","","","html-slider-response","845","577091","0.0-4.0-10.95-0.95","","","","Rate your confidence","1",""
"1541.0999999046326","e","choice","left","e","experimental","852","580453","0.0-4.0-8.96","true","97","2.449999999999999","","",""
"3359","2","confid","","","html-slider-response","854","584318","0.0-4.0-10.96-0.96","","","","Rate your confidence","1",""
"504.7000000476837","e","choice","right","i","experimental","861","586639","0.0-4.0-8.97","false","98","2.449999999999999","","",""
"2591.5","2","confid","","","html-slider-response","863","589741","0.0-4.0-10.97-0.97","","","","Rate your confidence","1",""
"321.2999999523163","e","choice","left","e","experimental","870","591901","0.0-4.0-8.98","true","99","2.549999999999999","","",""
"2215.7999999523163","3","confid","","","html-slider-response","872","594623","0.0-4.0-10.98-0.98","","","","Rate your confidence","1",""
"203.79999995231628","e","choice","right","i","experimental","879","596647","0.0-4.0-8.99","false","100","2.549999999999999","","",""
"2509.1999999284744","2","confid","","","html-slider-response","881","599666","0.0-4.0-10.99-0.99","","","","Rate your confidence","1",""
"233.59999990463257","i","choice","left","e","experimental","888","601715","0.0-4.0-8.100","false","101","2.649999999999999","","",""
"2628.399999976158","1","confid","","","html-slider-response","890","604855","0.0-4.0-10.100-0.100","","","","Rate your confidence","1",""
"257.2999999523163","e","choice","right","i","experimental","897","606941","0.0-4.0-8.101","false","102","2.749999999999999","","",""
"1846.2999999523163","1","confid","","","html-slider-response","899","609299","0.0-4.0-10.101-0.101","","","","Rate your confidence","1",""
"760.5","i","choice","right","i","experimental","906","611878","0.0-4.0-8.102","true","103","2.849999999999999","","",""
"3433.7999999523163","4","confid","","","html-slider-response","908","615829","0.0-4.0-10.102-0.102","","","","Rate your confidence","1",""
"413.89999997615814","e","choice","left","e","experimental","915","618042","0.0-4.0-8.103","true","104","2.849999999999999","","",""
"2518.2999999523163","2","confid","","","html-slider-response","917","621066","0.0-4.0-10.103-0.103","","","","Rate your confidence","1",""
"230.29999995231628","i","choice","right","i","experimental","924","623118","0.0-4.0-8.104","true","105","2.749999999999999","","",""
"1890.7999999523163","2","confid","","","html-slider-response","926","625514","0.0-4.0-10.104-0.104","","","","Rate your confidence","1",""
"316.60000002384186","e","choice","left","e","experimental","933","627641","0.0-4.0-8.105","true","106","2.749999999999999","","",""
"1951.3999999761581","3","confid","","","html-slider-response","935","630102","0.0-4.0-10.105-0.105","","","","Rate your confidence","1",""
"932.2000000476837","e","choice","left","e","experimental","942","632843","0.0-4.0-8.106","true","107","2.649999999999999","","",""
"3124.7000000476837","6","confid","","","html-slider-response","944","636478","0.0-4.0-10.106-0.106","","","","Rate your confidence","1",""
"194.10000002384186","i","choice","right","i","experimental","951","638507","0.0-4.0-8.107","true","108","2.649999999999999","","",""
"2290.100000023842","2","confid","","","html-slider-response","953","641303","0.0-4.0-10.107-0.107","","","","Rate your confidence","1",""
"219","i","choice","right","i","experimental","960","643320","0.0-4.0-8.108","true","109","2.549999999999999","","",""
"2489.7999999523163","5","confid","","","html-slider-response","962","646346","0.0-4.0-10.108-0.108","","","","Rate your confidence","1",""
"247.60000002384186","e","choice","left","e","experimental","969","648402","0.0-4.0-8.109","true","110","2.549999999999999","","",""
"2745.399999976158","4","confid","","","html-slider-response","971","651656","0.0-4.0-10.109-0.109","","","","Rate your confidence","1",""
"400.6999999284744","e","choice","right","i","experimental","979","726181","0.0-4.0-8.110","false","111","2.449999999999999","","",""
"2684.600000023842","1","confid","","","html-slider-response","981","729374","0.0-4.0-10.110-0.110","","","","Rate your confidence","1",""
"268.89999997615814","e","choice","left","e","experimental","988","731474","0.0-4.0-8.111","true","112","2.549999999999999","","",""
"8452.400000095367","4","confid","","","html-slider-response","990","740433","0.0-4.0-10.111-0.111","","","","Rate your confidence","1",""
"643.3999999761581","i","choice","right","i","experimental","997","742930","0.0-4.0-8.112","true","113","2.549999999999999","","",""
"3089.100000023842","4","confid","","","html-slider-response","999","746524","0.0-4.0-10.112-0.112","","","","Rate your confidence","1",""
"401.5","e","choice","left","e","experimental","1006","748751","0.0-4.0-8.113","true","114","2.449999999999999","","",""
"2264.899999976158","2","confid","","","html-slider-response","1008","751521","0.0-4.0-10.113-0.113","","","","Rate your confidence","1",""
"220","i","choice","right","i","experimental","1015","753549","0.0-4.0-8.114","true","115","2.449999999999999","","",""
"2219.600000023842","6","confid","","","html-slider-response","1017","756280","0.0-4.0-10.114-0.114","","","","Rate your confidence","1",""
"340.10000002384186","e","choice","left","e","experimental","1024","758441","0.0-4.0-8.115","true","116","2.3499999999999988","","",""
"2607.2000000476837","2","confid","","","html-slider-response","1026","761557","0.0-4.0-10.115-0.115","","","","Rate your confidence","1",""
"285.2000000476837","i","choice","right","i","experimental","1033","763671","0.0-4.0-8.116","true","117","2.3499999999999988","","",""
"2076.7000000476837","3","confid","","","html-slider-response","1035","766253","0.0-4.0-10.116-0.116","","","","Rate your confidence","1",""
"310.7999999523163","e","choice","left","e","experimental","1042","768383","0.0-4.0-8.117","true","118","2.2499999999999987","","",""
"2908.5","5","confid","","","html-slider-response","1044","771797","0.0-4.0-10.117-0.117","","","","Rate your confidence","1",""
"384.60000002384186","i","choice","left","e","experimental","1051","773982","0.0-4.0-8.118","false","119","2.2499999999999987","","",""
"2271.899999976158","6","confid","","","html-slider-response","1053","776761","0.0-4.0-10.118-0.118","","","","Rate your confidence","1",""
"155.60000002384186","i","choice","right","i","experimental","1060","778716","0.0-4.0-8.119","true","120","2.3499999999999988","","",""
"2026.5999999046326","4","confid","","","html-slider-response","1062","781248","0.0-4.0-10.119-0.119","","","","Rate your confidence","1",""
"236.5","i","choice","left","e","experimental","1069","783316","0.0-4.0-8.120","false","121","2.3499999999999988","","",""
"1968.2000000476837","5","confid","","","html-slider-response","1071","785794","0.0-4.0-10.120-0.120","","","","Rate your confidence","1",""
"266.7999999523163","e","choice","right","i","experimental","1078","787882","0.0-4.0-8.121","false","122","2.449999999999999","","",""
"2046.7999999523163","3","confid","","","html-slider-response","1080","790437","0.0-4.0-10.121-0.121","","","","Rate your confidence","1",""
"55","e","choice","left","e","experimental","1087","792312","0.0-4.0-8.122","true","123","2.549999999999999","","",""
"2107.5","5","confid","","","html-slider-response","1089","794930","0.0-4.0-10.122-0.122","","","","Rate your confidence","1",""
"272.5","i","choice","right","i","experimental","1096","797038","0.0-4.0-8.123","true","124","2.549999999999999","","",""
"2596.899999976158","5","confid","","","html-slider-response","1098","800140","0.0-4.0-10.123-0.123","","","","Rate your confidence","1",""
"199.40000009536743","i","choice","left","e","experimental","1105","802138","0.0-4.0-8.124","false","125","2.449999999999999","","",""
"2216.100000023842","5","confid","","","html-slider-response","1107","804861","0.0-4.0-10.124-0.124","","","","Rate your confidence","1",""
"309.2999999523163","e","choice","right","i","experimental","1114","806980","0.0-4.0-8.125","false","126","2.549999999999999","","",""
"2920.600000023842","1","confid","","","html-slider-response","1116","810407","0.0-4.0-10.125-0.125","","","","Rate your confidence","1",""
"239.90000009536743","e","choice","right","i","experimental","1123","812457","0.0-4.0-8.126","false","127","2.649999999999999","","",""
"3724.5","5","confid","","","html-slider-response","1125","816692","0.0-4.0-10.126-0.126","","","","Rate your confidence","1",""
"107.60000002384186","e","choice","left","e","experimental","1132","818602","0.0-4.0-8.127","true","128","2.749999999999999","","",""
"2628.9000000953674","4","confid","","","html-slider-response","1134","821756","0.0-4.0-10.127-0.127","","","","Rate your confidence","1",""
"85.30000007152557","i","choice","right","i","experimental","1141","823647","0.0-4.0-8.128","true","129","2.749999999999999","","",""
"2109.7999999523163","4","confid","","","html-slider-response","1143","826267","0.0-4.0-10.128-0.128","","","","Rate your confidence","1",""
"147.69999992847443","e","choice","left","e","experimental","1150","828228","0.0-4.0-8.129","true","130","2.649999999999999","","",""
"2119.3000000715256","4","confid","","","html-slider-response","1152","830858","0.0-4.0-10.129-0.129","","","","Rate your confidence","1",""
"214.89999997615814","e","choice","left","e","experimental","1159","832906","0.0-4.0-8.130","true","131","2.649999999999999","","",""
"2240.2999999523163","6","confid","","","html-slider-response","1161","835652","0.0-4.0-10.130-0.130","","","","Rate your confidence","1",""
"337.59999990463257","i","choice","right","i","experimental","1168","837803","0.0-4.0-8.131","true","132","2.549999999999999","","",""
"3991.100000023842","6","confid","","","html-slider-response","1170","842300","0.0-4.0-10.131-0.131","","","","Rate your confidence","1",""
"273.10000002384186","i","choice","right","i","experimental","1177","844396","0.0-4.0-8.132","true","133","2.549999999999999","","",""
"2814.2999999523163","6","confid","","","html-slider-response","1179","847716","0.0-4.0-10.132-0.132","","","","Rate your confidence","1",""
"191.79999995231628","i","choice","left","e","experimental","1186","849720","0.0-4.0-8.133","false","134","2.449999999999999","","",""
"2102.1999999284744","5","confid","","","html-slider-response","1188","852342","0.0-4.0-10.133-0.133","","","","Rate your confidence","1",""
"182.60000002384186","i","choice","right","i","experimental","1195","854332","0.0-4.0-8.134","true","135","2.549999999999999","","",""
"1802.3999999761581","4","confid","","","html-slider-response","1197","856642","0.0-4.0-10.134-0.134","","","","Rate your confidence","1",""
"230.80000007152557","e","choice","left","e","experimental","1204","858695","0.0-4.0-8.135","true","136","2.549999999999999","","",""
"3235.2999999523163","4","confid","","","html-slider-response","1206","862435","0.0-4.0-10.135-0.135","","","","Rate your confidence","1",""
"524.8000000715256","i","choice","left","e","experimental","1213","864778","0.0-4.0-8.136","false","137","2.449999999999999","","",""
"2347.9000000953674","5","confid","","","html-slider-response","1215","867635","0.0-4.0-10.136-0.136","","","","Rate your confidence","1",""
"265.89999997615814","i","choice","right","i","experimental","1222","869723","0.0-4.0-8.137","true","138","2.549999999999999","","",""
"2241.4000000953674","4","confid","","","html-slider-response","1224","872471","0.0-4.0-10.137-0.137","","","","Rate your confidence","1",""
"565.1999999284744","e","choice","left","e","experimental","1231","874849","0.0-4.0-8.138","true","139","2.549999999999999","","",""
"4592.800000071526","4","confid","","","html-slider-response","1233","879950","0.0-4.0-10.138-0.138","","","","Rate your confidence","1",""
"76","i","choice","right","i","experimental","1240","881843","0.0-4.0-8.139","true","140","2.449999999999999","","",""
"2242.100000023842","5","confid","","","html-slider-response","1242","884595","0.0-4.0-10.139-0.139","","","","Rate your confidence","1",""
"384.60000002384186","e","choice","left","e","experimental","1249","886801","0.0-4.0-8.140","true","141","2.449999999999999","","",""
"2122.7999999523163","2","confid","","","html-slider-response","1251","889432","0.0-4.0-10.140-0.140","","","","Rate your confidence","1",""
"326.10000002384186","i","choice","right","i","experimental","1258","891575","0.0-4.0-8.141","true","142","2.3499999999999988","","",""
"2384.5","5","confid","","","html-slider-response","1260","894466","0.0-4.0-10.141-0.141","","","","Rate your confidence","1",""
"119.30000007152557","i","choice","right","i","experimental","1267","896419","0.0-4.0-8.142","true","143","2.3499999999999988","","",""
"35449.700000047684","5","confid","","","html-slider-response","1269","932371","0.0-4.0-10.142-0.142","","","","Rate your confidence","1",""
"496.2999999523163","i","choice","left","e","experimental","1276","934688","0.0-4.0-8.143","false","144","2.2499999999999987","","",""
"3317.399999976158","4","confid","","","html-slider-response","1278","938516","0.0-4.0-10.143-0.143","","","","Rate your confidence","1",""
"270.39999997615814","i","choice","left","e","experimental","1285","940594","0.0-4.0-8.144","false","145","2.3499999999999988","","",""
"1776.2999999523163","5","confid","","","html-slider-response","1287","942881","0.0-4.0-10.144-0.144","","","","Rate your confidence","1",""
"199.09999990463257","e","choice","right","i","experimental","1294","944895","0.0-4.0-8.145","false","146","2.449999999999999","","",""
"2220.6999999284744","3","confid","","","html-slider-response","1296","947620","0.0-4.0-10.145-0.145","","","","Rate your confidence","1",""
"211.70000004768372","i","choice","right","i","experimental","1303","949641","0.0-4.0-8.146","true","147","2.549999999999999","","",""
"1717.1999999284744","5","confid","","","html-slider-response","1305","951867","0.0-4.0-10.146-0.146","","","","Rate your confidence","1",""
"292.2999999523163","e","choice","left","e","experimental","1312","953966","0.0-4.0-8.147","true","148","2.549999999999999","","",""
"5408.899999976158","4","confid","","","html-slider-response","1314","959880","0.0-4.0-10.147-0.147","","","","Rate your confidence","1",""
"94.60000002384186","i","choice","right","i","experimental","1321","961832","0.0-4.0-8.148","true","149","2.449999999999999","","",""
"2533.4000000953674","5","confid","","","html-slider-response","1323","964876","0.0-4.0-10.148-0.148","","","","Rate your confidence","1",""
"355.90000009536743","e","choice","left","e","experimental","1330","967040","0.0-4.0-8.149","true","150","2.449999999999999","","",""
"3114.100000023842","5","confid","","","html-slider-response","1332","970664","0.0-4.0-10.149-0.149","","","","Rate your confidence","1",""
"219.89999997615814","e","choice","left","e","experimental","1339","972713","0.0-4.0-8.150","true","151","2.3499999999999988","","",""
"2220.899999976158","5","confid","","","html-slider-response","1341","975441","0.0-4.0-10.150-0.150","","","","Rate your confidence","1",""
"354.5","i","choice","right","i","experimental","1348","977604","0.0-4.0-8.151","true","152","2.3499999999999988","","",""
"2126.7999999523163","5","confid","","","html-slider-response","1350","980239","0.0-4.0-10.151-0.151","","","","Rate your confidence","1",""
"189.09999990463257","i","choice","right","i","experimental","1358","1181840","0.0-4.0-8.152","true","153","2.2499999999999987","","",""
"3038.899999976158","3","confid","","","html-slider-response","1360","1185386","0.0-4.0-10.152-0.152","","","","Rate your confidence","1",""
"303.7000000476837","e","choice","left","e","experimental","1367","1187497","0.0-4.0-8.153","true","154","2.2499999999999987","","",""
"2251.399999976158","6","confid","","","html-slider-response","1369","1190254","0.0-4.0-10.153-0.153","","","","Rate your confidence","1",""
"262.10000002384186","i","choice","left","e","experimental","1376","1192323","0.0-4.0-8.154","false","155","2.1499999999999986","","",""
"2480","1","confid","","","html-slider-response","1378","1195313","0.0-4.0-10.154-0.154","","","","Rate your confidence","1",""
"642.2000000476837","e","choice","right","i","experimental","1385","1197765","0.0-4.0-8.155","false","156","2.2499999999999987","","",""
"2454.899999976158","2","confid","","","html-slider-response","1387","1200731","0.0-4.0-10.155-0.155","","","","Rate your confidence","1",""
"228.80000007152557","i","choice","left","e","experimental","1394","1202763","0.0-4.0-8.156","false","157","2.3499999999999988","","",""
"3059.5","5","confid","","","html-slider-response","1396","1206335","0.0-4.0-10.156-0.156","","","","Rate your confidence","1",""
"851.5","e","choice","right","i","experimental","1403","1209004","0.0-4.0-8.157","false","158","2.449999999999999","","",""
"2520.1999999284744","1","confid","","","html-slider-response","1405","1212030","0.0-4.0-10.157-0.157","","","","Rate your confidence","1",""
"232.70000004768372","i","choice","right","i","experimental","1412","1214068","0.0-4.0-8.158","true","159","2.549999999999999","","",""
"2281.899999976158","5","confid","","","html-slider-response","1414","1216860","0.0-4.0-10.158-0.158","","","","Rate your confidence","1",""
"270.60000002384186","i","choice","left","e","experimental","1421","1218949","0.0-4.0-8.159","false","160","2.549999999999999","","",""
"2833.2000000476837","3","confid","","","html-slider-response","1423","1222293","0.0-4.0-10.159-0.159","","","","Rate your confidence","1",""
"284.2999999523163","i","choice","right","i","experimental","1430","1224386","0.0-4.0-8.160","true","161","2.649999999999999","","",""
"3079.9000000953674","6","confid","","","html-slider-response","1432","1227977","0.0-4.0-10.160-0.160","","","","Rate your confidence","1",""
"244.29999995231628","e","choice","left","e","experimental","1439","1230053","0.0-4.0-8.161","true","162","2.649999999999999","","",""
"2471.5","5","confid","","","html-slider-response","1441","1233045","0.0-4.0-10.161-0.161","","","","Rate your confidence","1",""
"84.60000002384186","i","choice","right","i","experimental","1448","1234955","0.0-4.0-8.162","true","163","2.549999999999999","","",""
"3427.100000023842","4","confid","","","html-slider-response","1450","1238888","0.0-4.0-10.162-0.162","","","","Rate your confidence","1",""
"268.1999999284744","e","choice","left","e","experimental","1457","1240977","0.0-4.0-8.163","true","164","2.549999999999999","","",""
"2577.7000000476837","3","confid","","","html-slider-response","1459","1244067","0.0-4.0-10.163-0.163","","","","Rate your confidence","1",""
"55.300000071525574","e","choice","left","e","experimental","1466","1245932","0.0-4.0-8.164","true","165","2.449999999999999","","",""
"1865.5","5","confid","","","html-slider-response","1468","1248304","0.0-4.0-10.164-0.164","","","","Rate your confidence","1",""
"320","i","choice","right","i","experimental","1475","1250443","0.0-4.0-8.165","true","166","2.449999999999999","","",""
"2779.600000023842","4","confid","","","html-slider-response","1477","1253734","0.0-4.0-10.165-0.165","","","","Rate your confidence","1",""
"87.5","i","choice","left","e","experimental","1484","1255641","0.0-4.0-8.166","false","167","2.3499999999999988","","",""
"3175.899999976158","4","confid","","","html-slider-response","1486","1259327","0.0-4.0-10.166-0.166","","","","Rate your confidence","1",""
"84.40000009536743","i","choice","right","i","experimental","1493","1261237","0.0-4.0-8.167","true","168","2.449999999999999","","",""
"2413.5999999046326","4","confid","","","html-slider-response","1495","1264156","0.0-4.0-10.167-0.167","","","","Rate your confidence","1",""
"410.6999999284744","e","choice","left","e","experimental","1502","1266379","0.0-4.0-8.168","true","169","2.449999999999999","","",""
"2472.5","6","confid","","","html-slider-response","1504","1269359","0.0-4.0-10.168-0.168","","","","Rate your confidence","1",""
"215","i","choice","right","i","experimental","1511","1271375","0.0-4.0-8.169","true","170","2.3499999999999988","","",""
"4172.199999928474","3","confid","","","html-slider-response","1513","1276054","0.0-4.0-10.169-0.169","","","","Rate your confidence","1",""
"243.29999995231628","e","choice","left","e","experimental","1520","1278110","0.0-4.0-8.170","true","171","2.3499999999999988","","",""
"3599.100000023842","6","confid","","","html-slider-response","1522","1282218","0.0-4.0-10.170-0.170","","","","Rate your confidence","1",""
"97.89999997615814","i","choice","right","i","experimental","1529","1284136","0.0-4.0-8.171","true","172","2.2499999999999987","","",""
"2995.100000023842","1","confid","","","html-slider-response","1531","1287639","0.0-4.0-10.171-0.171","","","","Rate your confidence","1",""
"140","e","choice","left","e","experimental","1538","1289579","0.0-4.0-8.172","true","173","2.2499999999999987","","",""
"3032.1999999284744","3","confid","","","html-slider-response","1540","1293117","0.0-4.0-10.172-0.172","","","","Rate your confidence","1",""
"126.89999997615814","i","choice","right","i","experimental","1547","1295070","0.0-4.0-8.173","true","174","2.1499999999999986","","",""
"2707.600000023842","4","confid","","","html-slider-response","1549","1298283","0.0-4.0-10.173-0.173","","","","Rate your confidence","1",""
"34.5","i","choice","right","i","experimental","1556","1300143","0.0-4.0-8.174","true","175","2.1499999999999986","","",""
"2670.6999999284744","4","confid","","","html-slider-response","1558","1303342","0.0-4.0-10.174-0.174","","","","Rate your confidence","1",""
"224.29999995231628","i","choice","left","e","experimental","1565","1305378","0.0-4.0-8.175","false","176","2.0499999999999985","","",""
"2247.7000000476837","5","confid","","","html-slider-response","1567","1308136","0.0-4.0-10.175-0.175","","","","Rate your confidence","1",""
"86.40000009536743","i","choice","right","i","experimental","1574","1310022","0.0-4.0-8.176","true","177","2.1499999999999986","","",""
"2228.7000000476837","3","confid","","","html-slider-response","1576","1312762","0.0-4.0-10.176-0.176","","","","Rate your confidence","1",""
"537.7999999523163","i","choice","left","e","experimental","1583","1315138","0.0-4.0-8.177","false","178","2.1499999999999986","","",""
"4119.700000047684","2","confid","","","html-slider-response","1585","1319770","0.0-4.0-10.177-0.177","","","","Rate your confidence","1",""
"169.59999990463257","e","choice","left","e","experimental","1592","1321753","0.0-4.0-8.178","true","179","2.2499999999999987","","",""
"2553.600000023842","2","confid","","","html-slider-response","1594","1324818","0.0-4.0-10.178-0.178","","","","Rate your confidence","1",""
"60.40000009536743","i","choice","right","i","experimental","1601","1326689","0.0-4.0-8.179","true","180","2.2499999999999987","","",""
"3560.8000000715256","2","confid","","","html-slider-response","1603","1330767","0.0-4.0-10.179-0.179","","","","Rate your confidence","1",""
"315.1999999284744","i","choice","right","i","experimental","1610","1332881","0.0-4.0-8.180","true","181","2.1499999999999986","","",""
"3190.100000023842","3","confid","","","html-slider-response","1612","1336582","0.0-4.0-10.180-0.180","","","","Rate your confidence","1",""
"246.10000002384186","e","choice","left","e","experimental","1619","1338636","0.0-4.0-8.181","true","182","2.1499999999999986","","",""
"6124.899999976158","3","confid","","","html-slider-response","1621","1345266","0.0-4.0-10.181-0.181","","","","Rate your confidence","1",""
"397","i","choice","right","i","experimental","1628","1347481","0.0-4.0-8.182","true","183","2.0499999999999985","","",""
"2395.2000000476837","6","confid","","","html-slider-response","1630","1350381","0.0-4.0-10.182-0.182","","","","Rate your confidence","1",""
"515","i","choice","left","e","experimental","1637","1352698","0.0-4.0-8.183","false","184","2.0499999999999985","","",""
"4259.5","2","confid","","","html-slider-response","1639","1357493","0.0-4.0-10.183-0.183","","","","Rate your confidence","1",""
"428.5","e","choice","left","e","experimental","1646","1359746","0.0-4.0-8.184","true","185","2.1499999999999986","","",""
"2658.600000023842","1","confid","","","html-slider-response","1648","1362916","0.0-4.0-10.184-0.184","","","","Rate your confidence","1",""
"258.7000000476837","i","choice","right","i","experimental","1655","1365002","0.0-4.0-8.185","true","186","2.1499999999999986","","",""
"4257.699999928474","5","confid","","","html-slider-response","1657","1369768","0.0-4.0-10.185-0.185","","","","Rate your confidence","1",""
"307.7999999523163","i","choice","right","i","experimental","1664","1371894","0.0-4.0-8.186","true","187","2.0499999999999985","","",""
"2935.5999999046326","6","confid","","","html-slider-response","1666","1375348","0.0-4.0-10.186-0.186","","","","Rate your confidence","1",""
"349.89999997615814","i","choice","left","e","experimental","1673","1377526","0.0-4.0-8.187","false","188","2.0499999999999985","","",""
"2747.600000023842","2","confid","","","html-slider-response","1675","1380778","0.0-4.0-10.187-0.187","","","","Rate your confidence","1",""
"244.29999995231628","i","choice","right","i","experimental","1682","1382831","0.0-4.0-8.188","true","189","2.1499999999999986","","",""
"1950.6000000238419","5","confid","","","html-slider-response","1684","1385288","0.0-4.0-10.188-0.188","","","","Rate your confidence","1",""
"170.69999992847443","e","choice","left","e","experimental","1691","1387272","0.0-4.0-8.189","true","190","2.1499999999999986","","",""
"2317.8000000715256","6","confid","","","html-slider-response","1693","1390096","0.0-4.0-10.189-0.189","","","","Rate your confidence","1",""
"166","i","choice","right","i","experimental","1700","1392084","0.0-4.0-8.190","true","191","2.0499999999999985","","",""
"3383.5","5","confid","","","html-slider-response","1702","1395981","0.0-4.0-10.190-0.190","","","","Rate your confidence","1",""
"202.80000007152557","i","choice","left","e","experimental","1709","1398007","0.0-4.0-8.191","false","192","2.0499999999999985","","",""
"2114.399999976158","4","confid","","","html-slider-response","1711","1400633","0.0-4.0-10.191-0.191","","","","Rate your confidence","1",""
"221.80000007152557","i","choice","right","i","experimental","1718","1402677","0.0-4.0-8.192","true","193","2.1499999999999986","","",""
"2692.5","2","confid","","","html-slider-response","1720","1405879","0.0-4.0-10.192-0.192","","","","Rate your confidence","1",""
"331.1999999284744","e","choice","left","e","experimental","1727","1408038","0.0-4.0-8.193","true","194","2.1499999999999986","","",""
"1964","4","confid","","","html-slider-response","1729","1410513","0.0-4.0-10.193-0.193","","","","Rate your confidence","1","64803"
