"rt","response","task","target_side","correct_response","trial_type","trial_index","time_elapsed","internal_node_id","correct","trial_number","n_dots","stimulus","slider_start","participant"
"2029.5999999940395","e","choice","right","i","practice","10","143149","0.0-4.0-8.0","false","1","4.25","","",""
"1236","i","choice","left","e","practice","18","146681","0.0-4.0-8.1","false","2","4.65","","",""
"694.2999999821186","e","choice","left","e","practice","26","149674","0.0-4.0-8.2","true","3","5.050000000000001","","",""
"457.90000000596046","i","choice","right","i","practice","34","152424","0.0-4.0-8.3","true","4","5.050000000000001","","",""
"556.2999999821186","e","choice","left","e","practice","42","155286","0.0-4.0-8.4","true","5","4.65","","",""
"378.7999999821186","i","choice","right","i","practice","50","157967","0.0-4.0-8.5","true","6","4.65","","",""
"487","i","choice","right","i","practice","58","160762","0.0-4.0-8.6","true","7","4.45","","",""
"779.1999999880791","i","choice","left","e","practice","66","163833","0.0-4.0-8.7","false","8","4.45","","",""
"572.2999999821186","e","choice","left","e","practice","74","166692","0.0-4.0-8.8","true","9","4.65","","",""
"356.7000000178814","i","choice","right","i","practice","82","169357","0.0-4.0-8.9","true","10","4.65","","",""
"558.2999999821186","e","choice","left","e","practice","90","172224","0.0-4.0-8.10","true","11","4.45","","",""
"320.30000001192093","i","choice","right","i","practice","98","174847","0.0-4.0-8.11","true","12","4.45","","",""
"573.8999999761581","i","choice","right","i","practice","106","177723","0.0-4.0-8.12","true","13","4.3500000000000005","","",""
"401","e","choice","left","e","practice","114","180419","0.0-4.0-8.13","true","14","4.3500000000000005","","",""
"478.5","i","choice","right","i","practice","122","183190","0.0-4.0-8.14","true","15","4.250000000000001","","",""
"731","i","choice","left","e","practice","130","186225","0.0-4.0-8.15","false","16","4.250000000000001","","",""
"575","e","choice","left","e","practice","138","189110","0.0-4.0-8.16","true","17","4.3500000000000005","","",""
"362.59999999403954","i","choice","right","i","practice","146","191766","0.0-4.0-8.17","true","18","4.3500000000000005","","",""
"750.0999999940395","i","choice","left","e","practice","154","194798","0.0-4.0-8.18","false","19","4.250000000000001","","",""
"383","i","choice","right","i","practice","162","197489","0.0-4.0-8.19","true","20","4.3500000000000005","","",""
"464.90000000596046","i","choice","right","i","practice","170","200253","0.0-4.0-8.20","true","21","4.3500000000000005","","",""
"490.40000000596046","e","choice","left","e","practice","178","203036","0.0-4.0-8.21","true","22","4.250000000000001","","",""
"489.09999999403954","i","choice","right","i","practice","186","205812","0.0-4.0-8.22","true","23","4.250000000000001","","",""
"507.5","i","choice","left","e","practice","194","208614","0.0-4.0-8.23","false","24","4.150000000000001","","",""
"428.90000000596046","e","choice","left","e","practice","202","211337","0.0-4.0-8.24","true","25","4.250000000000001","","",""
"279.09999999403954","i","choice","right","i","practice","210","213913","0.0-4.0-8.25","true","26","4.250000000000001","","",""
"3513.2999999821186","i","choice","right","i","experimental","221","251560","0.0-4.0-8.26","true","27","4.150000000000001","","",""
"4679.199999988079","5","confid","","","html-slider-response","223","256755","0.0-4.0-10.26-0.26","","","","Rate your confidence","1",""
"826.5999999940395","e","choice","left","e","experimental","230","259379","0.0-4.0-8.27","true","28","4.150000000000001","","",""
"4594.299999982119","3","confid","","","html-slider-response","232","264477","0.0-4.0-10.27-0.27","","","","Rate your confidence","1",""
"743.0999999940395","i","choice","right","i","experimental","239","267008","0.0-4.0-8.28","true","29","4.050000000000002","","",""
"3734.5","4","confid","","","html-slider-response","241","271247","0.0-4.0-10.28-0.28","","","","Rate your confidence","1",""
"893.1000000238419","e","choice","left","e","experimental","248","273933","0.0-4.0-8.29","true","30","4.050000000000002","","",""
"4116.5","2","confid","","","html-slider-response","250","278554","0.0-4.0-10.29-0.29","","","","Rate your confidence","1",""
"848.5999999940395","e","choice","left","e","experimental","257","281204","0.0-4.0-8.30","true","31","3.9500000000000015","","",""
"5076","4","confid","","","html-slider-response","259","286784","0.0-4.0-10.30-0.30","","","","Rate your confidence","1",""
"2869.5999999940395","i","choice","right","i","experimental","266","291447","0.0-4.0-8.31","true","32","3.9500000000000015","","",""
"3188.699999988079","3","confid","","","html-slider-response","268","295150","0.0-4.0-10.31-0.31","","","","Rate your confidence","1",""
"1681.2000000178814","i","choice","right","i","experimental","275","298625","0.0-4.0-8.32","true","33","3.8500000000000014","","",""
"2567.5","3","confid","","","html-slider-response","277","301697","0.0-4.0-10.32-0.32","","","","Rate your confidence","1",""
"1610.199999988079","i","choice","left","e","experimental","284","305101","0.0-4.0-8.33","false","34","3.8500000000000014","","",""
"3170.300000011921","3","confid","","","html-slider-response","286","308776","0.0-4.0-10.33-0.33","","","","Rate your confidence","1",""
"1618.5999999940395","i","choice","right","i","experimental","293","312196","0.0-4.0-8.34","true","35","3.9500000000000015","","",""
"3898.899999976158","3","confid","","","html-slider-response","295","316598","0.0-4.0-10.34-0.34","","","","Rate your confidence","1",""
"1251.800000011921","e","choice","left","e","experimental","302","319639","0.0-4.0-8.35","true","36","3.9500000000000015","","",""
"2508.9000000059605","2","confid","","","html-slider-response","304","322653","0.0-4.0-10.35-0.35","","","","Rate your confidence","1",""
"2583.7999999821186","e","choice","left","e","experimental","311","327027","0.0-4.0-8.36","true","37","3.8500000000000014","","",""
"2047.9000000059605","4","confid","","","html-slider-response","313","329578","0.0-4.0-10.36-0.36","","","","Rate your confidence","1",""
"1519.800000011921","i","choice","right","i","experimental","320","332905","0.0-4.0-8.37","true","38","3.8500000000000014","","",""
"2730.4000000059605","3","confid","","","html-slider-response","322","336139","0.0-4.0-10.37-0.37","","","","Rate your confidence","1",""
"1706.199999988079","i","choice","left","e","experimental","329","339653","0.0-4.0-8.38","false","39","3.7500000000000013","","",""
"3104.7000000178814","3","confid","","","html-slider-response","331","343262","0.0-4.0-10.38-0.38","","","","Rate your confidence","1",""
"1154.5999999940395","i","choice","right","i","experimental","338","346199","0.0-4.0-8.39","true","40","3.8500000000000014","","",""
"2282.7000000178814","2","confid","","","html-slider-response","340","348985","0.0-4.0-10.39-0.39","","","","Rate your confidence","1",""
"1501.2999999821186","e","choice","right","i","experimental","347","352285","0.0-4.0-8.40","false","41","3.8500000000000014","","",""
"6276.700000017881","1","confid","","","html-slider-response","349","359065","0.0-4.0-10.40-0.40","","","","Rate your confidence","1",""
"1733.9000000059605","i","choice","left","e","experimental","356","362594","0.0-4.0-8.41","false","42","3.9500000000000015","","",""
"3235.4000000059605","1","confid","","","html-slider-response","358","366333","0.0-4.0-10.41-0.41","","","","Rate your confidence","1",""
"761","i","choice","right","i","experimental","365","368900","0.0-4.0-8.42","true","43","4.050000000000002","","",""
"3557.199999988079","6","confid","","","html-slider-response","367","372965","0.0-4.0-10.42-0.42","","","","Rate your confidence","1",""
"1347.0999999940395","i","choice","left","e","experimental","374","376106","0.0-4.0-8.43","false","44","4.050000000000002","","",""
"2339.5999999940395","4","confid","","","html-slider-response","376","378950","0.0-4.0-10.43-0.43","","","","Rate your confidence","1",""
"1882.7000000178814","i","choice","left","e","experimental","383","382628","0.0-4.0-8.44","false","45","4.150000000000001","","",""
"2531.699999988079","3","confid","","","html-slider-response","385","385663","0.0-4.0-10.44-0.44","","","","Rate your confidence","1",""
"756.0999999940395","i","choice","right","i","experimental","392","388226","0.0-4.0-8.45","true","46","4.250000000000001","","",""
"2322.2999999821186","5","confid","","","html-slider-response","394","391051","0.0-4.0-10.45-0.45","","","","Rate your confidence","1",""
"722.9000000059605","e","choice","left","e","experimental","401","393556","0.0-4.0-8.46","true","47","4.250000000000001","","",""
"2051.2000000178814","3","confid","","","html-slider-response","403","396112","0.0-4.0-10.46-0.46","","","","Rate your confidence","1",""
"548.0999999940395","i","choice","right","i","experimental","410","398460","0.0-4.0-8.47","true","48","4.150000000000001","","",""
"2837.699999988079","5","confid","","","html-slider-response","412","401801","0.0-4.0-10.47-0.47","","","","Rate your confidence","1",""
"442.5","e","choice","left","e","experimental","419","404045","0.0-4.0-8.48","true","49","4.150000000000001","","",""
"2878.2000000178814","5","confid","","","html-slider-response","421","407429","0.0-4.0-10.48-0.48","","","","Rate your confidence","1",""
"678.9000000059605","i","choice","right","i","experimental","428","409902","0.0-4.0-8.49","true","50","4.050000000000002","","",""
"1950.699999988079","4","confid","","","html-slider-response","430","412357","0.0-4.0-10.49-0.49","","","","Rate your confidence","1",""
"850.9000000059605","i","choice","right","i","experimental","437","414997","0.0-4.0-8.50","true","51","4.050000000000002","","",""
"2446.5999999940395","3","confid","","","html-slider-response","439","417947","0.0-4.0-10.50-0.50","","","","Rate your confidence","1",""
"666.6999999880791","e","choice","left","e","experimental","446","420413","0.0-4.0-8.51","true","52","3.9500000000000015","","",""
"2731.2999999821186","3","confid","","","html-slider-response","448","423648","0.0-4.0-10.51-0.51","","","","Rate your confidence","1",""
"583.9000000059605","i","choice","left","e","experimental","455","426025","0.0-4.0-8.52","false","53","3.9500000000000015","","",""
"2321.4000000059605","2","confid","","","html-slider-response","457","428850","0.0-4.0-10.52-0.52","","","","Rate your confidence","1",""
"501.7999999821186","i","choice","right","i","experimental","464","431159","0.0-4.0-8.53","true","54","4.050000000000002","","",""
"1904.7000000178814","4","confid","","","html-slider-response","466","433569","0.0-4.0-10.53-0.53","","","","Rate your confidence","1",""
"885.7999999821186","i","choice","right","i","experimental","473","436247","0.0-4.0-8.54","true","55","4.050000000000002","","",""
"2822","4","confid","","","html-slider-response","475","439573","0.0-4.0-10.54-0.54","","","","Rate your confidence","1",""
"1741.7999999821186","e","choice","left","e","experimental","482","443106","0.0-4.0-8.55","true","56","3.9500000000000015","","",""
"2040.9000000059605","2","confid","","","html-slider-response","484","445651","0.0-4.0-10.55-0.55","","","","Rate your confidence","1",""
"2471.5","i","choice","right","i","experimental","491","449923","0.0-4.0-8.56","true","57","3.9500000000000015","","",""
"5079.199999988079","1","confid","","","html-slider-response","493","455505","0.0-4.0-10.56-0.56","","","","Rate your confidence","1",""
"4329.5","e","choice","left","e","experimental","500","461641","0.0-4.0-8.57","true","58","3.8500000000000014","","",""
"2335.9000000059605","1","confid","","","html-slider-response","502","464480","0.0-4.0-10.57-0.57","","","","Rate your confidence","1",""
"646","i","choice","left","e","experimental","509","466923","0.0-4.0-8.58","false","59","3.8500000000000014","","",""
"2121.0999999940395","2","confid","","","html-slider-response","511","469548","0.0-4.0-10.58-0.58","","","","Rate your confidence","1",""
"1427.2000000178814","i","choice","right","i","experimental","518","472775","0.0-4.0-8.59","true","60","3.9500000000000015","","",""
"2952.800000011921","2","confid","","","html-slider-response","520","476231","0.0-4.0-10.59-0.59","","","","Rate your confidence","1",""
"2939.0999999940395","e","choice","right","i","experimental","527","480975","0.0-4.0-8.60","false","61","3.9500000000000015","","",""
"2884.7000000178814","1","confid","","","html-slider-response","529","484364","0.0-4.0-10.60-0.60","","","","Rate your confidence","1",""
"971.7999999821186","e","choice","left","e","experimental","536","487143","0.0-4.0-8.61","true","62","4.050000000000002","","",""
"3346.199999988079","5","confid","","","html-slider-response","538","490992","0.0-4.0-10.61-0.61","","","","Rate your confidence","1",""
"1172.7999999821186","i","choice","left","e","experimental","545","493950","0.0-4.0-8.62","false","63","4.050000000000002","","",""
"2383","3","confid","","","html-slider-response","547","496839","0.0-4.0-10.62-0.62","","","","Rate your confidence","1",""
"1177.699999988079","i","choice","right","i","experimental","554","499807","0.0-4.0-8.63","true","64","4.150000000000001","","",""
"1875.300000011921","3","confid","","","html-slider-response","556","502187","0.0-4.0-10.63-0.63","","","","Rate your confidence","1",""
"749.3999999761581","e","choice","left","e","experimental","563","504728","0.0-4.0-8.64","true","65","4.150000000000001","","",""
"2318.300000011921","5","confid","","","html-slider-response","565","507550","0.0-4.0-10.64-0.64","","","","Rate your confidence","1",""
"1884.2000000178814","i","choice","right","i","experimental","572","511236","0.0-4.0-8.65","true","66","4.050000000000002","","",""
"3941.300000011921","2","confid","","","html-slider-response","574","515682","0.0-4.0-10.65-0.65","","","","Rate your confidence","1",""
"497","e","choice","left","e","experimental","581","517979","0.0-4.0-8.66","true","67","4.050000000000002","","",""
"2410.4000000059605","5","confid","","","html-slider-response","583","520893","0.0-4.0-10.66-0.66","","","","Rate your confidence","1",""
"501.90000000596046","i","choice","right","i","experimental","590","523194","0.0-4.0-8.67","true","68","3.9500000000000015","","",""
"2135.5","4","confid","","","html-slider-response","592","525832","0.0-4.0-10.67-0.67","","","","Rate your confidence","1",""
"9067.40000000596","e","choice","right","i","experimental","600","758408","0.0-4.0-8.68","false","69","3.9500000000000015","","",""
"2040.9000000059605","1","confid","","","html-slider-response","602","760954","0.0-4.0-10.68-0.68","","","","Rate your confidence","1",""
"1060.2999999821186","i","choice","left","e","experimental","609","763827","0.0-4.0-8.69","false","70","4.050000000000002","","",""
"3718.5","1","confid","","","html-slider-response","611","768048","0.0-4.0-10.69-0.69","","","","Rate your confidence","1",""
"1803.9000000059605","e","choice","left","e","experimental","618","771655","0.0-4.0-8.70","true","71","4.150000000000001","","",""
"2326.5","2","confid","","","html-slider-response","620","774486","0.0-4.0-10.70-0.70","","","","Rate your confidence","1",""
"431","i","choice","right","i","experimental","627","776714","0.0-4.0-8.71","true","72","4.150000000000001","","",""
"27159.69999998808","3","confid","","","html-slider-response","629","804377","0.0-4.0-10.71-0.71","","","","Rate your confidence","1",""
"1091.5","i","choice","right","i","experimental","636","807250","0.0-4.0-8.72","true","73","4.050000000000002","","",""
"3356.600000023842","3","confid","","","html-slider-response","638","811111","0.0-4.0-10.72-0.72","","","","Rate your confidence","1",""
"1997.800000011921","e","choice","left","e","experimental","645","814903","0.0-4.0-8.73","true","74","4.050000000000002","","",""
"2589.4000000059605","1","confid","","","html-slider-response","647","817997","0.0-4.0-10.73-0.73","","","","Rate your confidence","1",""
"515.4000000059605","i","choice","right","i","experimental","654","820306","0.0-4.0-8.74","true","75","3.9500000000000015","","",""
"2885.800000011921","4","confid","","","html-slider-response","656","823696","0.0-4.0-10.74-0.74","","","","Rate your confidence","1",""
"652.8999999761581","e","choice","left","e","experimental","663","826139","0.0-4.0-8.75","true","76","3.9500000000000015","","",""
"2850.9000000059605","2","confid","","","html-slider-response","665","829494","0.0-4.0-10.75-0.75","","","","Rate your confidence","1",""
"1132.5","i","choice","left","e","experimental","672","832428","0.0-4.0-8.76","false","77","3.8500000000000014","","",""
"3572.899999976158","2","confid","","","html-slider-response","674","836505","0.0-4.0-10.76-0.76","","","","Rate your confidence","1",""
"443.30000001192093","i","choice","right","i","experimental","681","838745","0.0-4.0-8.77","true","78","3.9500000000000015","","",""
"3123.5999999940395","2","confid","","","html-slider-response","683","842374","0.0-4.0-10.77-0.77","","","","Rate your confidence","1",""
"1736.7000000178814","i","choice","right","i","experimental","690","845904","0.0-4.0-8.78","true","79","3.9500000000000015","","",""
"2930.5","2","confid","","","html-slider-response","692","849338","0.0-4.0-10.78-0.78","","","","Rate your confidence","1",""
"620.2000000178814","i","choice","left","e","experimental","699","851744","0.0-4.0-8.79","false","80","3.8500000000000014","","",""
"3054.300000011921","1","confid","","","html-slider-response","701","855302","0.0-4.0-10.79-0.79","","","","Rate your confidence","1",""
"1912.7000000178814","e","choice","right","i","experimental","708","859003","0.0-4.0-8.80","false","81","3.9500000000000015","","",""
"2607.7999999821186","1","confid","","","html-slider-response","710","862114","0.0-4.0-10.80-0.80","","","","Rate your confidence","1",""
"574.0999999940395","e","choice","left","e","experimental","717","864496","0.0-4.0-8.81","true","82","4.050000000000002","","",""
"3571.4000000059605","4","confid","","","html-slider-response","719","868571","0.0-4.0-10.81-0.81","","","","Rate your confidence","1",""
"1312.9000000059605","i","choice","right","i","experimental","726","871678","0.0-4.0-8.82","true","83","4.050000000000002","","",""
"2475.100000023842","3","confid","","","html-slider-response","728","874657","0.0-4.0-10.82-0.82","","","","Rate your confidence","1",""
"431.40000000596046","e","choice","left","e","experimental","735","876886","0.0-4.0-8.83","true","84","3.9500000000000015","","",""
"2595.800000011921","4","confid","","","html-slider-response","737","879986","0.0-4.0-10.83-0.83","","","","Rate your confidence","1",""
"676.9000000059605","e","choice","left","e","experimental","744","882449","0.0-4.0-8.84","true","85","3.9500000000000015","","",""
"3676.5","2","confid","","","html-slider-response","746","886628","0.0-4.0-10.84-0.84","","","","Rate your confidence","1",""
"814.2000000178814","i","choice","right","i","experimental","753","889222","0.0-4.0-8.85","true","86","3.8500000000000014","","",""
"3494.600000023842","2","confid","","","html-slider-response","755","893223","0.0-4.0-10.85-0.85","","","","Rate your confidence","1",""
"1826.199999988079","e","choice","left","e","experimental","762","896856","0.0-4.0-8.86","true","87","3.8500000000000014","","",""
"2553.699999988079","2","confid","","","html-slider-response","764","899913","0.0-4.0-10.86-0.86","","","","Rate your confidence","1",""
"2194.5","i","choice","right","i","experimental","771","903901","0.0-4.0-8.87","true","88","3.7500000000000013","","",""
"3107.0999999940395","1","confid","","","html-slider-response","773","907510","0.0-4.0-10.87-0.87","","","","Rate your confidence","1",""
"870.7000000178814","e","choice","right","i","experimental","780","910153","0.0-4.0-8.88","false","89","3.7500000000000013","","",""
"2126.699999988079","2","confid","","","html-slider-response","782","912783","0.0-4.0-10.88-0.88","","","","Rate your confidence","1",""
"732.6999999880791","e","choice","left","e","experimental","789","915302","0.0-4.0-8.89","true","90","3.8500000000000014","","",""
"2531.800000011921","5","confid","","","html-slider-response","791","918338","0.0-4.0-10.89-0.89","","","","Rate your confidence","1",""
"500.09999999403954","i","choice","right","i","experimental","798","920619","0.0-4.0-8.90","true","91","3.8500000000000014","","",""
"3089.2000000178814","5","confid","","","html-slider-response","800","924211","0.0-4.0-10.90-0.90","","","","Rate your confidence","1",""
"711.9000000059605","e","choice","left","e","experimental","807","926718","0.0-4.0-8.91","true","92","3.7500000000000013","","",""
"2008.3999999761581","4","confid","","","html-slider-response","809","929230","0.0-4.0-10.91-0.91","","","","Rate your confidence","1",""
"591.3000000119209","e","choice","left","e","experimental","816","931619","0.0-4.0-8.92","true","93","3.7500000000000013","","",""
"3610.2000000178814","4","confid","","","html-slider-response","818","935817","0.0-4.0-10.92-0.92","","","","Rate your confidence","1",""
"513.5","i","choice","right","i","experimental","825","938124","0.0-4.0-8.93","true","94","3.6500000000000012","","",""
"2721.699999988079","5","confid","","","html-slider-response","827","941350","0.0-4.0-10.93-0.93","","","","Rate your confidence","1",""
"584.4000000059605","e","choice","left","e","experimental","834","943727","0.0-4.0-8.94","true","95","3.6500000000000012","","",""
"2811.199999988079","5","confid","","","html-slider-response","836","947041","0.0-4.0-10.94-0.94","","","","Rate your confidence","1",""
"1153.2999999821186","i","choice","right","i","experimental","843","949981","0.0-4.0-8.95","true","96","3.550000000000001","","",""
"3001.699999988079","3","confid","","","html-slider-response","845","953485","0.0-4.0-10.95-0.95","","","","Rate your confidence","1",""
"601.5","i","choice","right","i","experimental","852","955875","0.0-4.0-8.96","true","97","3.550000000000001","","",""
"3022.0999999940395","4","confid","","","html-slider-response","854","959400","0.0-4.0-10.96-0.96","","","","Rate your confidence","1",""
"1011.5","i","choice","left","e","experimental","861","962219","0.0-4.0-8.97","false","98","3.450000000000001","","",""
"2115.4000000059605","4","confid","","","html-slider-response","863","964838","0.0-4.0-10.97-0.97","","","","Rate your confidence","1",""
"629.1000000238419","i","choice","right","i","experimental","870","967257","0.0-4.0-8.98","true","99","3.550000000000001","","",""
"1836.199999988079","4","confid","","","html-slider-response","872","969597","0.0-4.0-10.98-0.98","","","","Rate your confidence","1",""
"439.2000000178814","e","choice","left","e","experimental","879","971833","0.0-4.0-8.99","true","100","3.550000000000001","","",""
"2404","3","confid","","","html-slider-response","881","974741","0.0-4.0-10.99-0.99","","","","Rate your confidence","1",""
"348.19999998807907","i","choice","right","i","experimental","888","976884","0.0-4.0-8.100","true","101","3.450000000000001","","",""
"1822.7999999821186","5","confid","","","html-slider-response","890","979212","0.0-4.0-10.100-0.100","","","","Rate your confidence","1",""
"494.10000002384186","e","choice","left","e","experimental","897","981503","0.0-4.0-8.101","true","102","3.450000000000001","","",""
"3639.9000000059605","3","confid","","","html-slider-response","899","985647","0.0-4.0-10.101-0.101","","","","Rate your confidence","1",""
"828.2999999821186","e","choice","left","e","experimental","906","988281","0.0-4.0-8.102","true","103","3.350000000000001","","",""
"3887.600000023842","2","confid","","","html-slider-response","908","992672","0.0-4.0-10.102-0.102","","","","Rate your confidence","1",""
"465.69999998807907","i","choice","right","i","experimental","915","994940","0.0-4.0-8.103","true","104","3.350000000000001","","",""
"2073.199999988079","3","confid","","","html-slider-response","917","997518","0.0-4.0-10.103-0.103","","","","Rate your confidence","1",""
"674.3000000119209","i","choice","right","i","experimental","924","999973","0.0-4.0-8.104","true","105","3.250000000000001","","",""
"2782.199999988079","2","confid","","","html-slider-response","926","1003259","0.0-4.0-10.104-0.104","","","","Rate your confidence","1",""
"1462","e","choice","left","e","experimental","933","1006520","0.0-4.0-8.105","true","106","3.250000000000001","","",""
"3260.9000000059605","2","confid","","","html-slider-response","935","1010286","0.0-4.0-10.105-0.105","","","","Rate your confidence","1",""
"487.5","i","choice","right","i","experimental","942","1012574","0.0-4.0-8.106","true","107","3.150000000000001","","",""
"2969","3","confid","","","html-slider-response","944","1016047","0.0-4.0-10.106-0.106","","","","Rate your confidence","1",""
"1032.7999999821186","e","choice","left","e","experimental","951","1018874","0.0-4.0-8.107","true","108","3.150000000000001","","",""
"2793.4000000059605","1","confid","","","html-slider-response","953","1022170","0.0-4.0-10.107-0.107","","","","Rate your confidence","1",""
"542.3000000119209","e","choice","left","e","experimental","960","1024511","0.0-4.0-8.108","true","109","3.0500000000000007","","",""
"4180.4000000059605","4","confid","","","html-slider-response","962","1029196","0.0-4.0-10.108-0.108","","","","Rate your confidence","1",""
"6164.700000017881","i","choice","right","i","experimental","969","1037149","0.0-4.0-8.109","true","110","3.0500000000000007","","",""
"3839.0999999940395","1","confid","","","html-slider-response","971","1041503","0.0-4.0-10.109-0.109","","","","Rate your confidence","1",""
"129056.29999998212","i","choice","left","e","experimental","979","1203034","0.0-4.0-8.110","false","111","2.9500000000000006","","",""
"2654.5","5","confid","","","html-slider-response","981","1206192","0.0-4.0-10.110-0.110","","","","Rate your confidence","1",""
"1849.5","e","choice","right","i","experimental","988","1209844","0.0-4.0-8.111","false","112","3.0500000000000007","","",""
"1995.300000011921","2","confid","","","html-slider-response","990","1212343","0.0-4.0-10.111-0.111","","","","Rate your confidence","1",""
"811.5999999940395","i","choice","right","i","experimental","997","1214952","0.0-4.0-8.112","true","113","3.150000000000001","","",""
"3358.199999988079","4","confid","","","html-slider-response","999","1218814","0.0-4.0-10.112-0.112","","","","Rate your confidence","1",""
"724.0999999940395","e","choice","left","e","experimental","1006","1221342","0.0-4.0-8.113","true","114","3.150000000000001","","",""
"2765.2999999821186","2","confid","","","html-slider-response","1008","1224611","0.0-4.0-10.113-0.113","","","","Rate your confidence","1",""
"983.7999999821186","i","choice","left","e","experimental","1015","1227393","0.0-4.0-8.114","false","115","3.0500000000000007","","",""
"3220.9000000059605","2","confid","","","html-slider-response","1017","1231118","0.0-4.0-10.114-0.114","","","","Rate your confidence","1",""
"808.9000000059605","i","choice","right","i","experimental","1024","1233709","0.0-4.0-8.115","true","116","3.150000000000001","","",""
"3215.199999988079","1","confid","","","html-slider-response","1026","1237440","0.0-4.0-10.115-0.115","","","","Rate your confidence","1",""
"422.30000001192093","i","choice","right","i","experimental","1033","1239655","0.0-4.0-8.116","true","117","3.150000000000001","","",""
"2152.0999999940395","1","confid","","","html-slider-response","1035","1242311","0.0-4.0-10.116-0.116","","","","Rate your confidence","1",""
"865.5999999940395","e","choice","left","e","experimental","1042","1244987","0.0-4.0-8.117","true","118","3.0500000000000007","","",""
"2068.300000011921","1","confid","","","html-slider-response","1044","1247558","0.0-4.0-10.117-0.117","","","","Rate your confidence","1",""
"807","i","choice","right","i","experimental","1051","1250166","0.0-4.0-8.118","true","119","3.0500000000000007","","",""
"2403.2000000178814","2","confid","","","html-slider-response","1053","1253072","0.0-4.0-10.118-0.118","","","","Rate your confidence","1",""
"427.30000001192093","i","choice","left","e","experimental","1060","1255295","0.0-4.0-8.119","false","120","2.9500000000000006","","",""
"1970","5","confid","","","html-slider-response","1062","1257768","0.0-4.0-10.119-0.119","","","","Rate your confidence","1",""
"870.6999999880791","e","choice","right","i","experimental","1069","1260437","0.0-4.0-8.120","false","121","3.0500000000000007","","",""
"1920.5","3","confid","","","html-slider-response","1071","1262862","0.0-4.0-10.120-0.120","","","","Rate your confidence","1",""
"2070.7000000178814","e","choice","left","e","experimental","1078","1266719","0.0-4.0-8.121","true","122","3.150000000000001","","",""
"2287.2999999821186","2","confid","","","html-slider-response","1080","1269510","0.0-4.0-10.121-0.121","","","","Rate your confidence","1",""
"1143.199999988079","i","choice","right","i","experimental","1087","1272442","0.0-4.0-8.122","true","123","3.150000000000001","","",""
"1974.800000011921","3","confid","","","html-slider-response","1089","1274921","0.0-4.0-10.122-0.122","","","","Rate your confidence","1",""
"731.7000000178814","e","choice","left","e","experimental","1096","1277463","0.0-4.0-8.123","true","124","3.0500000000000007","","",""
"1729.9000000059605","5","confid","","","html-slider-response","1098","1279696","0.0-4.0-10.123-0.123","","","","Rate your confidence","1",""
"1115.5999999940395","i","choice","right","i","experimental","1105","1282617","0.0-4.0-8.124","true","125","3.0500000000000007","","",""
"2371.300000011921","6","confid","","","html-slider-response","1107","1285491","0.0-4.0-10.124-0.124","","","","Rate your confidence","1",""
"2445.100000023842","i","choice","left","e","experimental","1114","1289738","0.0-4.0-8.125","false","126","2.9500000000000006","","",""
"2605.5","2","confid","","","html-slider-response","1116","1292846","0.0-4.0-10.125-0.125","","","","Rate your confidence","1",""
"1546.5","i","choice","left","e","experimental","1123","1296183","0.0-4.0-8.126","false","127","3.0500000000000007","","",""
"2385.2999999821186","1","confid","","","html-slider-response","1125","1299073","0.0-4.0-10.126-0.126","","","","Rate your confidence","1",""
"549","i","choice","right","i","experimental","1132","1301409","0.0-4.0-8.127","true","128","3.150000000000001","","",""
"2985.2000000178814","4","confid","","","html-slider-response","1134","1304902","0.0-4.0-10.127-0.127","","","","Rate your confidence","1",""
"942","e","choice","left","e","experimental","1141","1307653","0.0-4.0-8.128","true","129","3.150000000000001","","",""
"2672.5","2","confid","","","html-slider-response","1143","1310829","0.0-4.0-10.128-0.128","","","","Rate your confidence","1",""
"762.0999999940395","i","choice","right","i","experimental","1150","1313403","0.0-4.0-8.129","true","130","3.0500000000000007","","",""
"1663.2999999821186","4","confid","","","html-slider-response","1152","1315570","0.0-4.0-10.129-0.129","","","","Rate your confidence","1",""
"566.5","e","choice","left","e","experimental","1159","1317947","0.0-4.0-8.130","true","131","3.0500000000000007","","",""
"3805","4","confid","","","html-slider-response","1161","1322257","0.0-4.0-10.130-0.130","","","","Rate your confidence","1",""
"850.6999999880791","i","choice","right","i","experimental","1168","1324905","0.0-4.0-8.131","true","132","2.9500000000000006","","",""
"2591.5","3","confid","","","html-slider-response","1170","1328000","0.0-4.0-10.131-0.131","","","","Rate your confidence","1",""
"540.4000000059605","e","choice","right","i","experimental","1177","1330333","0.0-4.0-8.132","false","133","2.9500000000000006","","",""
"1660.5","4","confid","","","html-slider-response","1179","1332497","0.0-4.0-10.132-0.132","","","","Rate your confidence","1",""
"918","i","choice","left","e","experimental","1186","1335212","0.0-4.0-8.133","false","134","3.0500000000000007","","",""
"2476.199999988079","2","confid","","","html-slider-response","1188","1338191","0.0-4.0-10.133-0.133","","","","Rate your confidence","1",""
"953.3999999761581","i","choice","left","e","experimental","1195","1340951","0.0-4.0-8.134","false","135","3.150000000000001","","",""
"3148.0999999940395","4","confid","","","html-slider-response","1197","1344602","0.0-4.0-10.134-0.134","","","","Rate your confidence","1",""
"1171.9000000059605","i","choice","right","i","experimental","1204","1347577","0.0-4.0-8.135","true","136","3.250000000000001","","",""
"2494.4000000059605","1","confid","","","html-slider-response","1206","1350577","0.0-4.0-10.135-0.135","","","","Rate your confidence","1",""
"1010.1999999880791","e","choice","left","e","experimental","1213","1353389","0.0-4.0-8.136","true","137","3.250000000000001","","",""
"3189.600000023842","4","confid","","","html-slider-response","1215","1357081","0.0-4.0-10.136-0.136","","","","Rate your confidence","1",""
"1049.300000011921","e","choice","right","i","experimental","1222","1359920","0.0-4.0-8.137","false","138","3.150000000000001","","",""
"2564.800000011921","2","confid","","","html-slider-response","1224","1363001","0.0-4.0-10.137-0.137","","","","Rate your confidence","1",""
"1735","e","choice","left","e","experimental","1231","1366511","0.0-4.0-8.138","true","139","3.250000000000001","","",""
"1923","2","confid","","","html-slider-response","1233","1368936","0.0-4.0-10.138-0.138","","","","Rate your confidence","1",""
"968.5","e","choice","right","i","experimental","1240","1371696","0.0-4.0-8.139","false","140","3.250000000000001","","",""
"2229.5999999940395","4","confid","","","html-slider-response","1242","1374430","0.0-4.0-10.139-0.139","","","","Rate your confidence","1",""
"887.3000000119209","i","choice","right","i","experimental","1249","1377120","0.0-4.0-8.140","true","141","3.350000000000001","","",""
"1875.0999999940395","4","confid","","","html-slider-response","1251","1379499","0.0-4.0-10.140-0.140","","","","Rate your confidence","1",""
"754.6999999880791","e","choice","left","e","experimental","1258","1382050","0.0-4.0-8.141","true","142","3.350000000000001","","",""
"4013.5","3","confid","","","html-slider-response","1260","1386581","0.0-4.0-10.141-0.141","","","","Rate your confidence","1",""
"807.9000000059605","i","choice","right","i","experimental","1267","1389185","0.0-4.0-8.142","true","143","3.250000000000001","","",""
"3751.300000011921","3","confid","","","html-slider-response","1269","1393440","0.0-4.0-10.142-0.142","","","","Rate your confidence","1",""
"660.5","e","choice","left","e","experimental","1276","1395907","0.0-4.0-8.143","true","144","3.250000000000001","","",""
"2701","5","confid","","","html-slider-response","1278","1399112","0.0-4.0-10.143-0.143","","","","Rate your confidence","1",""
"656.6999999880791","i","choice","left","e","experimental","1285","1401576","0.0-4.0-8.144","false","145","3.150000000000001","","",""
"2805.4000000059605","2","confid","","","html-slider-response","1287","1404885","0.0-4.0-10.144-0.144","","","","Rate your confidence","1",""
"582.0999999940395","i","choice","right","i","experimental","1294","1407267","0.0-4.0-8.145","true","146","3.250000000000001","","",""
"2866.699999988079","2","confid","","","html-slider-response","1296","1410638","0.0-4.0-10.145-0.145","","","","Rate your confidence","1",""
"1227.5999999940395","e","choice","left","e","experimental","1303","1413663","0.0-4.0-8.146","true","147","3.250000000000001","","",""
"2123","1","confid","","","html-slider-response","1305","1416289","0.0-4.0-10.146-0.146","","","","Rate your confidence","1",""
"1608.7999999821186","i","choice","right","i","experimental","1312","1419686","0.0-4.0-8.147","true","148","3.150000000000001","","",""
"2509.5999999940395","1","confid","","","html-slider-response","1314","1422701","0.0-4.0-10.147-0.147","","","","Rate your confidence","1",""
"471.2999999821186","i","choice","right","i","experimental","1321","1424980","0.0-4.0-8.148","true","149","3.150000000000001","","",""
"1965.9000000059605","2","confid","","","html-slider-response","1323","1427450","0.0-4.0-10.148-0.148","","","","Rate your confidence","1",""
"727.5","e","choice","left","e","experimental","1330","1429983","0.0-4.0-8.149","true","150","3.0500000000000007","","",""
"1829.199999988079","3","confid","","","html-slider-response","1332","1432316","0.0-4.0-10.149-0.149","","","","Rate your confidence","1",""
"1238.9000000059605","e","choice","left","e","experimental","1339","1435356","0.0-4.0-8.150","true","151","3.0500000000000007","","",""
"1710.7999999821186","2","confid","","","html-slider-response","1341","1437571","0.0-4.0-10.150-0.150","","","","Rate your confidence","1",""
"737.6000000238419","i","choice","right","i","experimental","1348","1440105","0.0-4.0-8.151","true","152","2.9500000000000006","","",""
"1945.800000011921","4","confid","","","html-slider-response","1350","1442555","0.0-4.0-10.151-0.151","","","","Rate your confidence","1",""
"396.30000001192093","i","choice","right","i","experimental","1358","1446309","0.0-4.0-8.152","true","153","2.9500000000000006","","",""
"5327.300000011921","4","confid","","","html-slider-response","1360","1452139","0.0-4.0-10.152-0.152","","","","Rate your confidence","1",""
"663.7999999821186","e","choice","left","e","experimental","1367","1454596","0.0-4.0-8.153","true","154","2.8500000000000005","","",""
"1936.699999988079","3","confid","","","html-slider-response","1369","1457036","0.0-4.0-10.153-0.153","","","","Rate your confidence","1",""
"1552.199999988079","i","choice","right","i","experimental","1376","1460380","0.0-4.0-8.154","true","155","2.8500000000000005","","",""
"2263","3","confid","","","html-slider-response","1378","1463148","0.0-4.0-10.154-0.154","","","","Rate your confidence","1",""
"3361.699999988079","e","choice","left","e","experimental","1385","1468312","0.0-4.0-8.155","true","156","2.7500000000000004","","",""
"4231.9000000059605","2","confid","","","html-slider-response","1387","1473046","0.0-4.0-10.155-0.155","","","","Rate your confidence","1",""
"1040.800000011921","e","choice","right","i","experimental","1394","1475895","0.0-4.0-8.156","false","157","2.7500000000000004","","",""
"2761","4","confid","","","html-slider-response","1396","1479160","0.0-4.0-10.156-0.156","","","","Rate your confidence","1",""
"1072.4000000059605","e","choice","left","e","experimental","1403","1482027","0.0-4.0-8.157","true","158","2.8500000000000005","","",""
"4776.300000011921","1","confid","","","html-slider-response","1405","1487307","0.0-4.0-10.157-0.157","","","","Rate your confidence","1",""
"1566.7000000178814","i","choice","right","i","experimental","1412","1490667","0.0-4.0-8.158","true","159","2.8500000000000005","","",""
"3041.9000000059605","1","confid","","","html-slider-response","1414","1494212","0.0-4.0-10.158-0.158","","","","Rate your confidence","1",""
"1067.4000000059605","i","choice","left","e","experimental","1421","1497085","0.0-4.0-8.159","false","160","2.7500000000000004","","",""
"3664.5999999940395","1","confid","","","html-slider-response","1423","1501253","0.0-4.0-10.159-0.159","","","","Rate your confidence","1",""
"2429.100000023842","e","choice","right","i","experimental","1430","1505490","0.0-4.0-8.160","false","161","2.8500000000000005","","",""
"2031.8999999761581","1","confid","","","html-slider-response","1432","1508026","0.0-4.0-10.160-0.160","","","","Rate your confidence","1",""
"669.6000000238419","i","choice","left","e","experimental","1439","1510491","0.0-4.0-8.161","false","162","2.9500000000000006","","",""
"2179.5999999940395","2","confid","","","html-slider-response","1441","1513177","0.0-4.0-10.161-0.161","","","","Rate your confidence","1",""
"895.7999999821186","e","choice","left","e","experimental","1448","1515865","0.0-4.0-8.162","true","163","3.0500000000000007","","",""
"1966.7000000178814","3","confid","","","html-slider-response","1450","1518336","0.0-4.0-10.162-0.162","","","","Rate your confidence","1",""
"1937.8999999761581","i","choice","right","i","experimental","1457","1522065","0.0-4.0-8.163","true","164","3.0500000000000007","","",""
"2525.9000000059605","2","confid","","","html-slider-response","1459","1525096","0.0-4.0-10.163-0.163","","","","Rate your confidence","1",""
"2788.4000000059605","e","choice","right","i","experimental","1466","1529680","0.0-4.0-8.164","false","165","2.9500000000000006","","",""
"2245.399999976158","1","confid","","","html-slider-response","1468","1532430","0.0-4.0-10.164-0.164","","","","Rate your confidence","1",""
"759.2999999821186","e","choice","left","e","experimental","1475","1535003","0.0-4.0-8.165","true","166","3.0500000000000007","","",""
"2631.5","3","confid","","","html-slider-response","1477","1538138","0.0-4.0-10.165-0.165","","","","Rate your confidence","1",""
"2189.2000000178814","i","choice","left","e","experimental","1484","1542124","0.0-4.0-8.166","false","167","3.0500000000000007","","",""
"2530","1","confid","","","html-slider-response","1486","1545158","0.0-4.0-10.166-0.166","","","","Rate your confidence","1",""
"691.6000000238419","e","choice","right","i","experimental","1493","1547641","0.0-4.0-8.167","false","168","3.150000000000001","","",""
"1873.8999999761581","3","confid","","","html-slider-response","1495","1550019","0.0-4.0-10.167-0.167","","","","Rate your confidence","1",""
"537.5","i","choice","right","i","experimental","1502","1552355","0.0-4.0-8.168","true","169","3.250000000000001","","",""
"2155.600000023842","3","confid","","","html-slider-response","1504","1555028","0.0-4.0-10.168-0.168","","","","Rate your confidence","1",""
"1089.5999999940395","e","choice","left","e","experimental","1511","1557913","0.0-4.0-8.169","true","170","3.250000000000001","","",""
"2095.199999988079","2","confid","","","html-slider-response","1513","1560512","0.0-4.0-10.169-0.169","","","","Rate your confidence","1",""
"928.0999999940395","i","choice","left","e","experimental","1520","1563247","0.0-4.0-8.170","false","171","3.150000000000001","","",""
"2625","2","confid","","","html-slider-response","1522","1566376","0.0-4.0-10.170-0.170","","","","Rate your confidence","1",""
"971.6999999880791","i","choice","right","i","experimental","1529","1569163","0.0-4.0-8.171","true","172","3.250000000000001","","",""
"2086.800000011921","2","confid","","","html-slider-response","1531","1571754","0.0-4.0-10.171-0.171","","","","Rate your confidence","1",""
"700.3999999761581","i","choice","right","i","experimental","1538","1574255","0.0-4.0-8.172","true","173","3.250000000000001","","",""
"2124.7999999821186","2","confid","","","html-slider-response","1540","1576884","0.0-4.0-10.172-0.172","","","","Rate your confidence","1",""
"544.4000000059605","e","choice","left","e","experimental","1547","1579217","0.0-4.0-8.173","true","174","3.150000000000001","","",""
"3073.5","5","confid","","","html-slider-response","1549","1582796","0.0-4.0-10.173-0.173","","","","Rate your confidence","1",""
"1671.5999999940395","i","choice","right","i","experimental","1556","1586260","0.0-4.0-8.174","true","175","3.150000000000001","","",""
"1934.2999999821186","3","confid","","","html-slider-response","1558","1588699","0.0-4.0-10.174-0.174","","","","Rate your confidence","1",""
"979","e","choice","left","e","experimental","1565","1591482","0.0-4.0-8.175","true","176","3.0500000000000007","","",""
"2232.7000000178814","2","confid","","","html-slider-response","1567","1594219","0.0-4.0-10.175-0.175","","","","Rate your confidence","1",""
"520","i","choice","right","i","experimental","1574","1596533","0.0-4.0-8.176","true","177","3.0500000000000007","","",""
"1595.5","4","confid","","","html-slider-response","1576","1598632","0.0-4.0-10.176-0.176","","","","Rate your confidence","1",""
"603.3999999761581","e","choice","left","e","experimental","1583","1601026","0.0-4.0-8.177","true","178","2.9500000000000006","","",""
"3054.5","3","confid","","","html-slider-response","1585","1604585","0.0-4.0-10.177-0.177","","","","Rate your confidence","1",""
"1339.1000000238419","e","choice","left","e","experimental","1592","1607724","0.0-4.0-8.178","true","179","2.9500000000000006","","",""
"2276.800000011921","1","confid","","","html-slider-response","1594","1610506","0.0-4.0-10.178-0.178","","","","Rate your confidence","1",""
"1079.9000000059605","i","choice","right","i","experimental","1601","1613385","0.0-4.0-8.179","true","180","2.8500000000000005","","",""
"1845.0999999940395","2","confid","","","html-slider-response","1603","1615734","0.0-4.0-10.179-0.179","","","","Rate your confidence","1",""
"1281.4000000059605","e","choice","left","e","experimental","1610","1618827","0.0-4.0-8.180","true","181","2.8500000000000005","","",""
"2546.5","2","confid","","","html-slider-response","1612","1621878","0.0-4.0-10.180-0.180","","","","Rate your confidence","1",""
"448.89999997615814","i","choice","right","i","experimental","1619","1624126","0.0-4.0-8.181","true","182","2.7500000000000004","","",""
"3479.4000000059605","3","confid","","","html-slider-response","1621","1628109","0.0-4.0-10.181-0.181","","","","Rate your confidence","1",""
"540.3000000119209","i","choice","right","i","experimental","1628","1630451","0.0-4.0-8.182","true","183","2.7500000000000004","","",""
"3393.199999988079","3","confid","","","html-slider-response","1630","1634349","0.0-4.0-10.182-0.182","","","","Rate your confidence","1",""
"1652.9000000059605","i","choice","left","e","experimental","1637","1637807","0.0-4.0-8.183","false","184","2.6500000000000004","","",""
"3075.800000011921","1","confid","","","html-slider-response","1639","1641387","0.0-4.0-10.183-0.183","","","","Rate your confidence","1",""
"1198.4000000059605","e","choice","left","e","experimental","1646","1644371","0.0-4.0-8.184","true","185","2.7500000000000004","","",""
"2058.7999999821186","3","confid","","","html-slider-response","1648","1646937","0.0-4.0-10.184-0.184","","","","Rate your confidence","1",""
"768.8000000119209","i","choice","right","i","experimental","1655","1649499","0.0-4.0-8.185","true","186","2.7500000000000004","","",""
"1800.5999999940395","4","confid","","","html-slider-response","1657","1651803","0.0-4.0-10.185-0.185","","","","Rate your confidence","1",""
"942.5","i","choice","left","e","experimental","1664","1654542","0.0-4.0-8.186","false","187","2.6500000000000004","","",""
"2599.199999988079","4","confid","","","html-slider-response","1666","1657648","0.0-4.0-10.186-0.186","","","","Rate your confidence","1",""
"1230.4000000059605","i","choice","right","i","experimental","1673","1660671","0.0-4.0-8.187","true","188","2.7500000000000004","","",""
"1909.800000011921","2","confid","","","html-slider-response","1675","1663097","0.0-4.0-10.187-0.187","","","","Rate your confidence","1",""
"1782.800000011921","e","choice","left","e","experimental","1682","1666684","0.0-4.0-8.188","true","189","2.7500000000000004","","",""
"2735.5","2","confid","","","html-slider-response","1684","1669923","0.0-4.0-10.188-0.188","","","","Rate your confidence","1",""
"594.5","i","choice","right","i","experimental","1691","1672318","0.0-4.0-8.189","true","190","2.6500000000000004","","",""
"3144.5999999940395","2","confid","","","html-slider-response","1693","1675968","0.0-4.0-10.189-0.189","","","","Rate your confidence","1",""
"1370.800000011921","i","choice","left","e","experimental","1700","1679144","0.0-4.0-8.190","false","191","2.6500000000000004","","",""
"2688.600000023842","2","confid","","","html-slider-response","1702","1682339","0.0-4.0-10.190-0.190","","","","Rate your confidence","1",""
"1217.300000011921","e","choice","right","i","experimental","1709","1685348","0.0-4.0-8.191","false","192","2.7500000000000004","","",""
"2466.399999976158","4","confid","","","html-slider-response","1711","1688319","0.0-4.0-10.191-0.191","","","","Rate your confidence","1",""
"626.2000000178814","i","choice","right","i","experimental","1718","1690731","0.0-4.0-8.192","true","193","2.8500000000000005","","",""
"1869.5999999940395","4","confid","","","html-slider-response","1720","1693105","0.0-4.0-10.192-0.192","","","","Rate your confidence","1",""
"1073.2000000178814","i","choice","left","e","experimental","1727","1695980","0.0-4.0-8.193","false","194","2.8500000000000005","","",""
"1807.699999988079","2","confid","","","html-slider-response","1729","1698291","0.0-4.0-10.193-0.193","","","","Rate your confidence","1","62919"
