"rt","response","task","target_side","correct_response","trial_type","trial_index","time_elapsed","internal_node_id","correct","trial_number","n_dots","stimulus","slider_start","participant"
"811.2999999523163","e","choice","left","e","practice","10","73880","0.0-4.0-8.0","true","1","4.25","","",""
"1151.2000000476837","e","choice","right","i","practice","18","77318","0.0-4.0-8.1","false","2","4.25","","",""
"1153.8999999761581","e","choice","left","e","practice","26","80755","0.0-4.0-8.2","true","3","4.65","","",""
"337.7999999523163","i","choice","right","i","practice","34","83371","0.0-4.0-8.3","true","4","4.65","","",""
"708.3999999761581","i","choice","right","i","practice","42","86364","0.0-4.0-8.4","true","5","4.25","","",""
"350.89999997615814","e","choice","left","e","practice","50","89001","0.0-4.0-8.5","true","6","4.25","","",""
"468","i","choice","right","i","practice","58","91751","0.0-4.0-8.6","true","7","4.05","","",""
"392.60000002384186","e","choice","left","e","practice","66","94423","0.0-4.0-8.7","true","8","4.05","","",""
"429.60000002384186","i","choice","right","i","practice","74","97140","0.0-4.0-8.8","true","9","3.8499999999999996","","",""
"384.39999997615814","e","choice","left","e","practice","82","99802","0.0-4.0-8.9","true","10","3.8499999999999996","","",""
"429.59999990463257","i","choice","right","i","practice","90","102520","0.0-4.0-8.10","true","11","3.6499999999999995","","",""
"451.7999999523163","e","choice","left","e","practice","98","105250","0.0-4.0-8.11","true","12","3.6499999999999995","","",""
"415.60000002384186","e","choice","left","e","practice","106","107950","0.0-4.0-8.12","true","13","3.5499999999999994","","",""
"490.60000002384186","i","choice","right","i","practice","114","110727","0.0-4.0-8.13","true","14","3.5499999999999994","","",""
"498.60000002384186","e","choice","left","e","practice","122","113504","0.0-4.0-8.14","true","15","3.4499999999999993","","",""
"494.8000000715256","i","choice","right","i","practice","130","116285","0.0-4.0-8.15","true","16","3.4499999999999993","","",""
"488.6999999284744","e","choice","left","e","practice","138","119059","0.0-4.0-8.16","true","17","3.349999999999999","","",""
"312.39999997615814","i","choice","right","i","practice","146","121652","0.0-4.0-8.17","true","18","3.349999999999999","","",""
"321.10000002384186","e","choice","left","e","practice","154","124249","0.0-4.0-8.18","true","19","3.249999999999999","","",""
"376.89999997615814","e","choice","right","i","practice","162","126906","0.0-4.0-8.19","false","20","3.249999999999999","","",""
"565.6000000238419","i","choice","right","i","practice","170","129749","0.0-4.0-8.20","true","21","3.349999999999999","","",""
"315.60000002384186","e","choice","left","e","practice","178","132353","0.0-4.0-8.21","true","22","3.349999999999999","","",""
"274.1999999284744","e","choice","left","e","practice","186","134902","0.0-4.0-8.22","true","23","3.249999999999999","","",""
"649.5","e","choice","right","i","practice","194","137830","0.0-4.0-8.23","false","24","3.249999999999999","","",""
"494.8000000715256","i","choice","right","i","practice","202","140614","0.0-4.0-8.24","true","25","3.349999999999999","","",""
"310.10000002384186","e","choice","left","e","practice","210","143201","0.0-4.0-8.25","true","26","3.349999999999999","","",""
"438","i","choice","right","i","experimental","221","168649","0.0-4.0-8.26","true","27","3.249999999999999","","",""
"6085.5","4","confid","","","html-slider-response","223","175238","0.0-4.0-10.26-0.26","","","","Rate your confidence","1",""
"409.59999990463257","e","choice","left","e","experimental","230","177436","0.0-4.0-8.27","true","28","3.249999999999999","","",""
"2889.2000000476837","3","confid","","","html-slider-response","232","180830","0.0-4.0-10.27-0.27","","","","Rate your confidence","1",""
"533.6000000238419","e","choice","left","e","experimental","239","183139","0.0-4.0-8.28","true","29","3.149999999999999","","",""
"4636.300000071526","4","confid","","","html-slider-response","241","188278","0.0-4.0-10.28-0.28","","","","Rate your confidence","1",""
"678.2999999523163","i","choice","right","i","experimental","248","190733","0.0-4.0-8.29","true","30","3.149999999999999","","",""
"11585.800000071526","3","confid","","","html-slider-response","250","202822","0.0-4.0-10.29-0.29","","","","Rate your confidence","1",""
"1184.1000000238419","i","choice","right","i","experimental","257","205780","0.0-4.0-8.30","true","31","3.049999999999999","","",""
"2659.600000023842","2","confid","","","html-slider-response","259","208942","0.0-4.0-10.30-0.30","","","","Rate your confidence","1",""
"481.60000002384186","e","choice","left","e","experimental","266","211206","0.0-4.0-8.31","true","32","3.049999999999999","","",""
"2680.100000023842","2","confid","","","html-slider-response","268","214390","0.0-4.0-10.31-0.31","","","","Rate your confidence","1",""
"399.8000000715256","i","choice","left","e","experimental","275","216560","0.0-4.0-8.32","false","33","2.949999999999999","","",""
"2397.5","4","confid","","","html-slider-response","277","219462","0.0-4.0-10.32-0.32","","","","Rate your confidence","1",""
"719.8000000715256","i","choice","right","i","experimental","284","221967","0.0-4.0-8.33","true","34","3.049999999999999","","",""
"2222.7999999523163","3","confid","","","html-slider-response","286","224693","0.0-4.0-10.33-0.33","","","","Rate your confidence","1",""
"550.8000000715256","e","choice","right","i","experimental","293","227019","0.0-4.0-8.34","false","35","3.049999999999999","","",""
"2275.399999976158","4","confid","","","html-slider-response","295","229797","0.0-4.0-10.34-0.34","","","","Rate your confidence","1",""
"423.60000002384186","e","choice","left","e","experimental","302","231990","0.0-4.0-8.35","true","36","3.149999999999999","","",""
"2007.8000000715256","5","confid","","","html-slider-response","304","234501","0.0-4.0-10.35-0.35","","","","Rate your confidence","1",""
"409.7000000476837","i","choice","right","i","experimental","311","236685","0.0-4.0-8.36","true","37","3.149999999999999","","",""
"2641.899999976158","4","confid","","","html-slider-response","313","239830","0.0-4.0-10.36-0.36","","","","Rate your confidence","1",""
"399.2999999523163","e","choice","left","e","experimental","320","242010","0.0-4.0-8.37","true","38","3.049999999999999","","",""
"2252.7999999523163","4","confid","","","html-slider-response","322","244766","0.0-4.0-10.37-0.37","","","","Rate your confidence","1",""
"285.7000000476837","i","choice","right","i","experimental","329","246831","0.0-4.0-8.38","true","39","3.049999999999999","","",""
"2806.399999976158","5","confid","","","html-slider-response","331","250141","0.0-4.0-10.38-0.38","","","","Rate your confidence","1",""
"301.1999999284744","e","choice","left","e","experimental","338","252222","0.0-4.0-8.39","true","40","2.949999999999999","","",""
"4271.799999952316","3","confid","","","html-slider-response","340","256997","0.0-4.0-10.39-0.39","","","","Rate your confidence","1",""
"270.39999997615814","e","choice","left","e","experimental","347","259041","0.0-4.0-8.40","true","41","2.949999999999999","","",""
"2524","4","confid","","","html-slider-response","349","262069","0.0-4.0-10.40-0.40","","","","Rate your confidence","1",""
"425.10000002384186","e","choice","right","i","experimental","356","264266","0.0-4.0-8.41","false","42","2.8499999999999988","","",""
"2636.7000000476837","3","confid","","","html-slider-response","358","267405","0.0-4.0-10.41-0.41","","","","Rate your confidence","1",""
"916.6999999284744","i","choice","left","e","experimental","365","270097","0.0-4.0-8.42","false","43","2.949999999999999","","",""
"2781.5","1","confid","","","html-slider-response","367","273381","0.0-4.0-10.42-0.42","","","","Rate your confidence","1",""
"518.1000000238419","i","choice","right","i","experimental","374","275680","0.0-4.0-8.43","true","44","3.049999999999999","","",""
"3702.8000000715256","4","confid","","","html-slider-response","376","279885","0.0-4.0-10.43-0.43","","","","Rate your confidence","1",""
"111.5","e","choice","left","e","experimental","383","281766","0.0-4.0-8.44","true","45","3.049999999999999","","",""
"2289.399999976158","6","confid","","","html-slider-response","385","284557","0.0-4.0-10.44-0.44","","","","Rate your confidence","1",""
"897.6000000238419","i","choice","right","i","experimental","392","287233","0.0-4.0-8.45","true","46","2.949999999999999","","",""
"1883.3999999761581","2","confid","","","html-slider-response","394","289621","0.0-4.0-10.45-0.45","","","","Rate your confidence","1",""
"817.5","e","choice","right","i","experimental","401","292210","0.0-4.0-8.46","false","47","2.949999999999999","","",""
"3155.7999999523163","4","confid","","","html-slider-response","403","295870","0.0-4.0-10.46-0.46","","","","Rate your confidence","1",""
"388.2000000476837","e","choice","left","e","experimental","410","298035","0.0-4.0-8.47","true","48","3.049999999999999","","",""
"2763.399999976158","4","confid","","","html-slider-response","412","301301","0.0-4.0-10.47-0.47","","","","Rate your confidence","1",""
"504.39999997615814","i","choice","right","i","experimental","419","303579","0.0-4.0-8.48","true","49","3.049999999999999","","",""
"3914.5","5","confid","","","html-slider-response","421","307997","0.0-4.0-10.48-0.48","","","","Rate your confidence","1",""
"158.20000004768372","e","choice","left","e","experimental","428","309942","0.0-4.0-8.49","true","50","2.949999999999999","","",""
"3759.3000000715256","5","confid","","","html-slider-response","430","314205","0.0-4.0-10.49-0.49","","","","Rate your confidence","1",""
"440","i","choice","right","i","experimental","437","316426","0.0-4.0-8.50","true","51","2.949999999999999","","",""
"3068.399999976158","4","confid","","","html-slider-response","439","319997","0.0-4.0-10.50-0.50","","","","Rate your confidence","1",""
"316.40000009536743","e","choice","left","e","experimental","446","322088","0.0-4.0-8.51","true","52","2.8499999999999988","","",""
"2077.5","3","confid","","","html-slider-response","448","324669","0.0-4.0-10.51-0.51","","","","Rate your confidence","1",""
"396.3000000715256","e","choice","left","e","experimental","455","326839","0.0-4.0-8.52","true","53","2.8499999999999988","","",""
"2712.600000023842","5","confid","","","html-slider-response","457","330053","0.0-4.0-10.52-0.52","","","","Rate your confidence","1",""
"516.8999999761581","i","choice","right","i","experimental","464","332353","0.0-4.0-8.53","true","54","2.7499999999999987","","",""
"3885.7999999523163","5","confid","","","html-slider-response","466","336741","0.0-4.0-10.53-0.53","","","","Rate your confidence","1",""
"348","e","choice","left","e","experimental","473","338872","0.0-4.0-8.54","true","55","2.7499999999999987","","",""
"2591.399999976158","3","confid","","","html-slider-response","475","341965","0.0-4.0-10.54-0.54","","","","Rate your confidence","1",""
"423.6999999284744","i","choice","right","i","experimental","482","344163","0.0-4.0-8.55","true","56","2.6499999999999986","","",""
"2051.7000000476837","5","confid","","","html-slider-response","484","346717","0.0-4.0-10.55-0.55","","","","Rate your confidence","1",""
"513.1999999284744","i","choice","right","i","experimental","491","349007","0.0-4.0-8.56","true","57","2.6499999999999986","","",""
"2766.899999976158","5","confid","","","html-slider-response","493","352277","0.0-4.0-10.56-0.56","","","","Rate your confidence","1",""
"453.40000009536743","e","choice","left","e","experimental","500","354511","0.0-4.0-8.57","true","58","2.5499999999999985","","",""
"2406.399999976158","3","confid","","","html-slider-response","502","357421","0.0-4.0-10.57-0.57","","","","Rate your confidence","1",""
"1951.3999999761581","i","choice","right","i","experimental","509","361149","0.0-4.0-8.58","true","59","2.5499999999999985","","",""
"3305.2000000476837","1","confid","","","html-slider-response","511","364957","0.0-4.0-10.58-0.58","","","","Rate your confidence","1",""
"302","e","choice","left","e","experimental","518","367031","0.0-4.0-8.59","true","60","2.4499999999999984","","",""
"1902.8999999761581","2","confid","","","html-slider-response","520","369437","0.0-4.0-10.59-0.59","","","","Rate your confidence","1",""
"382.2000000476837","i","choice","right","i","experimental","527","371598","0.0-4.0-8.60","true","61","2.4499999999999984","","",""
"1703.3000000715256","3","confid","","","html-slider-response","529","373805","0.0-4.0-10.60-0.60","","","","Rate your confidence","1",""
"308.6999999284744","e","choice","left","e","experimental","536","375887","0.0-4.0-8.61","true","62","2.3499999999999983","","",""
"1845.3999999761581","2","confid","","","html-slider-response","538","378246","0.0-4.0-10.61-0.61","","","","Rate your confidence","1",""
"885.2000000476837","i","choice","left","e","experimental","545","380900","0.0-4.0-8.62","false","63","2.3499999999999983","","",""
"3073.899999976158","1","confid","","","html-slider-response","547","384477","0.0-4.0-10.62-0.62","","","","Rate your confidence","1",""
"302.6999999284744","i","choice","right","i","experimental","554","386549","0.0-4.0-8.63","true","64","2.4499999999999984","","",""
"1562","6","confid","","","html-slider-response","556","388614","0.0-4.0-10.63-0.63","","","","Rate your confidence","1",""
"430.39999997615814","i","choice","right","i","experimental","563","390819","0.0-4.0-8.64","true","65","2.4499999999999984","","",""
"1875.5","4","confid","","","html-slider-response","565","393197","0.0-4.0-10.64-0.64","","","","Rate your confidence","1",""
"855.2999999523163","i","choice","left","e","experimental","572","395831","0.0-4.0-8.65","false","66","2.3499999999999983","","",""
"2911.2000000476837","4","confid","","","html-slider-response","574","399245","0.0-4.0-10.65-0.65","","","","Rate your confidence","1",""
"181.5","e","choice","left","e","experimental","581","401197","0.0-4.0-8.66","true","67","2.4499999999999984","","",""
"1897.6000000238419","6","confid","","","html-slider-response","583","403597","0.0-4.0-10.66-0.66","","","","Rate your confidence","1",""
"409.6999999284744","i","choice","right","i","experimental","590","405779","0.0-4.0-8.67","true","68","2.4499999999999984","","",""
"2713.600000023842","5","confid","","","html-slider-response","592","408997","0.0-4.0-10.67-0.67","","","","Rate your confidence","1",""
"257.39999997615814","e","choice","left","e","experimental","600","516864","0.0-4.0-8.68","true","69","2.3499999999999983","","",""
"1876.8999999761581","2","confid","","","html-slider-response","602","519245","0.0-4.0-10.68-0.68","","","","Rate your confidence","1",""
"431.5","e","choice","right","i","experimental","609","521449","0.0-4.0-8.69","false","70","2.3499999999999983","","",""
"1965.7999999523163","3","confid","","","html-slider-response","611","523918","0.0-4.0-10.69-0.69","","","","Rate your confidence","1",""
"344.7000000476837","e","choice","left","e","experimental","618","526039","0.0-4.0-8.70","true","71","2.4499999999999984","","",""
"2262.9000000953674","1","confid","","","html-slider-response","620","528805","0.0-4.0-10.70-0.70","","","","Rate your confidence","1",""
"325.39999997615814","i","choice","right","i","experimental","627","530907","0.0-4.0-8.71","true","72","2.4499999999999984","","",""
"2683.6999999284744","2","confid","","","html-slider-response","629","534094","0.0-4.0-10.71-0.71","","","","Rate your confidence","1",""
"262.10000002384186","i","choice","right","i","experimental","636","536139","0.0-4.0-8.72","true","73","2.3499999999999983","","",""
"1851.7000000476837","4","confid","","","html-slider-response","638","538493","0.0-4.0-10.72-0.72","","","","Rate your confidence","1",""
"854.8999999761581","e","choice","left","e","experimental","645","541135","0.0-4.0-8.73","true","74","2.3499999999999983","","",""
"2365.2999999523163","3","confid","","","html-slider-response","647","544005","0.0-4.0-10.73-0.73","","","","Rate your confidence","1",""
"395","i","choice","right","i","experimental","654","546177","0.0-4.0-8.74","true","75","2.2499999999999982","","",""
"1365.2000000476837","4","confid","","","html-slider-response","656","548045","0.0-4.0-10.74-0.74","","","","Rate your confidence","1",""
"514.1000000238419","e","choice","left","e","experimental","663","550336","0.0-4.0-8.75","true","76","2.2499999999999982","","",""
"2950.899999976158","5","confid","","","html-slider-response","665","553789","0.0-4.0-10.75-0.75","","","","Rate your confidence","1",""
"409.1999999284744","e","choice","right","i","experimental","672","555980","0.0-4.0-8.76","false","77","2.149999999999998","","",""
"2466.2999999523163","2","confid","","","html-slider-response","674","558949","0.0-4.0-10.76-0.76","","","","Rate your confidence","1",""
"287","i","choice","left","e","experimental","681","561011","0.0-4.0-8.77","false","78","2.2499999999999982","","",""
"2979.899999976158","3","confid","","","html-slider-response","683","564494","0.0-4.0-10.77-0.77","","","","Rate your confidence","1",""
"331.10000002384186","e","choice","right","i","experimental","690","566598","0.0-4.0-8.78","false","79","2.3499999999999983","","",""
"1937.7000000476837","4","confid","","","html-slider-response","692","569038","0.0-4.0-10.78-0.78","","","","Rate your confidence","1",""
"350.89999997615814","i","choice","left","e","experimental","699","571167","0.0-4.0-8.79","false","80","2.4499999999999984","","",""
"2599.5","2","confid","","","html-slider-response","701","574269","0.0-4.0-10.79-0.79","","","","Rate your confidence","1",""
"256.5","i","choice","right","i","experimental","708","576301","0.0-4.0-8.80","true","81","2.5499999999999985","","",""
"1897.5","1","confid","","","html-slider-response","710","578701","0.0-4.0-10.80-0.80","","","","Rate your confidence","1",""
"295.3000000715256","e","choice","left","e","experimental","717","580768","0.0-4.0-8.81","true","82","2.5499999999999985","","",""
"1973.3999999761581","2","confid","","","html-slider-response","719","583245","0.0-4.0-10.81-0.81","","","","Rate your confidence","1",""
"918.2000000476837","e","choice","right","i","experimental","726","585937","0.0-4.0-8.82","false","83","2.4499999999999984","","",""
"2708.1999999284744","3","confid","","","html-slider-response","728","589149","0.0-4.0-10.82-0.82","","","","Rate your confidence","1",""
"283.1999999284744","e","choice","left","e","experimental","735","591216","0.0-4.0-8.83","true","84","2.5499999999999985","","",""
"1389.5","2","confid","","","html-slider-response","737","593109","0.0-4.0-10.83-0.83","","","","Rate your confidence","1",""
"493.2000000476837","e","choice","right","i","experimental","744","595372","0.0-4.0-8.84","false","85","2.5499999999999985","","",""
"1017.5999999046326","5","confid","","","html-slider-response","746","596893","0.0-4.0-10.84-0.84","","","","Rate your confidence","1",""
"236.5","i","choice","left","e","experimental","753","598904","0.0-4.0-8.85","false","86","2.6499999999999986","","",""
"3501.5","4","confid","","","html-slider-response","755","602909","0.0-4.0-10.85-0.85","","","","Rate your confidence","1",""
"266.10000002384186","e","choice","left","e","experimental","762","604945","0.0-4.0-8.86","true","87","2.7499999999999987","","",""
"2269.600000023842","3","confid","","","html-slider-response","764","607717","0.0-4.0-10.86-0.86","","","","Rate your confidence","1",""
"212.79999995231628","e","choice","right","i","experimental","771","609704","0.0-4.0-8.87","false","88","2.7499999999999987","","",""
"2214.2000000476837","2","confid","","","html-slider-response","773","612421","0.0-4.0-10.87-0.87","","","","Rate your confidence","1",""
"1067.2000000476837","e","choice","left","e","experimental","780","615261","0.0-4.0-8.88","true","89","2.8499999999999988","","",""
"1889.6999999284744","2","confid","","","html-slider-response","782","617653","0.0-4.0-10.88-0.88","","","","Rate your confidence","1",""
"277.7999999523163","e","choice","right","i","experimental","789","619712","0.0-4.0-8.89","false","90","2.8499999999999988","","",""
"1526.7999999523163","4","confid","","","html-slider-response","791","621742","0.0-4.0-10.89-0.89","","","","Rate your confidence","1",""
"411.7999999523163","i","choice","left","e","experimental","798","623938","0.0-4.0-8.90","false","91","2.949999999999999","","",""
"1540.1999999284744","2","confid","","","html-slider-response","800","625981","0.0-4.0-10.90-0.90","","","","Rate your confidence","1",""
"298.3000000715256","i","choice","right","i","experimental","807","628056","0.0-4.0-8.91","true","92","3.049999999999999","","",""
"1893.6999999284744","3","confid","","","html-slider-response","809","630453","0.0-4.0-10.91-0.91","","","","Rate your confidence","1",""
"311.3000000715256","i","choice","right","i","experimental","816","632535","0.0-4.0-8.92","true","93","3.049999999999999","","",""
"1351","4","confid","","","html-slider-response","818","634389","0.0-4.0-10.92-0.92","","","","Rate your confidence","1",""
"264.60000002384186","e","choice","left","e","experimental","825","636424","0.0-4.0-8.93","true","94","2.949999999999999","","",""
"1709.5999999046326","3","confid","","","html-slider-response","827","638637","0.0-4.0-10.93-0.93","","","","Rate your confidence","1",""
"267.60000002384186","e","choice","left","e","experimental","834","640680","0.0-4.0-8.94","true","95","2.949999999999999","","",""
"2732.600000023842","2","confid","","","html-slider-response","836","643917","0.0-4.0-10.94-0.94","","","","Rate your confidence","1",""
"265.5","i","choice","right","i","experimental","843","645960","0.0-4.0-8.95","true","96","2.8499999999999988","","",""
"1046.8999999761581","5","confid","","","html-slider-response","845","647510","0.0-4.0-10.95-0.95","","","","Rate your confidence","1",""
"246.60000002384186","i","choice","right","i","experimental","852","649527","0.0-4.0-8.96","true","97","2.8499999999999988","","",""
"2519.5","5","confid","","","html-slider-response","854","652549","0.0-4.0-10.96-0.96","","","","Rate your confidence","1",""
"262.60000002384186","e","choice","left","e","experimental","861","654583","0.0-4.0-8.97","true","98","2.7499999999999987","","",""
"2487.5999999046326","4","confid","","","html-slider-response","863","657573","0.0-4.0-10.97-0.97","","","","Rate your confidence","1",""
"355.5","i","choice","left","e","experimental","870","659706","0.0-4.0-8.98","false","99","2.7499999999999987","","",""
"1716.3000000715256","1","confid","","","html-slider-response","872","661925","0.0-4.0-10.98-0.98","","","","Rate your confidence","1",""
"202.20000004768372","i","choice","right","i","experimental","879","663903","0.0-4.0-8.99","true","100","2.8499999999999988","","",""
"1463.3999999761581","2","confid","","","html-slider-response","881","665869","0.0-4.0-10.99-0.99","","","","Rate your confidence","1",""
"60.5","e","choice","left","e","experimental","888","667709","0.0-4.0-8.100","true","101","2.8499999999999988","","",""
"1864.7999999523163","4","confid","","","html-slider-response","890","670077","0.0-4.0-10.100-0.100","","","","Rate your confidence","1",""
"169.89999997615814","i","choice","right","i","experimental","897","672029","0.0-4.0-8.101","true","102","2.7499999999999987","","",""
"1297.5","4","confid","","","html-slider-response","899","673829","0.0-4.0-10.101-0.101","","","","Rate your confidence","1",""
"145.60000002384186","e","choice","right","i","experimental","906","675749","0.0-4.0-8.102","false","103","2.7499999999999987","","",""
"2137.5999999046326","3","confid","","","html-slider-response","908","678389","0.0-4.0-10.102-0.102","","","","Rate your confidence","1",""
"109.79999995231628","e","choice","left","e","experimental","915","680271","0.0-4.0-8.103","true","104","2.8499999999999988","","",""
"1270.3999999761581","4","confid","","","html-slider-response","917","682045","0.0-4.0-10.103-0.103","","","","Rate your confidence","1",""
"350.2999999523163","e","choice","left","e","experimental","924","684183","0.0-4.0-8.104","true","105","2.8499999999999988","","",""
"1174.7999999523163","2","confid","","","html-slider-response","926","685861","0.0-4.0-10.104-0.104","","","","Rate your confidence","1",""
"77.60000002384186","e","choice","right","i","experimental","933","687722","0.0-4.0-8.105","false","106","2.7499999999999987","","",""
"2883.5","3","confid","","","html-slider-response","935","691109","0.0-4.0-10.105-0.105","","","","Rate your confidence","1",""
"357","i","choice","right","i","experimental","942","693253","0.0-4.0-8.106","true","107","2.8499999999999988","","",""
"1784.6000000238419","3","confid","","","html-slider-response","944","695541","0.0-4.0-10.106-0.106","","","","Rate your confidence","1",""
"391.3000000715256","e","choice","left","e","experimental","951","697707","0.0-4.0-8.107","true","108","2.8499999999999988","","",""
"1857.4000000953674","2","confid","","","html-slider-response","953","700069","0.0-4.0-10.107-0.107","","","","Rate your confidence","1",""
"325.6999999284744","e","choice","left","e","experimental","960","702166","0.0-4.0-8.108","true","109","2.7499999999999987","","",""
"1311.2000000476837","4","confid","","","html-slider-response","962","703981","0.0-4.0-10.108-0.108","","","","Rate your confidence","1",""
"262.40000009536743","i","choice","right","i","experimental","969","706029","0.0-4.0-8.109","true","110","2.7499999999999987","","",""
"1873","5","confid","","","html-slider-response","971","708405","0.0-4.0-10.109-0.109","","","","Rate your confidence","1",""
"267.2999999523163","i","choice","left","e","experimental","979","716391","0.0-4.0-8.110","false","111","2.6499999999999986","","",""
"1509.5999999046326","2","confid","","","html-slider-response","981","718405","0.0-4.0-10.110-0.110","","","","Rate your confidence","1",""
"301.39999997615814","i","choice","right","i","experimental","988","720482","0.0-4.0-8.111","true","112","2.7499999999999987","","",""
"4707.599999904633","3","confid","","","html-slider-response","990","725693","0.0-4.0-10.111-0.111","","","","Rate your confidence","1",""
"11.199999928474426","e","choice","left","e","experimental","997","727473","0.0-4.0-8.112","true","113","2.7499999999999987","","",""
"1908.4000000953674","5","confid","","","html-slider-response","999","729885","0.0-4.0-10.112-0.112","","","","Rate your confidence","1",""
"392","i","choice","right","i","experimental","1006","732052","0.0-4.0-8.113","true","114","2.6499999999999986","","",""
"2097.399999976158","5","confid","","","html-slider-response","1008","734653","0.0-4.0-10.113-0.113","","","","Rate your confidence","1",""
"275.5","e","choice","left","e","experimental","1015","736701","0.0-4.0-8.114","true","115","2.6499999999999986","","",""
"1961","3","confid","","","html-slider-response","1017","739165","0.0-4.0-10.114-0.114","","","","Rate your confidence","1",""
"407","e","choice","right","i","experimental","1024","741350","0.0-4.0-8.115","false","116","2.5499999999999985","","",""
"1584.5999999046326","5","confid","","","html-slider-response","1026","743437","0.0-4.0-10.115-0.115","","","","Rate your confidence","1",""
"600","e","choice","left","e","experimental","1033","745816","0.0-4.0-8.116","true","117","2.6499999999999986","","",""
"1669.7999999523163","6","confid","","","html-slider-response","1035","747989","0.0-4.0-10.116-0.116","","","","Rate your confidence","1",""
"629.6000000238419","i","choice","right","i","experimental","1042","750391","0.0-4.0-8.117","true","118","2.6499999999999986","","",""
"1862.3999999761581","4","confid","","","html-slider-response","1044","752757","0.0-4.0-10.117-0.117","","","","Rate your confidence","1",""
"344.8000000715256","i","choice","right","i","experimental","1051","754871","0.0-4.0-8.118","true","119","2.5499999999999985","","",""
"1479.3999999761581","3","confid","","","html-slider-response","1053","756853","0.0-4.0-10.118-0.118","","","","Rate your confidence","1",""
"556","e","choice","left","e","experimental","1060","759181","0.0-4.0-8.119","true","120","2.5499999999999985","","",""
"2743.2999999523163","5","confid","","","html-slider-response","1062","762428","0.0-4.0-10.119-0.119","","","","Rate your confidence","1",""
"272.2000000476837","e","choice","left","e","experimental","1069","764471","0.0-4.0-8.120","true","121","2.4499999999999984","","",""
"2190.5","2","confid","","","html-slider-response","1071","767165","0.0-4.0-10.120-0.120","","","","Rate your confidence","1",""
"326.10000002384186","i","choice","right","i","experimental","1078","769265","0.0-4.0-8.121","true","122","2.4499999999999984","","",""
"1563.6000000238419","4","confid","","","html-slider-response","1080","771333","0.0-4.0-10.121-0.121","","","","Rate your confidence","1",""
"292.2999999523163","e","choice","right","i","experimental","1087","773401","0.0-4.0-8.122","false","123","2.3499999999999983","","",""
"1772.8999999761581","3","confid","","","html-slider-response","1089","775676","0.0-4.0-10.122-0.122","","","","Rate your confidence","1",""
"264.5","e","choice","left","e","experimental","1096","777717","0.0-4.0-8.123","true","124","2.4499999999999984","","",""
"2615.600000023842","5","confid","","","html-slider-response","1098","780837","0.0-4.0-10.123-0.123","","","","Rate your confidence","1",""
"358.1999999284744","e","choice","left","e","experimental","1105","782964","0.0-4.0-8.124","true","125","2.4499999999999984","","",""
"1921.6000000238419","5","confid","","","html-slider-response","1107","785389","0.0-4.0-10.124-0.124","","","","Rate your confidence","1",""
"242.70000004768372","i","choice","right","i","experimental","1114","787412","0.0-4.0-8.125","true","126","2.3499999999999983","","",""
"2546.600000023842","6","confid","","","html-slider-response","1116","790461","0.0-4.0-10.125-0.125","","","","Rate your confidence","1",""
"372.09999990463257","e","choice","right","i","experimental","1123","792605","0.0-4.0-8.126","false","127","2.3499999999999983","","",""
"1895.0999999046326","3","confid","","","html-slider-response","1125","795004","0.0-4.0-10.126-0.126","","","","Rate your confidence","1",""
"362","e","choice","left","e","experimental","1132","797143","0.0-4.0-8.127","true","128","2.4499999999999984","","",""
"2437.899999976158","4","confid","","","html-slider-response","1134","800085","0.0-4.0-10.127-0.127","","","","Rate your confidence","1",""
"237.60000002384186","e","choice","left","e","experimental","1141","802100","0.0-4.0-8.128","true","129","2.4499999999999984","","",""
"1889.2999999523163","2","confid","","","html-slider-response","1143","804493","0.0-4.0-10.128-0.128","","","","Rate your confidence","1",""
"255.60000002384186","e","choice","right","i","experimental","1150","806527","0.0-4.0-8.129","false","130","2.3499999999999983","","",""
"1710.2999999523163","2","confid","","","html-slider-response","1152","808740","0.0-4.0-10.129-0.129","","","","Rate your confidence","1",""
"313.39999997615814","i","choice","right","i","experimental","1159","810829","0.0-4.0-8.130","true","131","2.4499999999999984","","",""
"1418","3","confid","","","html-slider-response","1161","812749","0.0-4.0-10.130-0.130","","","","Rate your confidence","1",""
"282.7000000476837","e","choice","left","e","experimental","1168","814806","0.0-4.0-8.131","true","132","2.4499999999999984","","",""
"2199.7999999523163","3","confid","","","html-slider-response","1170","817509","0.0-4.0-10.131-0.131","","","","Rate your confidence","1",""
"498","i","choice","left","e","experimental","1177","819777","0.0-4.0-8.132","false","133","2.3499999999999983","","",""
"2666.8000000715256","3","confid","","","html-slider-response","1179","822949","0.0-4.0-10.132-0.132","","","","Rate your confidence","1",""
"229.79999995231628","i","choice","right","i","experimental","1186","824955","0.0-4.0-8.133","true","134","2.4499999999999984","","",""
"1315.6000000238419","5","confid","","","html-slider-response","1188","826773","0.0-4.0-10.133-0.133","","","","Rate your confidence","1",""
"249.30000007152557","e","choice","left","e","experimental","1195","828794","0.0-4.0-8.134","true","135","2.4499999999999984","","",""
"1908","6","confid","","","html-slider-response","1197","831205","0.0-4.0-10.134-0.134","","","","Rate your confidence","1",""
"258.3000000715256","i","choice","right","i","experimental","1204","833238","0.0-4.0-8.135","true","136","2.3499999999999983","","",""
"1560.3000000715256","5","confid","","","html-slider-response","1206","835301","0.0-4.0-10.135-0.135","","","","Rate your confidence","1",""
"208","e","choice","right","i","experimental","1213","837283","0.0-4.0-8.136","false","137","2.3499999999999983","","",""
"1603.2999999523163","2","confid","","","html-slider-response","1215","839389","0.0-4.0-10.136-0.136","","","","Rate your confidence","1",""
"433.10000002384186","i","choice","left","e","experimental","1222","841592","0.0-4.0-8.137","false","138","2.4499999999999984","","",""
"2413.2999999523163","1","confid","","","html-slider-response","1224","844509","0.0-4.0-10.137-0.137","","","","Rate your confidence","1",""
"433.39999997615814","i","choice","right","i","experimental","1231","846717","0.0-4.0-8.138","true","139","2.5499999999999985","","",""
"1784.2999999523163","2","confid","","","html-slider-response","1233","849013","0.0-4.0-10.138-0.138","","","","Rate your confidence","1",""
"223.10000002384186","e","choice","left","e","experimental","1240","851011","0.0-4.0-8.139","true","140","2.5499999999999985","","",""
"2473","2","confid","","","html-slider-response","1242","853989","0.0-4.0-10.139-0.139","","","","Rate your confidence","1",""
"260.6999999284744","e","choice","left","e","experimental","1249","856023","0.0-4.0-8.140","true","141","2.4499999999999984","","",""
"1871","2","confid","","","html-slider-response","1251","858397","0.0-4.0-10.140-0.140","","","","Rate your confidence","1",""
"266.10000002384186","i","choice","right","i","experimental","1258","860436","0.0-4.0-8.141","true","142","2.4499999999999984","","",""
"4002.2999999523163","1","confid","","","html-slider-response","1260","864941","0.0-4.0-10.141-0.141","","","","Rate your confidence","1",""
"242.79999995231628","e","choice","left","e","experimental","1267","866966","0.0-4.0-8.142","true","143","2.3499999999999983","","",""
"3191.6999999284744","4","confid","","","html-slider-response","1269","870661","0.0-4.0-10.142-0.142","","","","Rate your confidence","1",""
"277.60000002384186","e","choice","right","i","experimental","1276","872721","0.0-4.0-8.143","false","144","2.3499999999999983","","",""
"2932.5","3","confid","","","html-slider-response","1278","876157","0.0-4.0-10.143-0.143","","","","Rate your confidence","1",""
"203.20000004768372","i","choice","right","i","experimental","1285","878137","0.0-4.0-8.144","true","145","2.4499999999999984","","",""
"1661.3999999761581","5","confid","","","html-slider-response","1287","880300","0.0-4.0-10.144-0.144","","","","Rate your confidence","1",""
"368.2999999523163","i","choice","left","e","experimental","1294","882444","0.0-4.0-8.145","false","146","2.4499999999999984","","",""
"2808.399999976158","4","confid","","","html-slider-response","1296","885757","0.0-4.0-10.145-0.145","","","","Rate your confidence","1",""
"374.6999999284744","i","choice","left","e","experimental","1303","887908","0.0-4.0-8.146","false","147","2.5499999999999985","","",""
"3233.1999999284744","5","confid","","","html-slider-response","1305","891644","0.0-4.0-10.146-0.146","","","","Rate your confidence","1",""
"339.89999997615814","i","choice","right","i","experimental","1312","893759","0.0-4.0-8.147","true","148","2.6499999999999986","","",""
"3797.600000023842","3","confid","","","html-slider-response","1314","898061","0.0-4.0-10.147-0.147","","","","Rate your confidence","1",""
"476","i","choice","left","e","experimental","1321","900321","0.0-4.0-8.148","false","149","2.6499999999999986","","",""
"1324.7999999523163","4","confid","","","html-slider-response","1323","902149","0.0-4.0-10.148-0.148","","","","Rate your confidence","1",""
"343.7000000476837","i","choice","right","i","experimental","1330","904269","0.0-4.0-8.149","true","150","2.7499999999999987","","",""
"1312.1000000238419","5","confid","","","html-slider-response","1332","906085","0.0-4.0-10.149-0.149","","","","Rate your confidence","1",""
"294.5","i","choice","right","i","experimental","1339","908151","0.0-4.0-8.150","true","151","2.7499999999999987","","",""
"1309.8999999761581","6","confid","","","html-slider-response","1341","909965","0.0-4.0-10.150-0.150","","","","Rate your confidence","1",""
"332.5","i","choice","left","e","experimental","1348","912071","0.0-4.0-8.151","false","152","2.6499999999999986","","",""
"2374.5","2","confid","","","html-slider-response","1350","914949","0.0-4.0-10.151-0.151","","","","Rate your confidence","1",""
"448.2000000476837","i","choice","left","e","experimental","1358","930547","0.0-4.0-8.152","false","153","2.7499999999999987","","",""
"1579.2999999523163","1","confid","","","html-slider-response","1360","932628","0.0-4.0-10.152-0.152","","","","Rate your confidence","1",""
"254.09999990463257","i","choice","right","i","experimental","1367","934661","0.0-4.0-8.153","true","154","2.8499999999999988","","",""
"1496.3999999761581","2","confid","","","html-slider-response","1369","936660","0.0-4.0-10.153-0.153","","","","Rate your confidence","1",""
"308.3000000715256","i","choice","left","e","experimental","1376","938748","0.0-4.0-8.154","false","155","2.8499999999999988","","",""
"1305.2999999523163","3","confid","","","html-slider-response","1378","940556","0.0-4.0-10.154-0.154","","","","Rate your confidence","1",""
"430.89999997615814","i","choice","right","i","experimental","1385","942762","0.0-4.0-8.155","true","156","2.949999999999999","","",""
"1947","1","confid","","","html-slider-response","1387","945220","0.0-4.0-10.155-0.155","","","","Rate your confidence","1",""
"351.39999997615814","e","choice","left","e","experimental","1394","947345","0.0-4.0-8.156","true","157","2.949999999999999","","",""
"1883.2999999523163","2","confid","","","html-slider-response","1396","949732","0.0-4.0-10.156-0.156","","","","Rate your confidence","1",""
"731.1000000238419","i","choice","right","i","experimental","1403","952237","0.0-4.0-8.157","true","158","2.8499999999999988","","",""
"1552.1999999284744","4","confid","","","html-slider-response","1405","954292","0.0-4.0-10.157-0.157","","","","Rate your confidence","1",""
"362","i","choice","right","i","experimental","1412","956430","0.0-4.0-8.158","true","159","2.8499999999999988","","",""
"1390.6000000238419","4","confid","","","html-slider-response","1414","958324","0.0-4.0-10.158-0.158","","","","Rate your confidence","1",""
"572.1000000238419","e","choice","left","e","experimental","1421","960666","0.0-4.0-8.159","true","160","2.7499999999999987","","",""
"1818.7000000476837","1","confid","","","html-slider-response","1423","962988","0.0-4.0-10.159-0.159","","","","Rate your confidence","1",""
"287","i","choice","right","i","experimental","1430","965061","0.0-4.0-8.160","true","161","2.7499999999999987","","",""
"1576.2999999523163","3","confid","","","html-slider-response","1432","967140","0.0-4.0-10.160-0.160","","","","Rate your confidence","1",""
"336.40000009536743","i","choice","left","e","experimental","1439","969257","0.0-4.0-8.161","false","162","2.6499999999999986","","",""
"2961.899999976158","2","confid","","","html-slider-response","1441","972732","0.0-4.0-10.161-0.161","","","","Rate your confidence","1",""
"331.2000000476837","i","choice","right","i","experimental","1448","974841","0.0-4.0-8.162","true","163","2.7499999999999987","","",""
"2348.399999976158","5","confid","","","html-slider-response","1450","977692","0.0-4.0-10.162-0.162","","","","Rate your confidence","1",""
"310.5","e","choice","left","e","experimental","1457","979782","0.0-4.0-8.163","true","164","2.7499999999999987","","",""
"1551.6999999284744","5","confid","","","html-slider-response","1459","981837","0.0-4.0-10.163-0.163","","","","Rate your confidence","1",""
"277.7999999523163","i","choice","right","i","experimental","1466","983899","0.0-4.0-8.164","true","165","2.6499999999999986","","",""
"2337.7000000476837","2","confid","","","html-slider-response","1468","986741","0.0-4.0-10.164-0.164","","","","Rate your confidence","1",""
"220.29999995231628","e","choice","left","e","experimental","1475","988735","0.0-4.0-8.165","true","166","2.6499999999999986","","",""
"1789.2999999523163","5","confid","","","html-slider-response","1477","991029","0.0-4.0-10.165-0.165","","","","Rate your confidence","1",""
"386.3000000715256","i","choice","right","i","experimental","1484","993189","0.0-4.0-8.166","true","167","2.5499999999999985","","",""
"1656.6000000238419","4","confid","","","html-slider-response","1486","995349","0.0-4.0-10.166-0.166","","","","Rate your confidence","1",""
"196.5","e","choice","left","e","experimental","1493","997322","0.0-4.0-8.167","true","168","2.5499999999999985","","",""
"1251.6000000238419","4","confid","","","html-slider-response","1495","999077","0.0-4.0-10.167-0.167","","","","Rate your confidence","1",""
"227.10000002384186","i","choice","right","i","experimental","1502","1001077","0.0-4.0-8.168","true","169","2.4499999999999984","","",""
"1167.2999999523163","5","confid","","","html-slider-response","1504","1002749","0.0-4.0-10.168-0.168","","","","Rate your confidence","1",""
"183.10000002384186","e","choice","left","e","experimental","1511","1004704","0.0-4.0-8.169","true","170","2.4499999999999984","","",""
"1277.9000000953674","2","confid","","","html-slider-response","1513","1006485","0.0-4.0-10.169-0.169","","","","Rate your confidence","1",""
"349.1999999284744","e","choice","left","e","experimental","1520","1008623","0.0-4.0-8.170","true","171","2.3499999999999983","","",""
"1351.3999999761581","2","confid","","","html-slider-response","1522","1010477","0.0-4.0-10.170-0.170","","","","Rate your confidence","1",""
"154.89999997615814","i","choice","right","i","experimental","1529","1012409","0.0-4.0-8.171","true","172","2.3499999999999983","","",""
"2259.899999976158","6","confid","","","html-slider-response","1531","1015173","0.0-4.0-10.171-0.171","","","","Rate your confidence","1",""
"311.60000002384186","i","choice","left","e","experimental","1538","1017255","0.0-4.0-8.172","false","173","2.2499999999999982","","",""
"1319.6000000238419","5","confid","","","html-slider-response","1540","1019077","0.0-4.0-10.172-0.172","","","","Rate your confidence","1",""
"244","i","choice","right","i","experimental","1547","1021097","0.0-4.0-8.173","true","174","2.3499999999999983","","",""
"1379.3999999761581","4","confid","","","html-slider-response","1549","1022981","0.0-4.0-10.173-0.173","","","","Rate your confidence","1",""
"342","i","choice","left","e","experimental","1556","1025104","0.0-4.0-8.174","false","175","2.3499999999999983","","",""
"1629.1999999284744","1","confid","","","html-slider-response","1558","1027237","0.0-4.0-10.174-0.174","","","","Rate your confidence","1",""
"482.39999997615814","i","choice","right","i","experimental","1565","1029495","0.0-4.0-8.175","true","176","2.4499999999999984","","",""
"2231.5","4","confid","","","html-slider-response","1567","1032229","0.0-4.0-10.175-0.175","","","","Rate your confidence","1",""
"87.09999990463257","e","choice","left","e","experimental","1574","1034099","0.0-4.0-8.176","true","177","2.4499999999999984","","",""
"1850.8000000715256","3","confid","","","html-slider-response","1576","1036453","0.0-4.0-10.176-0.176","","","","Rate your confidence","1",""
"251.90000009536743","i","choice","right","i","experimental","1583","1038476","0.0-4.0-8.177","true","178","2.3499999999999983","","",""
"2785.2000000476837","5","confid","","","html-slider-response","1585","1041765","0.0-4.0-10.177-0.177","","","","Rate your confidence","1",""
"378.5","i","choice","right","i","experimental","1592","1043921","0.0-4.0-8.178","true","179","2.3499999999999983","","",""
"2100.2999999523163","4","confid","","","html-slider-response","1594","1046525","0.0-4.0-10.178-0.178","","","","Rate your confidence","1",""
"201.69999992847443","e","choice","left","e","experimental","1601","1048496","0.0-4.0-8.179","true","180","2.2499999999999982","","",""
"1781.2999999523163","4","confid","","","html-slider-response","1603","1050781","0.0-4.0-10.179-0.179","","","","Rate your confidence","1",""
"388.90000009536743","i","choice","right","i","experimental","1610","1052942","0.0-4.0-8.180","true","181","2.2499999999999982","","",""
"1710.1000000238419","5","confid","","","html-slider-response","1612","1055156","0.0-4.0-10.180-0.180","","","","Rate your confidence","1",""
"277.5","i","choice","left","e","experimental","1619","1057207","0.0-4.0-8.181","false","182","2.149999999999998","","",""
"1967.5","5","confid","","","html-slider-response","1621","1059677","0.0-4.0-10.181-0.181","","","","Rate your confidence","1",""
"259.39999997615814","i","choice","right","i","experimental","1628","1061709","0.0-4.0-8.182","true","183","2.2499999999999982","","",""
"1624.5","6","confid","","","html-slider-response","1630","1063837","0.0-4.0-10.182-0.182","","","","Rate your confidence","1",""
"209","e","choice","left","e","experimental","1637","1065820","0.0-4.0-8.183","true","184","2.2499999999999982","","",""
"2049.2999999523163","3","confid","","","html-slider-response","1639","1068373","0.0-4.0-10.183-0.183","","","","Rate your confidence","1",""
"236.10000002384186","i","choice","right","i","experimental","1646","1070378","0.0-4.0-8.184","true","185","2.149999999999998","","",""
"3428.600000023842","4","confid","","","html-slider-response","1648","1074309","0.0-4.0-10.184-0.184","","","","Rate your confidence","1",""
"310.59999990463257","e","choice","left","e","experimental","1655","1076393","0.0-4.0-8.185","true","186","2.149999999999998","","",""
"1844.7999999523163","5","confid","","","html-slider-response","1657","1078741","0.0-4.0-10.185-0.185","","","","Rate your confidence","1",""
"485.3000000715256","i","choice","right","i","experimental","1664","1081001","0.0-4.0-8.186","true","187","2.049999999999998","","",""
"1980","4","confid","","","html-slider-response","1666","1083485","0.0-4.0-10.186-0.186","","","","Rate your confidence","1",""
"322.3000000715256","e","choice","left","e","experimental","1673","1085579","0.0-4.0-8.187","true","188","2.049999999999998","","",""
"2915.2999999523163","3","confid","","","html-slider-response","1675","1088997","0.0-4.0-10.187-0.187","","","","Rate your confidence","1",""
"256.2000000476837","i","choice","right","i","experimental","1682","1091026","0.0-4.0-8.188","true","189","1.949999999999998","","",""
"1932.3999999761581","4","confid","","","html-slider-response","1684","1093461","0.0-4.0-10.188-0.188","","","","Rate your confidence","1",""
"275.1999999284744","e","choice","left","e","experimental","1691","1095513","0.0-4.0-8.189","true","190","1.949999999999998","","",""
"1885.3999999761581","5","confid","","","html-slider-response","1693","1097901","0.0-4.0-10.189-0.189","","","","Rate your confidence","1",""
"312","i","choice","left","e","experimental","1700","1099986","0.0-4.0-8.190","false","191","1.8499999999999979","","",""
"1979.5","5","confid","","","html-slider-response","1702","1102469","0.0-4.0-10.190-0.190","","","","Rate your confidence","1",""
"318.60000002384186","i","choice","right","i","experimental","1709","1104574","0.0-4.0-8.191","true","192","1.949999999999998","","",""
"2030.6000000238419","4","confid","","","html-slider-response","1711","1107109","0.0-4.0-10.191-0.191","","","","Rate your confidence","1",""
"539.1000000238419","e","choice","right","i","experimental","1718","1109420","0.0-4.0-8.192","false","193","1.949999999999998","","",""
"1425.3999999761581","1","confid","","","html-slider-response","1720","1111349","0.0-4.0-10.192-0.192","","","","Rate your confidence","1",""
"282.2000000476837","i","choice","left","e","experimental","1727","1113408","0.0-4.0-8.193","false","194","2.049999999999998","","",""
"1749.3999999761581","3","confid","","","html-slider-response","1729","1115669","0.0-4.0-10.193-0.193","","","","Rate your confidence","1","28924"
