"rt","response","task","target_side","correct_response","trial_type","trial_index","time_elapsed","internal_node_id","correct","trial_number","n_dots","stimulus","slider_start","participant"
"339.5","e","choice","left","e","practice","10","144300","0.0-4.0-8.0","true","1","4.25","","",""
"121.10000000149012","i","choice","right","i","practice","18","146705","0.0-4.0-8.1","true","2","4.25","","",""
"142.80000000074506","i","choice","right","i","practice","26","149131","0.0-4.0-8.2","true","3","3.85","","",""
"140.40000000223517","e","choice","left","e","practice","34","151554","0.0-4.0-8.3","true","4","3.85","","",""
"327.0999999977648","e","choice","left","e","practice","42","154162","0.0-4.0-8.4","true","5","3.45","","",""
"15.699999999254942","i","choice","right","i","practice","50","156462","0.0-4.0-8.5","true","6","3.45","","",""
"128","e","choice","left","e","practice","58","158867","0.0-4.0-8.6","true","7","3.25","","",""
"232.89999999850988","e","choice","right","i","practice","66","161382","0.0-4.0-8.7","false","8","3.25","","",""
"163","e","choice","left","e","practice","74","163841","0.0-4.0-8.8","true","9","3.45","","",""
"3610.300000000745","i","choice","right","i","practice","82","169733","0.0-4.0-8.9","true","10","3.45","","",""
"174.10000000149012","e","choice","left","e","practice","90","172196","0.0-4.0-8.10","true","11","3.25","","",""
"272.3999999985099","e","choice","right","i","practice","98","174755","0.0-4.0-8.11","false","12","3.25","","",""
"170.09999999776483","e","choice","right","i","practice","106","177213","0.0-4.0-8.12","false","13","3.35","","",""
"122.29999999701977","e","choice","left","e","practice","114","179621","0.0-4.0-8.13","true","14","3.45","","",""
"116.30000000074506","e","choice","left","e","practice","122","182017","0.0-4.0-8.14","true","15","3.45","","",""
"279.69999999925494","i","choice","right","i","practice","130","184578","0.0-4.0-8.15","true","16","3.35","","",""
"147.89999999850988","i","choice","right","i","practice","138","187017","0.0-4.0-8.16","true","17","3.35","","",""
"51.30000000074506","e","choice","left","e","practice","146","189354","0.0-4.0-8.17","true","18","3.25","","",""
"267.5","e","choice","right","i","practice","154","191902","0.0-4.0-8.18","false","19","3.25","","",""
"153.79999999701977","e","choice","left","e","practice","162","194349","0.0-4.0-8.19","true","20","3.35","","",""
"14.5","i","choice","right","i","practice","170","196653","0.0-4.0-8.20","true","21","3.35","","",""
"165.39999999850988","e","choice","left","e","practice","178","199097","0.0-4.0-8.21","true","22","3.25","","",""
"693.1999999992549","i","choice","right","i","practice","186","202069","0.0-4.0-8.22","true","23","3.25","","",""
"44.5","e","choice","left","e","practice","194","204392","0.0-4.0-8.23","true","24","3.15","","",""
"1001.8000000007451","e","choice","left","e","practice","202","207674","0.0-4.0-8.24","true","25","3.15","","",""
"51.5","i","choice","right","i","practice","210","210007","0.0-4.0-8.25","true","26","3.05","","",""
"48.099999997764826","e","choice","left","e","experimental","221","237233","0.0-4.0-8.26","true","27","3.05","","",""
"3017.5","4","confid","","","html-slider-response","223","240754","0.0-4.0-10.26-0.26","","","","Rate your confidence","1",""
"256.8999999985099","i","choice","right","i","experimental","230","242789","0.0-4.0-8.27","true","28","2.9499999999999997","","",""
"3273.5","4","confid","","","html-slider-response","232","246565","0.0-4.0-10.27-0.27","","","","Rate your confidence","1",""
"346.30000000074506","i","choice","left","e","experimental","239","248706","0.0-4.0-8.28","false","29","2.9499999999999997","","",""
"4094.89999999851","3","confid","","","html-slider-response","241","253303","0.0-4.0-10.28-0.28","","","","Rate your confidence","1",""
"376.5","i","choice","right","i","experimental","248","255458","0.0-4.0-8.29","true","30","3.05","","",""
"2915.400000002235","4","confid","","","html-slider-response","250","258878","0.0-4.0-10.29-0.29","","","","Rate your confidence","1",""
"258.30000000074506","i","choice","right","i","experimental","257","260926","0.0-4.0-8.30","true","31","3.05","","",""
"2075.5","3","confid","","","html-slider-response","259","263504","0.0-4.0-10.30-0.30","","","","Rate your confidence","1",""
"703.1999999992549","i","choice","left","e","experimental","266","265984","0.0-4.0-8.31","false","32","2.9499999999999997","","",""
"3152.099999997765","3","confid","","","html-slider-response","268","269647","0.0-4.0-10.31-0.31","","","","Rate your confidence","1",""
"1312.5","e","choice","left","e","experimental","275","272735","0.0-4.0-8.32","true","33","3.05","","",""
"2399","3","confid","","","html-slider-response","277","275637","0.0-4.0-10.32-0.32","","","","Rate your confidence","1",""
"513","i","choice","right","i","experimental","284","277936","0.0-4.0-8.33","true","34","3.05","","",""
"3232.300000000745","3","confid","","","html-slider-response","286","281671","0.0-4.0-10.33-0.33","","","","Rate your confidence","1",""
"424.8999999985099","i","choice","right","i","experimental","293","283880","0.0-4.0-8.34","true","35","2.9499999999999997","","",""
"2174.800000000745","3","confid","","","html-slider-response","295","286558","0.0-4.0-10.34-0.34","","","","Rate your confidence","1",""
"54.5","e","choice","left","e","experimental","302","288391","0.0-4.0-8.35","true","36","2.9499999999999997","","",""
"2430.900000002235","2","confid","","","html-slider-response","304","291325","0.0-4.0-10.35-0.35","","","","Rate your confidence","1",""
"199.60000000149012","e","choice","left","e","experimental","311","293314","0.0-4.0-8.36","true","37","2.8499999999999996","","",""
"2072.300000000745","4","confid","","","html-slider-response","313","295888","0.0-4.0-10.36-0.36","","","","Rate your confidence","1",""
"432.69999999925494","i","choice","right","i","experimental","320","298104","0.0-4.0-8.37","true","38","2.8499999999999996","","",""
"3127.5","3","confid","","","html-slider-response","322","301734","0.0-4.0-10.37-0.37","","","","Rate your confidence","1",""
"494.80000000074506","i","choice","right","i","experimental","329","304017","0.0-4.0-8.38","true","39","2.7499999999999996","","",""
"4096.29999999702","3","confid","","","html-slider-response","331","308615","0.0-4.0-10.38-0.38","","","","Rate your confidence","1",""
"7.699999999254942","e","choice","left","e","experimental","338","310408","0.0-4.0-8.39","true","40","2.7499999999999996","","",""
"2187.60000000149","3","confid","","","html-slider-response","340","313098","0.0-4.0-10.39-0.39","","","","Rate your confidence","1",""
"112.89999999850988","e","choice","left","e","experimental","347","314987","0.0-4.0-8.40","true","41","2.6499999999999995","","",""
"2050","3","confid","","","html-slider-response","349","317541","0.0-4.0-10.40-0.40","","","","Rate your confidence","1",""
"255.20000000298023","e","choice","right","i","experimental","356","319574","0.0-4.0-8.41","false","42","2.6499999999999995","","",""
"2855.60000000149","2","confid","","","html-slider-response","358","322933","0.0-4.0-10.41-0.41","","","","Rate your confidence","1",""
"996.9000000022352","i","choice","right","i","experimental","365","325711","0.0-4.0-8.42","true","43","2.7499999999999996","","",""
"2011.8999999985099","3","confid","","","html-slider-response","367","328225","0.0-4.0-10.42-0.42","","","","Rate your confidence","1",""
"579","e","choice","left","e","experimental","374","330592","0.0-4.0-8.43","true","44","2.7499999999999996","","",""
"2302.5","3","confid","","","html-slider-response","376","333398","0.0-4.0-10.43-0.43","","","","Rate your confidence","1",""
"280.8999999985099","e","choice","left","e","experimental","383","335467","0.0-4.0-8.44","true","45","2.6499999999999995","","",""
"1862.5","3","confid","","","html-slider-response","385","337832","0.0-4.0-10.44-0.44","","","","Rate your confidence","1",""
"515","i","choice","right","i","experimental","392","340129","0.0-4.0-8.45","true","46","2.6499999999999995","","",""
"2632","4","confid","","","html-slider-response","394","343263","0.0-4.0-10.45-0.45","","","","Rate your confidence","1",""
"417.8999999985099","e","choice","left","e","experimental","401","345467","0.0-4.0-8.46","true","47","2.5499999999999994","","",""
"2240.599999997765","4","confid","","","html-slider-response","403","348211","0.0-4.0-10.46-0.46","","","","Rate your confidence","1",""
"753.3000000007451","i","choice","right","i","experimental","410","350742","0.0-4.0-8.47","true","48","2.5499999999999994","","",""
"2121.599999997765","3","confid","","","html-slider-response","412","353369","0.0-4.0-10.47-0.47","","","","Rate your confidence","1",""
"328.9000000022352","e","choice","left","e","experimental","419","355484","0.0-4.0-8.48","true","49","2.4499999999999993","","",""
"2051.800000000745","4","confid","","","html-slider-response","421","358038","0.0-4.0-10.48-0.48","","","","Rate your confidence","1",""
"418.5","i","choice","right","i","experimental","428","360235","0.0-4.0-8.49","true","50","2.4499999999999993","","",""
"1871.300000000745","4","confid","","","html-slider-response","430","362610","0.0-4.0-10.49-0.49","","","","Rate your confidence","1",""
"430.1000000014901","i","choice","right","i","experimental","437","364814","0.0-4.0-8.50","true","51","2.349999999999999","","",""
"2016.7000000029802","4","confid","","","html-slider-response","439","367334","0.0-4.0-10.50-0.50","","","","Rate your confidence","1",""
"274.30000000074506","e","choice","left","e","experimental","446","369387","0.0-4.0-8.51","true","52","2.349999999999999","","",""
"2896.60000000149","3","confid","","","html-slider-response","448","372789","0.0-4.0-10.51-0.51","","","","Rate your confidence","1",""
"667.6999999992549","e","choice","left","e","experimental","455","375245","0.0-4.0-8.52","true","53","2.249999999999999","","",""
"1951.5","3","confid","","","html-slider-response","457","377701","0.0-4.0-10.52-0.52","","","","Rate your confidence","1",""
"233.5","i","choice","right","i","experimental","464","379716","0.0-4.0-8.53","true","54","2.249999999999999","","",""
"2430","3","confid","","","html-slider-response","466","382648","0.0-4.0-10.53-0.53","","","","Rate your confidence","1",""
"623.4000000022352","i","choice","right","i","experimental","473","385045","0.0-4.0-8.54","true","55","2.149999999999999","","",""
"2233","2","confid","","","html-slider-response","475","387780","0.0-4.0-10.54-0.54","","","","Rate your confidence","1",""
"345.69999999925494","e","choice","left","e","experimental","482","389907","0.0-4.0-8.55","true","56","2.149999999999999","","",""
"1938.5","3","confid","","","html-slider-response","484","392347","0.0-4.0-10.55-0.55","","","","Rate your confidence","1",""
"639.7999999970198","i","choice","right","i","experimental","491","394779","0.0-4.0-8.56","true","57","2.049999999999999","","",""
"3012.099999997765","3","confid","","","html-slider-response","493","398295","0.0-4.0-10.56-0.56","","","","Rate your confidence","1",""
"582.6999999992549","i","choice","left","e","experimental","500","400662","0.0-4.0-8.57","false","58","2.049999999999999","","",""
"2078.199999999255","3","confid","","","html-slider-response","502","403242","0.0-4.0-10.57-0.57","","","","Rate your confidence","1",""
"310.8999999985099","e","choice","right","i","experimental","509","405331","0.0-4.0-8.58","false","59","2.149999999999999","","",""
"2185.599999997765","3","confid","","","html-slider-response","511","408021","0.0-4.0-10.58-0.58","","","","Rate your confidence","1",""
"524.3000000007451","e","choice","left","e","experimental","518","410337","0.0-4.0-8.59","true","60","2.249999999999999","","",""
"1976.699999999255","3","confid","","","html-slider-response","520","412816","0.0-4.0-10.59-0.59","","","","Rate your confidence","1",""
"708.1000000014901","e","choice","right","i","experimental","527","415309","0.0-4.0-8.60","false","61","2.249999999999999","","",""
"2606.300000000745","2","confid","","","html-slider-response","529","418418","0.0-4.0-10.60-0.60","","","","Rate your confidence","1",""
"372","e","choice","left","e","experimental","536","420581","0.0-4.0-8.61","true","62","2.349999999999999","","",""
"2089.5","3","confid","","","html-slider-response","538","423173","0.0-4.0-10.61-0.61","","","","Rate your confidence","1",""
"873.6999999992549","i","choice","right","i","experimental","545","425824","0.0-4.0-8.62","true","63","2.349999999999999","","",""
"2060.39999999851","3","confid","","","html-slider-response","547","428386","0.0-4.0-10.62-0.62","","","","Rate your confidence","1",""
"435.8999999985099","i","choice","left","e","experimental","554","430602","0.0-4.0-8.63","false","64","2.249999999999999","","",""
"2029.5","3","confid","","","html-slider-response","556","433137","0.0-4.0-10.63-0.63","","","","Rate your confidence","1",""
"859","i","choice","left","e","experimental","563","435775","0.0-4.0-8.64","false","65","2.349999999999999","","",""
"3153.300000000745","3","confid","","","html-slider-response","565","439434","0.0-4.0-10.64-0.64","","","","Rate your confidence","1",""
"1002.7000000029802","i","choice","right","i","experimental","572","442222","0.0-4.0-8.65","true","66","2.4499999999999993","","",""
"1839.3999999985099","3","confid","","","html-slider-response","574","444564","0.0-4.0-10.65-0.65","","","","Rate your confidence","1",""
"724.5","e","choice","right","i","experimental","581","447077","0.0-4.0-8.66","false","67","2.4499999999999993","","",""
"1984.6000000014901","3","confid","","","html-slider-response","583","449568","0.0-4.0-10.66-0.66","","","","Rate your confidence","1",""
"834.2999999970198","e","choice","left","e","experimental","590","452190","0.0-4.0-8.67","true","68","2.5499999999999994","","",""
"2712.099999997765","2","confid","","","html-slider-response","592","455408","0.0-4.0-10.67-0.67","","","","Rate your confidence","1",""
"576.6999999992549","i","choice","left","e","experimental","600","470056","0.0-4.0-8.68","false","69","2.5499999999999994","","",""
"2158.7999999970198","2","confid","","","html-slider-response","602","472717","0.0-4.0-10.68-0.68","","","","Rate your confidence","1",""
"296.5","i","choice","right","i","experimental","609","474802","0.0-4.0-8.69","true","70","2.6499999999999995","","",""
"2513","4","confid","","","html-slider-response","611","477819","0.0-4.0-10.69-0.69","","","","Rate your confidence","1",""
"588.6000000014901","i","choice","left","e","experimental","618","480197","0.0-4.0-8.70","false","71","2.6499999999999995","","",""
"2569.800000000745","3","confid","","","html-slider-response","620","483269","0.0-4.0-10.70-0.70","","","","Rate your confidence","1",""
"122.70000000298023","e","choice","right","i","experimental","627","485178","0.0-4.0-8.71","false","72","2.7499999999999996","","",""
"3229.89999999851","3","confid","","","html-slider-response","629","488911","0.0-4.0-10.71-0.71","","","","Rate your confidence","1",""
"57.30000000074506","i","choice","right","i","experimental","636","490747","0.0-4.0-8.72","true","73","2.8499999999999996","","",""
"1811","4","confid","","","html-slider-response","638","493063","0.0-4.0-10.72-0.72","","","","Rate your confidence","1",""
"1164","i","choice","left","e","experimental","645","496015","0.0-4.0-8.73","false","74","2.8499999999999996","","",""
"1618.9000000022352","3","confid","","","html-slider-response","647","498137","0.0-4.0-10.73-0.73","","","","Rate your confidence","1",""
"1794.2000000029802","e","choice","right","i","experimental","654","501708","0.0-4.0-8.74","false","75","2.9499999999999997","","",""
"2890.800000000745","3","confid","","","html-slider-response","656","505102","0.0-4.0-10.74-0.74","","","","Rate your confidence","1",""
"502.69999999925494","e","choice","left","e","experimental","663","507398","0.0-4.0-8.75","true","76","3.05","","",""
"1974.199999999255","4","confid","","","html-slider-response","665","509877","0.0-4.0-10.75-0.75","","","","Rate your confidence","1",""
"77.80000000074506","i","choice","right","i","experimental","672","511732","0.0-4.0-8.76","true","77","3.05","","",""
"1970.199999999255","4","confid","","","html-slider-response","674","514205","0.0-4.0-10.76-0.76","","","","Rate your confidence","1",""
"262","e","choice","left","e","experimental","681","516248","0.0-4.0-8.77","true","78","2.9499999999999997","","",""
"2033.8999999985099","3","confid","","","html-slider-response","683","518786","0.0-4.0-10.77-0.77","","","","Rate your confidence","1",""
"1238.6000000014901","e","choice","left","e","experimental","690","521805","0.0-4.0-8.78","true","79","2.9499999999999997","","",""
"2722.89999999851","3","confid","","","html-slider-response","692","525030","0.0-4.0-10.78-0.78","","","","Rate your confidence","1",""
"543.5","i","choice","right","i","experimental","699","527368","0.0-4.0-8.79","true","80","2.8499999999999996","","",""
"3303.300000000745","3","confid","","","html-slider-response","701","531176","0.0-4.0-10.79-0.79","","","","Rate your confidence","1",""
"492.3999999985099","i","choice","right","i","experimental","708","533452","0.0-4.0-8.80","true","81","2.8499999999999996","","",""
"1954.1000000014901","3","confid","","","html-slider-response","710","535909","0.0-4.0-10.80-0.80","","","","Rate your confidence","1",""
"99.60000000149012","e","choice","left","e","experimental","717","537795","0.0-4.0-8.81","true","82","2.7499999999999996","","",""
"3056.800000000745","3","confid","","","html-slider-response","719","541356","0.0-4.0-10.81-0.81","","","","Rate your confidence","1",""
"294.8999999985099","e","choice","left","e","experimental","726","543430","0.0-4.0-8.82","true","83","2.7499999999999996","","",""
"1961","3","confid","","","html-slider-response","728","545897","0.0-4.0-10.82-0.82","","","","Rate your confidence","1",""
"74.60000000149012","i","choice","right","i","experimental","735","547750","0.0-4.0-8.83","true","84","2.6499999999999995","","",""
"2845.199999999255","4","confid","","","html-slider-response","737","551097","0.0-4.0-10.83-0.83","","","","Rate your confidence","1",""
"386.8999999985099","i","choice","right","i","experimental","744","553267","0.0-4.0-8.84","true","85","2.6499999999999995","","",""
"2002","4","confid","","","html-slider-response","746","555772","0.0-4.0-10.84-0.84","","","","Rate your confidence","1",""
"159","e","choice","left","e","experimental","753","557721","0.0-4.0-8.85","true","86","2.5499999999999994","","",""
"3331.800000000745","3","confid","","","html-slider-response","755","561559","0.0-4.0-10.85-0.85","","","","Rate your confidence","1",""
"320.3999999985099","e","choice","left","e","experimental","762","563672","0.0-4.0-8.86","true","87","2.5499999999999994","","",""
"2685.10000000149","3","confid","","","html-slider-response","764","566862","0.0-4.0-10.86-0.86","","","","Rate your confidence","1",""
"424.80000000074506","i","choice","right","i","experimental","771","569071","0.0-4.0-8.87","true","88","2.4499999999999993","","",""
"3004.60000000149","3","confid","","","html-slider-response","773","572579","0.0-4.0-10.87-0.87","","","","Rate your confidence","1",""
"419.3999999985099","e","choice","right","i","experimental","780","574781","0.0-4.0-8.88","false","89","2.4499999999999993","","",""
"2083.5","3","confid","","","html-slider-response","782","577370","0.0-4.0-10.88-0.88","","","","Rate your confidence","1",""
"684.1999999992549","e","choice","left","e","experimental","789","579837","0.0-4.0-8.89","true","90","2.5499999999999994","","",""
"2162.699999999255","3","confid","","","html-slider-response","791","582505","0.0-4.0-10.89-0.89","","","","Rate your confidence","1",""
"607.7999999970198","e","choice","left","e","experimental","798","584904","0.0-4.0-8.90","true","91","2.5499999999999994","","",""
"2170.900000002235","4","confid","","","html-slider-response","800","587577","0.0-4.0-10.90-0.90","","","","Rate your confidence","1",""
"391.30000000074506","e","choice","right","i","experimental","807","589748","0.0-4.0-8.91","false","92","2.4499999999999993","","",""
"2269.39999999851","4","confid","","","html-slider-response","809","592519","0.0-4.0-10.91-0.91","","","","Rate your confidence","1",""
"483.9000000022352","i","choice","right","i","experimental","816","594794","0.0-4.0-8.92","true","93","2.5499999999999994","","",""
"5145.400000002235","3","confid","","","html-slider-response","818","600445","0.0-4.0-10.92-0.92","","","","Rate your confidence","1",""
"500.5","e","choice","left","e","experimental","825","602722","0.0-4.0-8.93","true","94","2.5499999999999994","","",""
"5746","2","confid","","","html-slider-response","827","608971","0.0-4.0-10.93-0.93","","","","Rate your confidence","1",""
"316.70000000298023","e","choice","left","e","experimental","834","611068","0.0-4.0-8.94","true","95","2.4499999999999993","","",""
"1848","3","confid","","","html-slider-response","836","613420","0.0-4.0-10.94-0.94","","","","Rate your confidence","1",""
"734.3000000007451","i","choice","right","i","experimental","843","615930","0.0-4.0-8.95","true","96","2.4499999999999993","","",""
"3187.2000000029802","3","confid","","","html-slider-response","845","619622","0.0-4.0-10.95-0.95","","","","Rate your confidence","1",""
"907.8000000007451","i","choice","right","i","experimental","852","622313","0.0-4.0-8.96","true","97","2.349999999999999","","",""
"2350.10000000149","3","confid","","","html-slider-response","854","625167","0.0-4.0-10.96-0.96","","","","Rate your confidence","1",""
"378.8999999985099","e","choice","left","e","experimental","861","627330","0.0-4.0-8.97","true","98","2.349999999999999","","",""
"2996.699999999255","4","confid","","","html-slider-response","863","630828","0.0-4.0-10.97-0.97","","","","Rate your confidence","1",""
"756","i","choice","right","i","experimental","870","633360","0.0-4.0-8.98","true","99","2.249999999999999","","",""
"2567.5","2","confid","","","html-slider-response","872","636429","0.0-4.0-10.98-0.98","","","","Rate your confidence","1",""
"528.2999999970198","i","choice","left","e","experimental","879","638734","0.0-4.0-8.99","false","100","2.249999999999999","","",""
"2109.800000000745","3","confid","","","html-slider-response","881","641346","0.0-4.0-10.99-0.99","","","","Rate your confidence","1",""
"823.6999999992549","i","choice","right","i","experimental","888","643962","0.0-4.0-8.100","true","101","2.349999999999999","","",""
"2103.89999999851","3","confid","","","html-slider-response","890","646568","0.0-4.0-10.100-0.100","","","","Rate your confidence","1",""
"576.5999999977648","e","choice","left","e","experimental","897","648927","0.0-4.0-8.101","true","102","2.349999999999999","","",""
"2004.300000000745","3","confid","","","html-slider-response","899","651435","0.0-4.0-10.101-0.101","","","","Rate your confidence","1",""
"1939.199999999255","i","choice","right","i","experimental","906","655160","0.0-4.0-8.102","true","103","2.249999999999999","","",""
"3025","2","confid","","","html-slider-response","908","658687","0.0-4.0-10.102-0.102","","","","Rate your confidence","1",""
"424.6000000014901","e","choice","left","e","experimental","915","660884","0.0-4.0-8.103","true","104","2.249999999999999","","",""
"4010.199999999255","3","confid","","","html-slider-response","917","665398","0.0-4.0-10.103-0.103","","","","Rate your confidence","1",""
"588.1000000014901","e","choice","left","e","experimental","924","667759","0.0-4.0-8.104","true","105","2.149999999999999","","",""
"4021.800000000745","3","confid","","","html-slider-response","926","672282","0.0-4.0-10.104-0.104","","","","Rate your confidence","1",""
"2167.5","i","choice","right","i","experimental","933","676224","0.0-4.0-8.105","true","106","2.149999999999999","","",""
"2806.599999997765","3","confid","","","html-slider-response","935","679537","0.0-4.0-10.105-0.105","","","","Rate your confidence","1",""
"357.5","e","choice","left","e","experimental","942","681664","0.0-4.0-8.106","true","107","2.049999999999999","","",""
"2641","3","confid","","","html-slider-response","944","684810","0.0-4.0-10.106-0.106","","","","Rate your confidence","1",""
"654.6000000014901","i","choice","right","i","experimental","951","687253","0.0-4.0-8.107","true","108","2.049999999999999","","",""
"2740.800000000745","3","confid","","","html-slider-response","953","690496","0.0-4.0-10.107-0.107","","","","Rate your confidence","1",""
"727.6000000014901","i","choice","left","e","experimental","960","693009","0.0-4.0-8.108","false","109","1.9499999999999988","","",""
"2625.10000000149","3","confid","","","html-slider-response","962","696137","0.0-4.0-10.108-0.108","","","","Rate your confidence","1",""
"500.8999999985099","i","choice","right","i","experimental","969","698414","0.0-4.0-8.109","true","110","2.049999999999999","","",""
"2239.199999999255","3","confid","","","html-slider-response","971","701156","0.0-4.0-10.109-0.109","","","","Rate your confidence","1",""
"674.0999999977648","i","choice","left","e","experimental","979","744182","0.0-4.0-8.110","false","111","2.049999999999999","","",""
"2523.10000000149","3","confid","","","html-slider-response","981","747209","0.0-4.0-10.110-0.110","","","","Rate your confidence","1",""
"384.79999999701977","i","choice","right","i","experimental","988","749387","0.0-4.0-8.111","true","112","2.149999999999999","","",""
"3704.39999999851","3","confid","","","html-slider-response","990","753594","0.0-4.0-10.111-0.111","","","","Rate your confidence","1",""
"307.5","e","choice","left","e","experimental","997","755692","0.0-4.0-8.112","true","113","2.149999999999999","","",""
"3664.800000000745","2","confid","","","html-slider-response","999","759860","0.0-4.0-10.112-0.112","","","","Rate your confidence","1",""
"582.2999999970198","i","choice","right","i","experimental","1006","762226","0.0-4.0-8.113","true","114","2.049999999999999","","",""
"2951.5","3","confid","","","html-slider-response","1008","765682","0.0-4.0-10.113-0.113","","","","Rate your confidence","1",""
"334.69999999925494","e","choice","left","e","experimental","1015","767792","0.0-4.0-8.114","true","115","2.049999999999999","","",""
"2166.7000000029802","3","confid","","","html-slider-response","1017","770461","0.0-4.0-10.114-0.114","","","","Rate your confidence","1",""
"496.5","i","choice","right","i","experimental","1024","772743","0.0-4.0-8.115","true","116","1.9499999999999988","","",""
"2052.10000000149","3","confid","","","html-slider-response","1026","775298","0.0-4.0-10.115-0.115","","","","Rate your confidence","1",""
"270.8999999985099","e","choice","left","e","experimental","1033","777347","0.0-4.0-8.116","true","117","1.9499999999999988","","",""
"2245.2000000029802","3","confid","","","html-slider-response","1035","780095","0.0-4.0-10.116-0.116","","","","Rate your confidence","1",""
"443.6000000014901","i","choice","right","i","experimental","1042","782327","0.0-4.0-8.117","true","118","1.8499999999999988","","",""
"2698.800000000745","2","confid","","","html-slider-response","1044","785529","0.0-4.0-10.117-0.117","","","","Rate your confidence","1",""
"157.69999999925494","e","choice","right","i","experimental","1051","787462","0.0-4.0-8.118","false","119","1.8499999999999988","","",""
"1625.199999999255","3","confid","","","html-slider-response","1053","789591","0.0-4.0-10.118-0.118","","","","Rate your confidence","1",""
"414.19999999925494","e","choice","left","e","experimental","1060","791782","0.0-4.0-8.119","true","120","1.9499999999999988","","",""
"2010.3999999985099","3","confid","","","html-slider-response","1062","794295","0.0-4.0-10.119-0.119","","","","Rate your confidence","1",""
"410.29999999701977","e","choice","left","e","experimental","1069","796492","0.0-4.0-8.120","true","121","1.9499999999999988","","",""
"1978.4000000022352","3","confid","","","html-slider-response","1071","798973","0.0-4.0-10.120-0.120","","","","Rate your confidence","1",""
"388.69999999925494","e","choice","right","i","experimental","1078","801149","0.0-4.0-8.121","false","122","1.8499999999999988","","",""
"1796.699999999255","3","confid","","","html-slider-response","1080","803451","0.0-4.0-10.121-0.121","","","","Rate your confidence","1",""
"1696.199999999255","i","choice","left","e","experimental","1087","806926","0.0-4.0-8.122","false","123","1.9499999999999988","","",""
"2110.39999999851","2","confid","","","html-slider-response","1089","809540","0.0-4.0-10.122-0.122","","","","Rate your confidence","1",""
"496.3999999985099","i","choice","right","i","experimental","1096","811815","0.0-4.0-8.123","true","124","2.049999999999999","","",""
"1812.9000000022352","3","confid","","","html-slider-response","1098","814130","0.0-4.0-10.123-0.123","","","","Rate your confidence","1",""
"479.69999999925494","i","choice","right","i","experimental","1105","816384","0.0-4.0-8.124","true","125","2.049999999999999","","",""
"4247.70000000298","3","confid","","","html-slider-response","1107","821144","0.0-4.0-10.124-0.124","","","","Rate your confidence","1",""
"420.30000000074506","i","choice","left","e","experimental","1114","823343","0.0-4.0-8.125","false","126","1.9499999999999988","","",""
"2071.699999999255","3","confid","","","html-slider-response","1116","825916","0.0-4.0-10.125-0.125","","","","Rate your confidence","1",""
"388","i","choice","left","e","experimental","1123","828088","0.0-4.0-8.126","false","127","2.049999999999999","","",""
"1926.6000000014901","3","confid","","","html-slider-response","1125","830517","0.0-4.0-10.126-0.126","","","","Rate your confidence","1",""
"399.1000000014901","i","choice","right","i","experimental","1132","832702","0.0-4.0-8.127","true","128","2.149999999999999","","",""
"4805.199999999255","3","confid","","","html-slider-response","1134","836838","0.0-4.0-10.127-0.127","","","","Rate your confidence","1",""
"467.30000000074506","i","choice","left","e","experimental","1141","839096","0.0-4.0-8.128","false","129","2.149999999999999","","",""
"2870.699999999255","3","confid","","","html-slider-response","1143","842472","0.0-4.0-10.128-0.128","","","","Rate your confidence","1",""
"1160.9000000022352","e","choice","right","i","experimental","1150","845417","0.0-4.0-8.129","false","130","2.249999999999999","","",""
"2306.199999999255","2","confid","","","html-slider-response","1152","848226","0.0-4.0-10.129-0.129","","","","Rate your confidence","1",""
"217","i","choice","right","i","experimental","1159","850231","0.0-4.0-8.130","true","131","2.349999999999999","","",""
"2544.60000000149","3","confid","","","html-slider-response","1161","853278","0.0-4.0-10.130-0.130","","","","Rate your confidence","1",""
"106.10000000149012","e","choice","left","e","experimental","1168","855171","0.0-4.0-8.131","true","132","2.349999999999999","","",""
"3547.800000000745","3","confid","","","html-slider-response","1170","859220","0.0-4.0-10.131-0.131","","","","Rate your confidence","1",""
"235.19999999925494","i","choice","right","i","experimental","1177","861237","0.0-4.0-8.132","true","133","2.249999999999999","","",""
"2546.800000000745","3","confid","","","html-slider-response","1179","864286","0.0-4.0-10.132-0.132","","","","Rate your confidence","1",""
"346.69999999925494","e","choice","left","e","experimental","1186","866415","0.0-4.0-8.133","true","134","2.249999999999999","","",""
"2829.699999999255","3","confid","","","html-slider-response","1188","869748","0.0-4.0-10.133-0.133","","","","Rate your confidence","1",""
"1385.3999999985099","i","choice","left","e","experimental","1195","872908","0.0-4.0-8.134","false","135","2.149999999999999","","",""
"3323.39999999851","2","confid","","","html-slider-response","1197","876735","0.0-4.0-10.134-0.134","","","","Rate your confidence","1",""
"306.69999999925494","i","choice","right","i","experimental","1204","878819","0.0-4.0-8.135","true","136","2.249999999999999","","",""
"2863.2999999970198","3","confid","","","html-slider-response","1206","882185","0.0-4.0-10.135-0.135","","","","Rate your confidence","1",""
"631.1999999992549","i","choice","right","i","experimental","1213","884605","0.0-4.0-8.136","true","137","2.249999999999999","","",""
"2975.699999999255","3","confid","","","html-slider-response","1215","888085","0.0-4.0-10.136-0.136","","","","Rate your confidence","1",""
"1166.699999999255","i","choice","left","e","experimental","1222","891032","0.0-4.0-8.137","false","138","2.149999999999999","","",""
"2342.400000002235","2","confid","","","html-slider-response","1224","893878","0.0-4.0-10.137-0.137","","","","Rate your confidence","1",""
"2012.5","i","choice","left","e","experimental","1231","897677","0.0-4.0-8.138","false","139","2.249999999999999","","",""
"3026.89999999851","2","confid","","","html-slider-response","1233","901208","0.0-4.0-10.138-0.138","","","","Rate your confidence","1",""
"686.6999999992549","i","choice","right","i","experimental","1240","903665","0.0-4.0-8.139","true","140","2.349999999999999","","",""
"3282.099999997765","3","confid","","","html-slider-response","1242","907449","0.0-4.0-10.139-0.139","","","","Rate your confidence","1",""
"775.1000000014901","e","choice","left","e","experimental","1249","909999","0.0-4.0-8.140","true","141","2.349999999999999","","",""
"2919.5","3","confid","","","html-slider-response","1251","913423","0.0-4.0-10.140-0.140","","","","Rate your confidence","1",""
"1110.7999999970198","e","choice","right","i","experimental","1258","916323","0.0-4.0-8.141","false","142","2.249999999999999","","",""
"2060.800000000745","3","confid","","","html-slider-response","1260","918887","0.0-4.0-10.141-0.141","","","","Rate your confidence","1",""
"595.8000000007451","e","choice","right","i","experimental","1267","921264","0.0-4.0-8.142","false","143","2.349999999999999","","",""
"1961.699999999255","3","confid","","","html-slider-response","1269","923728","0.0-4.0-10.142-0.142","","","","Rate your confidence","1",""
"589.1999999992549","e","choice","left","e","experimental","1276","926108","0.0-4.0-8.143","true","144","2.4499999999999993","","",""
"2747.5","2","confid","","","html-slider-response","1278","929360","0.0-4.0-10.143-0.143","","","","Rate your confidence","1",""
"423.80000000074506","i","choice","right","i","experimental","1285","931575","0.0-4.0-8.144","true","145","2.4499999999999993","","",""
"3287.10000000149","2","confid","","","html-slider-response","1287","935365","0.0-4.0-10.144-0.144","","","","Rate your confidence","1",""
"369","e","choice","left","e","experimental","1294","937512","0.0-4.0-8.145","true","146","2.349999999999999","","",""
"2183.199999999255","2","confid","","","html-slider-response","1296","940198","0.0-4.0-10.145-0.145","","","","Rate your confidence","1",""
"2275.400000002235","i","choice","right","i","experimental","1303","944264","0.0-4.0-8.146","true","147","2.349999999999999","","",""
"1852.6000000014901","2","confid","","","html-slider-response","1305","946620","0.0-4.0-10.146-0.146","","","","Rate your confidence","1",""
"368.3999999985099","e","choice","left","e","experimental","1312","948777","0.0-4.0-8.147","true","148","2.249999999999999","","",""
"3099.89999999851","2","confid","","","html-slider-response","1314","952379","0.0-4.0-10.147-0.147","","","","Rate your confidence","1",""
"569.8999999985099","i","choice","left","e","experimental","1321","954734","0.0-4.0-8.148","false","149","2.249999999999999","","",""
"2567.39999999851","2","confid","","","html-slider-response","1323","957803","0.0-4.0-10.148-0.148","","","","Rate your confidence","1",""
"678.6999999992549","i","choice","right","i","experimental","1330","960273","0.0-4.0-8.149","true","150","2.349999999999999","","",""
"2949.300000000745","2","confid","","","html-slider-response","1332","963725","0.0-4.0-10.149-0.149","","","","Rate your confidence","1",""
"409.6000000014901","e","choice","right","i","experimental","1339","965921","0.0-4.0-8.150","false","151","2.349999999999999","","",""
"3252","2","confid","","","html-slider-response","1341","969676","0.0-4.0-10.150-0.150","","","","Rate your confidence","1",""
"408.1000000014901","e","choice","left","e","experimental","1348","971871","0.0-4.0-8.151","true","152","2.4499999999999993","","",""
"1871.699999999255","3","confid","","","html-slider-response","1350","974255","0.0-4.0-10.151-0.151","","","","Rate your confidence","1",""
"906.3000000007451","i","choice","left","e","experimental","1358","988381","0.0-4.0-8.152","false","153","2.4499999999999993","","",""
"2603.89999999851","2","confid","","","html-slider-response","1360","991489","0.0-4.0-10.152-0.152","","","","Rate your confidence","1",""
"293.5","e","choice","right","i","experimental","1367","993568","0.0-4.0-8.153","false","154","2.5499999999999994","","",""
"1953.300000000745","3","confid","","","html-slider-response","1369","996024","0.0-4.0-10.153-0.153","","","","Rate your confidence","1",""
"125.5","e","choice","left","e","experimental","1376","997938","0.0-4.0-8.154","true","155","2.6499999999999995","","",""
"1579.300000000745","3","confid","","","html-slider-response","1378","1000019","0.0-4.0-10.154-0.154","","","","Rate your confidence","1",""
"190.60000000149012","i","choice","right","i","experimental","1385","1001991","0.0-4.0-8.155","true","156","2.6499999999999995","","",""
"1769.0999999977648","3","confid","","","html-slider-response","1387","1004266","0.0-4.0-10.155-0.155","","","","Rate your confidence","1",""
"655.7000000029802","e","choice","left","e","experimental","1394","1006711","0.0-4.0-8.156","true","157","2.5499999999999994","","",""
"2112.60000000149","2","confid","","","html-slider-response","1396","1009325","0.0-4.0-10.156-0.156","","","","Rate your confidence","1",""
"31.399999998509884","i","choice","right","i","experimental","1403","1011141","0.0-4.0-8.157","true","158","2.5499999999999994","","",""
"2046.8999999985099","3","confid","","","html-slider-response","1405","1013692","0.0-4.0-10.157-0.157","","","","Rate your confidence","1",""
"404.4000000022352","e","choice","right","i","experimental","1412","1015886","0.0-4.0-8.158","false","159","2.4499999999999993","","",""
"2010.199999999255","2","confid","","","html-slider-response","1414","1018400","0.0-4.0-10.158-0.158","","","","Rate your confidence","1",""
"698.8000000007451","e","choice","left","e","experimental","1421","1020877","0.0-4.0-8.159","true","160","2.5499999999999994","","",""
"2094.900000002235","3","confid","","","html-slider-response","1423","1023474","0.0-4.0-10.159-0.159","","","","Rate your confidence","1",""
"1254.5999999977648","e","choice","left","e","experimental","1430","1026515","0.0-4.0-8.160","true","161","2.5499999999999994","","",""
"2341","2","confid","","","html-slider-response","1432","1029359","0.0-4.0-10.160-0.160","","","","Rate your confidence","1",""
"2641.39999999851","i","choice","right","i","experimental","1439","1033791","0.0-4.0-8.161","true","162","2.4499999999999993","","",""
"2043.8999999985099","2","confid","","","html-slider-response","1441","1036339","0.0-4.0-10.161-0.161","","","","Rate your confidence","1",""
"556.5","e","choice","left","e","experimental","1448","1038688","0.0-4.0-8.162","true","163","2.4499999999999993","","",""
"2067.699999999255","2","confid","","","html-slider-response","1450","1041262","0.0-4.0-10.162-0.162","","","","Rate your confidence","1",""
"29.399999998509884","i","choice","right","i","experimental","1457","1043084","0.0-4.0-8.163","true","164","2.349999999999999","","",""
"2356.699999999255","3","confid","","","html-slider-response","1459","1045944","0.0-4.0-10.163-0.163","","","","Rate your confidence","1",""
"507.5999999977648","e","choice","left","e","experimental","1466","1048235","0.0-4.0-8.164","true","165","2.349999999999999","","",""
"1836.3999999985099","3","confid","","","html-slider-response","1468","1050583","0.0-4.0-10.164-0.164","","","","Rate your confidence","1",""
"652.6999999992549","e","choice","right","i","experimental","1475","1053017","0.0-4.0-8.165","false","166","2.249999999999999","","",""
"2286.5","2","confid","","","html-slider-response","1477","1055807","0.0-4.0-10.165-0.165","","","","Rate your confidence","1",""
"765.5","i","choice","right","i","experimental","1484","1058346","0.0-4.0-8.166","true","167","2.349999999999999","","",""
"2712.800000000745","2","confid","","","html-slider-response","1486","1061561","0.0-4.0-10.166-0.166","","","","Rate your confidence","1",""
"547.5999999977648","e","choice","left","e","experimental","1493","1063888","0.0-4.0-8.167","true","168","2.349999999999999","","",""
"2796.300000000745","4","confid","","","html-slider-response","1495","1067188","0.0-4.0-10.167-0.167","","","","Rate your confidence","1",""
"356.0999999977648","i","choice","left","e","experimental","1502","1069318","0.0-4.0-8.168","false","169","2.249999999999999","","",""
"2611.7999999970198","3","confid","","","html-slider-response","1504","1072432","0.0-4.0-10.168-0.168","","","","Rate your confidence","1",""
"482.30000000074506","e","choice","right","i","experimental","1511","1074692","0.0-4.0-8.169","false","170","2.349999999999999","","",""
"2266.800000000745","2","confid","","","html-slider-response","1513","1077461","0.0-4.0-10.169-0.169","","","","Rate your confidence","1",""
"1341.5","e","choice","right","i","experimental","1520","1080582","0.0-4.0-8.170","false","171","2.4499999999999993","","",""
"2289.099999997765","2","confid","","","html-slider-response","1522","1083375","0.0-4.0-10.170-0.170","","","","Rate your confidence","1",""
"350.5","e","choice","left","e","experimental","1529","1085509","0.0-4.0-8.171","true","172","2.5499999999999994","","",""
"3169.400000002235","3","confid","","","html-slider-response","1531","1089180","0.0-4.0-10.171-0.171","","","","Rate your confidence","1",""
"920","e","choice","right","i","experimental","1538","1091891","0.0-4.0-8.172","false","173","2.5499999999999994","","",""
"1988.3999999985099","2","confid","","","html-slider-response","1540","1094383","0.0-4.0-10.172-0.172","","","","Rate your confidence","1",""
"891.8999999985099","i","choice","left","e","experimental","1547","1097053","0.0-4.0-8.173","false","174","2.6499999999999995","","",""
"2123.699999999255","2","confid","","","html-slider-response","1549","1099680","0.0-4.0-10.173-0.173","","","","Rate your confidence","1",""
"524.8000000007451","i","choice","left","e","experimental","1556","1101986","0.0-4.0-8.174","false","175","2.7499999999999996","","",""
"2025.6000000014901","2","confid","","","html-slider-response","1558","1104513","0.0-4.0-10.174-0.174","","","","Rate your confidence","1",""
"152.79999999701977","i","choice","right","i","experimental","1565","1106456","0.0-4.0-8.175","true","176","2.8499999999999996","","",""
"4548.300000000745","3","confid","","","html-slider-response","1567","1111507","0.0-4.0-10.175-0.175","","","","Rate your confidence","1",""
"491.5","i","choice","right","i","experimental","1574","1113789","0.0-4.0-8.176","true","177","2.8499999999999996","","",""
"2064.39999999851","3","confid","","","html-slider-response","1576","1116355","0.0-4.0-10.176-0.176","","","","Rate your confidence","1",""
"615.6999999992549","i","choice","left","e","experimental","1583","1118753","0.0-4.0-8.177","false","178","2.7499999999999996","","",""
"2488.7000000029802","3","confid","","","html-slider-response","1585","1121745","0.0-4.0-10.177-0.177","","","","Rate your confidence","1",""
"402","e","choice","right","i","experimental","1592","1123919","0.0-4.0-8.178","false","179","2.8499999999999996","","",""
"2342.699999999255","3","confid","","","html-slider-response","1594","1126767","0.0-4.0-10.178-0.178","","","","Rate your confidence","1",""
"742.5","i","choice","left","e","experimental","1601","1129295","0.0-4.0-8.179","false","180","2.9499999999999997","","",""
"2583.300000000745","3","confid","","","html-slider-response","1603","1132382","0.0-4.0-10.179-0.179","","","","Rate your confidence","1",""
"692.7000000029802","i","choice","right","i","experimental","1610","1134849","0.0-4.0-8.180","true","181","3.05","","",""
"2456.900000002235","3","confid","","","html-slider-response","1612","1137808","0.0-4.0-10.180-0.180","","","","Rate your confidence","1",""
"346.5","e","choice","left","e","experimental","1619","1139934","0.0-4.0-8.181","true","182","3.05","","",""
"3800","3","confid","","","html-slider-response","1621","1144239","0.0-4.0-10.181-0.181","","","","Rate your confidence","1",""
"334.19999999925494","i","choice","right","i","experimental","1628","1146349","0.0-4.0-8.182","true","183","2.9499999999999997","","",""
"1936.3999999985099","3","confid","","","html-slider-response","1630","1148788","0.0-4.0-10.182-0.182","","","","Rate your confidence","1",""
"570.2000000029802","e","choice","left","e","experimental","1637","1151132","0.0-4.0-8.183","true","184","2.9499999999999997","","",""
"2496","3","confid","","","html-slider-response","1639","1154132","0.0-4.0-10.183-0.183","","","","Rate your confidence","1",""
"534.5","i","choice","right","i","experimental","1646","1156445","0.0-4.0-8.184","true","185","2.8499999999999996","","",""
"2716","4","confid","","","html-slider-response","1648","1159663","0.0-4.0-10.184-0.184","","","","Rate your confidence","1",""
"621.1000000014901","i","choice","left","e","experimental","1655","1162070","0.0-4.0-8.185","false","186","2.8499999999999996","","",""
"2077.10000000149","3","confid","","","html-slider-response","1657","1164649","0.0-4.0-10.185-0.185","","","","Rate your confidence","1",""
"600.1999999992549","i","choice","right","i","experimental","1664","1167037","0.0-4.0-8.186","true","187","2.9499999999999997","","",""
"1735.699999999255","3","confid","","","html-slider-response","1666","1169277","0.0-4.0-10.186-0.186","","","","Rate your confidence","1",""
"336.80000000074506","e","choice","left","e","experimental","1673","1171394","0.0-4.0-8.187","true","188","2.9499999999999997","","",""
"3010.900000002235","3","confid","","","html-slider-response","1675","1174908","0.0-4.0-10.187-0.187","","","","Rate your confidence","1",""
"798.1999999992549","i","choice","right","i","experimental","1682","1177496","0.0-4.0-8.188","true","189","2.8499999999999996","","",""
"2527.300000000745","2","confid","","","html-slider-response","1684","1180527","0.0-4.0-10.188-0.188","","","","Rate your confidence","1",""
"1427.5","e","choice","left","e","experimental","1691","1183743","0.0-4.0-8.189","true","190","2.8499999999999996","","",""
"1956.8999999985099","3","confid","","","html-slider-response","1693","1186206","0.0-4.0-10.189-0.189","","","","Rate your confidence","1",""
"622.3999999985099","i","choice","right","i","experimental","1700","1188614","0.0-4.0-8.190","true","191","2.7499999999999996","","",""
"3075.099999997765","2","confid","","","html-slider-response","1702","1192193","0.0-4.0-10.190-0.190","","","","Rate your confidence","1",""
"474.6000000014901","e","choice","left","e","experimental","1709","1194445","0.0-4.0-8.191","true","192","2.7499999999999996","","",""
"3217.900000002235","2","confid","","","html-slider-response","1711","1198165","0.0-4.0-10.191-0.191","","","","Rate your confidence","1",""
"339.80000000074506","i","choice","right","i","experimental","1718","1200295","0.0-4.0-8.192","true","193","2.6499999999999995","","",""
"2731.60000000149","3","confid","","","html-slider-response","1720","1203529","0.0-4.0-10.192-0.192","","","","Rate your confidence","1",""
"902.8000000007451","e","choice","left","e","experimental","1727","1206213","0.0-4.0-8.193","true","194","2.6499999999999995","","",""
"4437.699999999255","3","confid","","","html-slider-response","1729","1211155","0.0-4.0-10.193-0.193","","","","Rate your confidence","1","74729"
