"rt","response","task","target_side","correct_response","trial_type","trial_index","time_elapsed","internal_node_id","correct","trial_number","n_dots","stimulus","slider_start","participant"
"1098.7000000029802","e","choice","left","e","practice","10","107591","0.0-4.0-8.0","true","1","4.25","","",""
"1179.5","i","choice","right","i","practice","18","111051","0.0-4.0-8.1","true","2","4.25","","",""
"512.5","e","choice","left","e","practice","26","113835","0.0-4.0-8.2","true","3","3.85","","",""
"986.8999999910593","i","choice","right","i","practice","34","117098","0.0-4.0-8.3","true","4","3.45","","",""
"277.70000000298023","i","choice","right","i","practice","42","119657","0.0-4.0-8.4","true","5","3.0500000000000003","","",""
"133.3999999910593","e","choice","left","e","practice","50","122071","0.0-4.0-8.5","true","6","2.6500000000000004","","",""
"911.2000000029802","i","choice","left","e","practice","58","125253","0.0-4.0-8.6","false","7","2.45","","",""
"59.20000000298023","e","choice","right","i","practice","66","127583","0.0-4.0-8.7","false","8","2.6500000000000004","","",""
"32.900000005960464","e","choice","left","e","practice","74","129894","0.0-4.0-8.8","true","9","2.8500000000000005","","",""
"586.3000000119209","i","choice","right","i","practice","82","132751","0.0-4.0-8.9","true","10","2.8500000000000005","","",""
"748.5","e","choice","left","e","practice","90","135775","0.0-4.0-8.10","true","11","2.6500000000000004","","",""
"886.9000000059605","e","choice","right","i","practice","98","138934","0.0-4.0-8.11","false","12","2.5500000000000003","","",""
"426.90000000596046","i","choice","left","e","practice","106","141641","0.0-4.0-8.12","false","13","2.6500000000000004","","",""
"555.5","i","choice","right","i","practice","114","144478","0.0-4.0-8.13","true","14","2.7500000000000004","","",""
"394.69999998807907","e","choice","right","i","practice","122","147142","0.0-4.0-8.14","false","15","2.7500000000000004","","",""
"63.69999998807907","e","choice","left","e","practice","130","149478","0.0-4.0-8.15","true","16","2.8500000000000005","","",""
"131","e","choice","left","e","practice","138","151894","0.0-4.0-8.16","true","17","2.8500000000000005","","",""
"64.90000000596046","e","choice","right","i","practice","146","154243","0.0-4.0-8.17","false","18","2.7500000000000004","","",""
"506","i","choice","right","i","practice","154","157024","0.0-4.0-8.18","true","19","2.8500000000000005","","",""
"670.5","e","choice","left","e","practice","162","159966","0.0-4.0-8.19","true","20","2.8500000000000005","","",""
"731.4000000059605","e","choice","right","i","practice","170","162969","0.0-4.0-8.20","false","21","2.7500000000000004","","",""
"795.4000000059605","i","choice","left","e","practice","178","166043","0.0-4.0-8.21","false","22","2.8500000000000005","","",""
"98.79999999701977","e","choice","left","e","practice","186","168424","0.0-4.0-8.22","true","23","2.9500000000000006","","",""
"134.5","e","choice","right","i","practice","194","170831","0.0-4.0-8.23","false","24","2.9500000000000006","","",""
"521.5999999940395","e","choice","left","e","practice","202","173633","0.0-4.0-8.24","true","25","3.0500000000000007","","",""
"470.79999999701977","i","choice","right","i","practice","210","176378","0.0-4.0-8.25","true","26","3.0500000000000007","","",""
"790.8000000119209","e","choice","right","i","experimental","221","214061","0.0-4.0-8.26","false","27","2.9500000000000006","","",""
"4976.9000000059605","3","confid","","","html-slider-response-keyinput","223","219542","0.0-4.0-10.26-0.26","","","","Rate your confidence with the number keys or mouse and press Enter to submit","1",""
"95.40000000596046","e","choice","left","e","experimental","230","221413","0.0-4.0-8.27","true","28","3.0500000000000007","","",""
"4401.20000000298","5","confid","","","html-slider-response-keyinput","232","226318","0.0-4.0-10.27-0.27","","","","Rate your confidence with the number keys or mouse and press Enter to submit","1",""
"309.19999998807907","e","choice","right","i","experimental","239","228399","0.0-4.0-8.28","false","29","3.0500000000000007","","",""
"3659.800000011921","4","confid","","","html-slider-response-keyinput","241","232566","0.0-4.0-10.28-0.28","","","","Rate your confidence with the number keys or mouse and press Enter to submit","1",""
"569.7000000029802","i","choice","left","e","experimental","248","234910","0.0-4.0-8.29","false","30","3.150000000000001","","",""
"3058.2999999970198","3","confid","","","html-slider-response-keyinput","250","238472","0.0-4.0-10.29-0.29","","","","Rate your confidence with the number keys or mouse and press Enter to submit","1",""
"667.7000000029802","e","choice","left","e","experimental","257","240912","0.0-4.0-8.30","true","31","3.250000000000001","","",""
"3573.5999999940395","6","confid","","","html-slider-response-keyinput","259","244988","0.0-4.0-10.30-0.30","","","","Rate your confidence with the number keys or mouse and press Enter to submit","1",""
"522.1000000089407","i","choice","right","i","experimental","266","247280","0.0-4.0-8.31","true","32","3.250000000000001","","",""
"4325.70000000298","4","confid","","","html-slider-response-keyinput","268","252109","0.0-4.0-10.31-0.31","","","","Rate your confidence with the number keys or mouse and press Enter to submit","1",""
"418","i","choice","right","i","experimental","275","254299","0.0-4.0-8.32","true","33","3.150000000000001","","",""
"3437.9000000059605","6","confid","","","html-slider-response-keyinput","277","258240","0.0-4.0-10.32-0.32","","","","Rate your confidence with the number keys or mouse and press Enter to submit","1",""
"541.5999999940395","e","choice","left","e","experimental","284","260551","0.0-4.0-8.33","true","34","3.0500000000000007","","",""
"3161","4","confid","","","html-slider-response-keyinput","286","264214","0.0-4.0-10.33-0.33","","","","Rate your confidence with the number keys or mouse and press Enter to submit","1",""
"555.8000000119209","e","choice","right","i","experimental","293","266543","0.0-4.0-8.34","false","35","2.9500000000000006","","",""
"2852.7000000029802","3","confid","","","html-slider-response-keyinput","295","269898","0.0-4.0-10.34-0.34","","","","Rate your confidence with the number keys or mouse and press Enter to submit","1",""
"433.90000000596046","i","choice","left","e","experimental","302","272102","0.0-4.0-8.35","false","36","3.0500000000000007","","",""
"2882.8999999910593","3","confid","","","html-slider-response-keyinput","304","275488","0.0-4.0-10.35-0.35","","","","Rate your confidence with the number keys or mouse and press Enter to submit","1",""
"405.5","e","choice","left","e","experimental","311","277666","0.0-4.0-8.36","true","37","3.150000000000001","","",""
"2437","5","confid","","","html-slider-response-keyinput","313","280606","0.0-4.0-10.36-0.36","","","","Rate your confidence with the number keys or mouse and press Enter to submit","1",""
"648.5","i","choice","right","i","experimental","320","283036","0.0-4.0-8.37","true","38","3.150000000000001","","",""
"3402.3999999910593","4","confid","","","html-slider-response-keyinput","322","286941","0.0-4.0-10.37-0.37","","","","Rate your confidence with the number keys or mouse and press Enter to submit","1",""
"546.7000000029802","e","choice","left","e","experimental","329","289266","0.0-4.0-8.38","true","39","3.0500000000000007","","",""
"2473.9000000059605","2","confid","","","html-slider-response-keyinput","331","292243","0.0-4.0-10.38-0.38","","","","Rate your confidence with the number keys or mouse and press Enter to submit","1",""
"640.8000000119209","i","choice","right","i","experimental","338","294659","0.0-4.0-8.39","true","40","2.9500000000000006","","",""
"2953.800000011921","5","confid","","","html-slider-response-keyinput","340","298115","0.0-4.0-10.39-0.39","","","","Rate your confidence with the number keys or mouse and press Enter to submit","1",""
"378.8999999910593","i","choice","right","i","experimental","347","300274","0.0-4.0-8.40","true","41","2.8500000000000005","","",""
"3282.8999999910593","4","confid","","","html-slider-response-keyinput","349","304060","0.0-4.0-10.40-0.40","","","","Rate your confidence with the number keys or mouse and press Enter to submit","1",""
"317.5","e","choice","left","e","experimental","356","306153","0.0-4.0-8.41","true","42","2.7500000000000004","","",""
"2831.5999999940395","5","confid","","","html-slider-response-keyinput","358","309489","0.0-4.0-10.41-0.41","","","","Rate your confidence with the number keys or mouse and press Enter to submit","1",""
"194.29999999701977","i","choice","right","i","experimental","365","311460","0.0-4.0-8.42","true","43","2.6500000000000004","","",""
"2729.2999999970198","3","confid","","","html-slider-response-keyinput","367","314693","0.0-4.0-10.42-0.42","","","","Rate your confidence with the number keys or mouse and press Enter to submit","1",""
"216.29999999701977","e","choice","left","e","experimental","374","316688","0.0-4.0-8.43","true","44","2.5500000000000003","","",""
"3295.5","4","confid","","","html-slider-response-keyinput","376","320487","0.0-4.0-10.43-0.43","","","","Rate your confidence with the number keys or mouse and press Enter to submit","1",""
"457","e","choice","left","e","experimental","383","322719","0.0-4.0-8.44","true","45","2.45","","",""
"2818.7000000029802","4","confid","","","html-slider-response-keyinput","385","326054","0.0-4.0-10.44-0.44","","","","Rate your confidence with the number keys or mouse and press Enter to submit","1",""
"112.79999999701977","i","choice","right","i","experimental","392","327938","0.0-4.0-8.45","true","46","2.35","","",""
"3481.300000011921","5","confid","","","html-slider-response-keyinput","394","331922","0.0-4.0-10.45-0.45","","","","Rate your confidence with the number keys or mouse and press Enter to submit","1",""
"445.70000000298023","e","choice","right","i","experimental","401","334143","0.0-4.0-8.46","false","47","2.25","","",""
"2835.7999999970198","4","confid","","","html-slider-response-keyinput","403","337482","0.0-4.0-10.46-0.46","","","","Rate your confidence with the number keys or mouse and press Enter to submit","1",""
"347.09999999403954","e","choice","left","e","experimental","410","339601","0.0-4.0-8.47","true","48","2.35","","",""
"2743.199999988079","4","confid","","","html-slider-response-keyinput","412","342847","0.0-4.0-10.47-0.47","","","","Rate your confidence with the number keys or mouse and press Enter to submit","1",""
"528","i","choice","right","i","experimental","419","345150","0.0-4.0-8.48","true","49","2.35","","",""
"6860","4","confid","","","html-slider-response-keyinput","421","352511","0.0-4.0-10.48-0.48","","","","Rate your confidence with the number keys or mouse and press Enter to submit","1",""
"429.59999999403954","e","choice","left","e","experimental","428","354709","0.0-4.0-8.49","true","50","2.25","","",""
"3207.5","2","confid","","","html-slider-response-keyinput","430","358419","0.0-4.0-10.49-0.49","","","","Rate your confidence with the number keys or mouse and press Enter to submit","1",""
"246.29999999701977","i","choice","right","i","experimental","437","360438","0.0-4.0-8.50","true","51","2.15","","",""
"2704","4","confid","","","html-slider-response-keyinput","439","363644","0.0-4.0-10.50-0.50","","","","Rate your confidence with the number keys or mouse and press Enter to submit","1",""
"384.59999999403954","e","choice","left","e","experimental","446","365802","0.0-4.0-8.51","true","52","2.05","","",""
"2240.2999999970198","3","confid","","","html-slider-response-keyinput","448","368545","0.0-4.0-10.51-0.51","","","","Rate your confidence with the number keys or mouse and press Enter to submit","1",""
"298.09999999403954","i","choice","right","i","experimental","455","370614","0.0-4.0-8.52","true","53","1.9499999999999997","","",""
"3464.7999999970198","2","confid","","","html-slider-response-keyinput","457","374581","0.0-4.0-10.52-0.52","","","","Rate your confidence with the number keys or mouse and press Enter to submit","1",""
"314.90000000596046","e","choice","left","e","experimental","464","376669","0.0-4.0-8.53","true","54","1.8499999999999996","","",""
"2938.9000000059605","3","confid","","","html-slider-response-keyinput","466","380110","0.0-4.0-10.53-0.53","","","","Rate your confidence with the number keys or mouse and press Enter to submit","1",""
"282.20000000298023","i","choice","right","i","experimental","473","382167","0.0-4.0-8.54","true","55","1.7499999999999996","","",""
"2380.7999999970198","4","confid","","","html-slider-response-keyinput","475","385050","0.0-4.0-10.54-0.54","","","","Rate your confidence with the number keys or mouse and press Enter to submit","1",""
"588.9000000059605","i","choice","left","e","experimental","482","387423","0.0-4.0-8.55","false","56","1.6499999999999995","","",""
"3019.3999999910593","5","confid","","","html-slider-response-keyinput","484","390944","0.0-4.0-10.55-0.55","","","","Rate your confidence with the number keys or mouse and press Enter to submit","1",""
"368.5","i","choice","right","i","experimental","491","393088","0.0-4.0-8.56","true","57","1.7499999999999996","","",""
"2675.2000000029802","4","confid","","","html-slider-response-keyinput","493","396266","0.0-4.0-10.56-0.56","","","","Rate your confidence with the number keys or mouse and press Enter to submit","1",""
"563","i","choice","left","e","experimental","500","398601","0.0-4.0-8.57","false","58","1.7499999999999996","","",""
"2864.3999999910593","5","confid","","","html-slider-response-keyinput","502","401967","0.0-4.0-10.57-0.57","","","","Rate your confidence with the number keys or mouse and press Enter to submit","1",""
"311.8999999910593","e","choice","right","i","experimental","509","404050","0.0-4.0-8.58","false","59","1.8499999999999996","","",""
"2821.5999999940395","6","confid","","","html-slider-response-keyinput","511","407389","0.0-4.0-10.58-0.58","","","","Rate your confidence with the number keys or mouse and press Enter to submit","1",""
"196.59999999403954","i","choice","left","e","experimental","518","409358","0.0-4.0-8.59","false","60","1.9499999999999997","","",""
"3351.699999988079","4","confid","","","html-slider-response-keyinput","520","413212","0.0-4.0-10.59-0.59","","","","Rate your confidence with the number keys or mouse and press Enter to submit","1",""
"256.20000000298023","i","choice","left","e","experimental","527","415243","0.0-4.0-8.60","false","61","2.05","","",""
"3927","3","confid","","","html-slider-response-keyinput","529","419672","0.0-4.0-10.60-0.60","","","","Rate your confidence with the number keys or mouse and press Enter to submit","1",""
"285.20000000298023","i","choice","right","i","experimental","536","421730","0.0-4.0-8.61","true","62","2.15","","",""
"2832.3999999910593","6","confid","","","html-slider-response-keyinput","538","425065","0.0-4.0-10.61-0.61","","","","Rate your confidence with the number keys or mouse and press Enter to submit","1",""
"0.20000000298023224","i","choice","right","i","experimental","545","426841","0.0-4.0-8.62","true","63","2.15","","",""
"3453.9000000059605","4","confid","","","html-slider-response-keyinput","547","430798","0.0-4.0-10.62-0.62","","","","Rate your confidence with the number keys or mouse and press Enter to submit","1",""
"396.90000000596046","i","choice","left","e","experimental","554","432965","0.0-4.0-8.63","false","64","2.05","","",""
"2793.699999988079","2","confid","","","html-slider-response-keyinput","556","436263","0.0-4.0-10.63-0.63","","","","Rate your confidence with the number keys or mouse and press Enter to submit","1",""
"397.29999999701977","i","choice","right","i","experimental","563","438435","0.0-4.0-8.64","true","65","2.15","","",""
"2692.2999999970198","5","confid","","","html-slider-response-keyinput","565","441630","0.0-4.0-10.64-0.64","","","","Rate your confidence with the number keys or mouse and press Enter to submit","1",""
"396.70000000298023","e","choice","left","e","experimental","572","443800","0.0-4.0-8.65","true","66","2.15","","",""
"3404.8999999910593","5","confid","","","html-slider-response-keyinput","574","447709","0.0-4.0-10.65-0.65","","","","Rate your confidence with the number keys or mouse and press Enter to submit","1",""
"298.29999999701977","i","choice","left","e","experimental","581","449783","0.0-4.0-8.66","false","67","2.05","","",""
"2557.5","5","confid","","","html-slider-response-keyinput","583","452844","0.0-4.0-10.66-0.66","","","","Rate your confidence with the number keys or mouse and press Enter to submit","1",""
"348.79999999701977","i","choice","right","i","experimental","590","454966","0.0-4.0-8.67","true","68","2.15","","",""
"2722.5999999940395","3","confid","","","html-slider-response-keyinput","592","458191","0.0-4.0-10.67-0.67","","","","Rate your confidence with the number keys or mouse and press Enter to submit","1",""
"259.69999998807907","i","choice","right","i","experimental","600","479878","0.0-4.0-8.68","true","69","2.15","","",""
"2588.7000000029802","3","confid","","","html-slider-response-keyinput","602","482970","0.0-4.0-10.68-0.68","","","","Rate your confidence with the number keys or mouse and press Enter to submit","1",""
"726.2000000029802","e","choice","left","e","experimental","609","485468","0.0-4.0-8.69","true","70","2.05","","",""
"4095.4000000059605","1","confid","","","html-slider-response-keyinput","611","490066","0.0-4.0-10.69-0.69","","","","Rate your confidence with the number keys or mouse and press Enter to submit","1",""
"524.7999999970198","i","choice","right","i","experimental","618","492363","0.0-4.0-8.70","true","71","1.9499999999999997","","",""
"3563.4000000059605","3","confid","","","html-slider-response-keyinput","620","496430","0.0-4.0-10.70-0.70","","","","Rate your confidence with the number keys or mouse and press Enter to submit","1",""
"875.7000000029802","i","choice","left","e","experimental","627","499098","0.0-4.0-8.71","false","72","1.8499999999999996","","",""
"2526.4000000059605","2","confid","","","html-slider-response-keyinput","629","502127","0.0-4.0-10.71-0.71","","","","Rate your confidence with the number keys or mouse and press Enter to submit","1",""
"620","i","choice","right","i","experimental","636","504518","0.0-4.0-8.72","true","73","1.9499999999999997","","",""
"2685.5","2","confid","","","html-slider-response-keyinput","638","507706","0.0-4.0-10.72-0.72","","","","Rate your confidence with the number keys or mouse and press Enter to submit","1",""
"519.0999999940395","i","choice","left","e","experimental","645","509999","0.0-4.0-8.73","false","74","1.9499999999999997","","",""
"2909.800000011921","3","confid","","","html-slider-response-keyinput","647","513410","0.0-4.0-10.73-0.73","","","","Rate your confidence with the number keys or mouse and press Enter to submit","1",""
"114.69999998807907","e","choice","left","e","experimental","654","515300","0.0-4.0-8.74","true","75","2.05","","",""
"2575.6000000089407","3","confid","","","html-slider-response-keyinput","656","518378","0.0-4.0-10.74-0.74","","","","Rate your confidence with the number keys or mouse and press Enter to submit","1",""
"248.8999999910593","i","choice","right","i","experimental","663","520401","0.0-4.0-8.75","true","76","2.05","","",""
"2710","3","confid","","","html-slider-response-keyinput","665","523613","0.0-4.0-10.75-0.75","","","","Rate your confidence with the number keys or mouse and press Enter to submit","1",""
"419.70000000298023","i","choice","left","e","experimental","672","525803","0.0-4.0-8.76","false","77","1.9499999999999997","","",""
"2925.2999999970198","6","confid","","","html-slider-response-keyinput","674","529230","0.0-4.0-10.76-0.76","","","","Rate your confidence with the number keys or mouse and press Enter to submit","1",""
"690.5999999940395","i","choice","right","i","experimental","681","531694","0.0-4.0-8.77","true","78","2.05","","",""
"3163.7999999970198","1","confid","","","html-slider-response-keyinput","683","535361","0.0-4.0-10.77-0.77","","","","Rate your confidence with the number keys or mouse and press Enter to submit","1",""
"477.40000000596046","e","choice","left","e","experimental","690","537624","0.0-4.0-8.78","true","79","2.05","","",""
"2793.6000000089407","2","confid","","","html-slider-response-keyinput","692","540923","0.0-4.0-10.78-0.78","","","","Rate your confidence with the number keys or mouse and press Enter to submit","1",""
"553","i","choice","right","i","experimental","699","543247","0.0-4.0-8.79","true","80","1.9499999999999997","","",""
"3409.5999999940395","3","confid","","","html-slider-response-keyinput","701","547159","0.0-4.0-10.79-0.79","","","","Rate your confidence with the number keys or mouse and press Enter to submit","1",""
"1040.1000000089407","e","choice","right","i","experimental","708","549974","0.0-4.0-8.80","false","81","1.8499999999999996","","",""
"3375.9000000059605","2","confid","","","html-slider-response-keyinput","710","553852","0.0-4.0-10.80-0.80","","","","Rate your confidence with the number keys or mouse and press Enter to submit","1",""
"963.3000000119209","e","choice","left","e","experimental","717","556590","0.0-4.0-8.81","true","82","1.9499999999999997","","",""
"2337.4000000059605","2","confid","","","html-slider-response-keyinput","719","559432","0.0-4.0-10.81-0.81","","","","Rate your confidence with the number keys or mouse and press Enter to submit","1",""
"148.79999999701977","i","choice","right","i","experimental","726","561349","0.0-4.0-8.82","true","83","1.9499999999999997","","",""
"3246","2","confid","","","html-slider-response-keyinput","728","565098","0.0-4.0-10.82-0.82","","","","Rate your confidence with the number keys or mouse and press Enter to submit","1",""
"513.2999999970198","i","choice","left","e","experimental","735","567383","0.0-4.0-8.83","false","84","1.8499999999999996","","",""
"2986.8999999910593","3","confid","","","html-slider-response-keyinput","737","570872","0.0-4.0-10.83-0.83","","","","Rate your confidence with the number keys or mouse and press Enter to submit","1",""
"1110.699999988079","e","choice","left","e","experimental","744","573758","0.0-4.0-8.84","true","85","1.9499999999999997","","",""
"2084.5999999940395","2","confid","","","html-slider-response-keyinput","746","576347","0.0-4.0-10.84-0.84","","","","Rate your confidence with the number keys or mouse and press Enter to submit","1",""
"346.79999999701977","i","choice","right","i","experimental","753","578466","0.0-4.0-8.85","true","86","1.9499999999999997","","",""
"3228.5","5","confid","","","html-slider-response-keyinput","755","582197","0.0-4.0-10.85-0.85","","","","Rate your confidence with the number keys or mouse and press Enter to submit","1",""
"290.40000000596046","e","choice","left","e","experimental","762","584260","0.0-4.0-8.86","true","87","1.8499999999999996","","",""
"3213.9000000059605","2","confid","","","html-slider-response-keyinput","764","587978","0.0-4.0-10.86-0.86","","","","Rate your confidence with the number keys or mouse and press Enter to submit","1",""
"235","i","choice","right","i","experimental","771","589985","0.0-4.0-8.87","true","88","1.7499999999999996","","",""
"3483.0999999940395","2","confid","","","html-slider-response-keyinput","773","593970","0.0-4.0-10.87-0.87","","","","Rate your confidence with the number keys or mouse and press Enter to submit","1",""
"391.6000000089407","e","choice","right","i","experimental","780","596147","0.0-4.0-8.88","false","89","1.6499999999999995","","",""
"2655.0999999940395","3","confid","","","html-slider-response-keyinput","782","599305","0.0-4.0-10.88-0.88","","","","Rate your confidence with the number keys or mouse and press Enter to submit","1",""
"542.2000000029802","i","choice","left","e","experimental","789","601627","0.0-4.0-8.89","false","90","1.7499999999999996","","",""
"2595","2","confid","","","html-slider-response-keyinput","791","604726","0.0-4.0-10.89-0.89","","","","Rate your confidence with the number keys or mouse and press Enter to submit","1",""
"506.80000001192093","i","choice","right","i","experimental","798","607003","0.0-4.0-8.90","true","91","1.8499999999999996","","",""
"2998.7999999970198","5","confid","","","html-slider-response-keyinput","800","610504","0.0-4.0-10.90-0.90","","","","Rate your confidence with the number keys or mouse and press Enter to submit","1",""
"46.29999999701977","e","choice","left","e","experimental","807","612326","0.0-4.0-8.91","true","92","1.8499999999999996","","",""
"2996.5999999940395","4","confid","","","html-slider-response-keyinput","809","615824","0.0-4.0-10.91-0.91","","","","Rate your confidence with the number keys or mouse and press Enter to submit","1",""
"536.4000000059605","e","choice","left","e","experimental","816","618133","0.0-4.0-8.92","true","93","1.7499999999999996","","",""
"2710.5","6","confid","","","html-slider-response-keyinput","818","621346","0.0-4.0-10.92-0.92","","","","Rate your confidence with the number keys or mouse and press Enter to submit","1",""
"484.3999999910593","i","choice","right","i","experimental","825","623620","0.0-4.0-8.93","true","94","1.6499999999999995","","",""
"3194.5999999940395","2","confid","","","html-slider-response-keyinput","827","627316","0.0-4.0-10.93-0.93","","","","Rate your confidence with the number keys or mouse and press Enter to submit","1",""
"798.6999999880791","e","choice","left","e","experimental","834","629889","0.0-4.0-8.94","true","95","1.5499999999999994","","",""
"2828.699999988079","6","confid","","","html-slider-response-keyinput","836","633222","0.0-4.0-10.94-0.94","","","","Rate your confidence with the number keys or mouse and press Enter to submit","1",""
"324","e","choice","right","i","experimental","843","635319","0.0-4.0-8.95","false","96","1.4499999999999993","","",""
"2520.5","6","confid","","","html-slider-response-keyinput","845","638343","0.0-4.0-10.95-0.95","","","","Rate your confidence with the number keys or mouse and press Enter to submit","1",""
"564","e","choice","left","e","experimental","852","640678","0.0-4.0-8.96","true","97","1.5499999999999994","","",""
"2974.699999988079","5","confid","","","html-slider-response-keyinput","854","644155","0.0-4.0-10.96-0.96","","","","Rate your confidence with the number keys or mouse and press Enter to submit","1",""
"529.6000000089407","i","choice","right","i","experimental","861","646468","0.0-4.0-8.97","true","98","1.5499999999999994","","",""
"2275.7999999970198","3","confid","","","html-slider-response-keyinput","863","649246","0.0-4.0-10.97-0.97","","","","Rate your confidence with the number keys or mouse and press Enter to submit","1",""
"83.09999999403954","e","choice","right","i","experimental","870","651102","0.0-4.0-8.98","false","99","1.4499999999999993","","",""
"2811.5","6","confid","","","html-slider-response-keyinput","872","654416","0.0-4.0-10.98-0.98","","","","Rate your confidence with the number keys or mouse and press Enter to submit","1",""
"157.90000000596046","i","choice","left","e","experimental","879","656348","0.0-4.0-8.99","false","100","1.5499999999999994","","",""
"4355","2","confid","","","html-slider-response-keyinput","881","661207","0.0-4.0-10.99-0.99","","","","Rate your confidence with the number keys or mouse and press Enter to submit","1",""
"550.8000000119209","e","choice","left","e","experimental","888","663535","0.0-4.0-8.100","true","101","1.6499999999999995","","",""
"2483.4000000059605","6","confid","","","html-slider-response-keyinput","890","666521","0.0-4.0-10.100-0.100","","","","Rate your confidence with the number keys or mouse and press Enter to submit","1",""
"302.79999999701977","e","choice","right","i","experimental","897","668597","0.0-4.0-8.101","false","102","1.6499999999999995","","",""
"3036.7000000029802","4","confid","","","html-slider-response-keyinput","899","672136","0.0-4.0-10.101-0.101","","","","Rate your confidence with the number keys or mouse and press Enter to submit","1",""
"409.5","e","choice","right","i","experimental","906","674315","0.0-4.0-8.102","false","103","1.7499999999999996","","",""
"3114.7000000029802","3","confid","","","html-slider-response-keyinput","908","677934","0.0-4.0-10.102-0.102","","","","Rate your confidence with the number keys or mouse and press Enter to submit","1",""
"509.29999999701977","e","choice","left","e","experimental","915","680223","0.0-4.0-8.103","true","104","1.8499999999999996","","",""
"2482.6000000089407","2","confid","","","html-slider-response-keyinput","917","683210","0.0-4.0-10.103-0.103","","","","Rate your confidence with the number keys or mouse and press Enter to submit","1",""
"151.5","i","choice","left","e","experimental","924","685132","0.0-4.0-8.104","false","105","1.8499999999999996","","",""
"2679.8999999910593","6","confid","","","html-slider-response-keyinput","926","688315","0.0-4.0-10.104-0.104","","","","Rate your confidence with the number keys or mouse and press Enter to submit","1",""
"515.0999999940395","i","choice","right","i","experimental","933","690603","0.0-4.0-8.105","true","106","1.9499999999999997","","",""
"3528","5","confid","","","html-slider-response-keyinput","935","694634","0.0-4.0-10.105-0.105","","","","Rate your confidence with the number keys or mouse and press Enter to submit","1",""
"108.6000000089407","i","choice","right","i","experimental","942","696519","0.0-4.0-8.106","true","107","1.9499999999999997","","",""
"3183.5","2","confid","","","html-slider-response-keyinput","944","700206","0.0-4.0-10.106-0.106","","","","Rate your confidence with the number keys or mouse and press Enter to submit","1",""
"48.79999999701977","i","choice","left","e","experimental","951","702046","0.0-4.0-8.107","false","108","1.8499999999999996","","",""
"3471.5","5","confid","","","html-slider-response-keyinput","953","706021","0.0-4.0-10.107-0.107","","","","Rate your confidence with the number keys or mouse and press Enter to submit","1",""
"49.80000001192093","i","choice","right","i","experimental","960","707848","0.0-4.0-8.108","true","109","1.9499999999999997","","",""
"2605.2999999970198","6","confid","","","html-slider-response-keyinput","962","710956","0.0-4.0-10.108-0.108","","","","Rate your confidence with the number keys or mouse and press Enter to submit","1",""
"545.7999999970198","i","choice","left","e","experimental","969","713284","0.0-4.0-8.109","false","110","1.9499999999999997","","",""
"2751","4","confid","","","html-slider-response-keyinput","971","716550","0.0-4.0-10.109-0.109","","","","Rate your confidence with the number keys or mouse and press Enter to submit","1",""
"431.5","e","choice","right","i","experimental","979","950011","0.0-4.0-8.110","false","111","2.05","","",""
"2974.9000000059605","3","confid","","","html-slider-response-keyinput","981","953489","0.0-4.0-10.110-0.110","","","","Rate your confidence with the number keys or mouse and press Enter to submit","1",""
"327.19999998807907","e","choice","left","e","experimental","988","955601","0.0-4.0-8.111","true","112","2.15","","",""
"2618.4000000059605","6","confid","","","html-slider-response-keyinput","990","958722","0.0-4.0-10.111-0.111","","","","Rate your confidence with the number keys or mouse and press Enter to submit","1",""
"344","e","choice","right","i","experimental","997","960837","0.0-4.0-8.112","false","113","2.15","","",""
"2901.699999988079","4","confid","","","html-slider-response-keyinput","999","964252","0.0-4.0-10.112-0.112","","","","Rate your confidence with the number keys or mouse and press Enter to submit","1",""
"608.2000000029802","e","choice","left","e","experimental","1006","966634","0.0-4.0-8.113","true","114","2.25","","",""
"2813.7999999970198","3","confid","","","html-slider-response-keyinput","1008","969950","0.0-4.0-10.113-0.113","","","","Rate your confidence with the number keys or mouse and press Enter to submit","1",""
"518.7000000029802","e","choice","left","e","experimental","1015","972242","0.0-4.0-8.114","true","115","2.25","","",""
"3113.7999999970198","5","confid","","","html-slider-response-keyinput","1017","975859","0.0-4.0-10.114-0.114","","","","Rate your confidence with the number keys or mouse and press Enter to submit","1",""
"300.70000000298023","i","choice","right","i","experimental","1024","977932","0.0-4.0-8.115","true","116","2.15","","",""
"2858.8999999910593","3","confid","","","html-slider-response-keyinput","1026","981294","0.0-4.0-10.115-0.115","","","","Rate your confidence with the number keys or mouse and press Enter to submit","1",""
"409.40000000596046","e","choice","left","e","experimental","1033","983474","0.0-4.0-8.116","true","117","2.05","","",""
"3566.0999999940395","6","confid","","","html-slider-response-keyinput","1035","987543","0.0-4.0-10.116-0.116","","","","Rate your confidence with the number keys or mouse and press Enter to submit","1",""
"409.69999998807907","e","choice","right","i","experimental","1042","989724","0.0-4.0-8.117","false","118","1.9499999999999997","","",""
"2381","4","confid","","","html-slider-response-keyinput","1044","992608","0.0-4.0-10.117-0.117","","","","Rate your confidence with the number keys or mouse and press Enter to submit","1",""
"540.5999999940395","e","choice","right","i","experimental","1051","994923","0.0-4.0-8.118","false","119","2.05","","",""
"3028.2000000029802","3","confid","","","html-slider-response-keyinput","1053","998454","0.0-4.0-10.118-0.118","","","","Rate your confidence with the number keys or mouse and press Enter to submit","1",""
"27.100000008940697","e","choice","left","e","experimental","1060","1000255","0.0-4.0-8.119","true","120","2.15","","",""
"2634.7000000029802","6","confid","","","html-slider-response-keyinput","1062","1003392","0.0-4.0-10.119-0.119","","","","Rate your confidence with the number keys or mouse and press Enter to submit","1",""
"255.6000000089407","e","choice","right","i","experimental","1069","1005421","0.0-4.0-8.120","false","121","2.15","","",""
"3198","6","confid","","","html-slider-response-keyinput","1071","1009122","0.0-4.0-10.120-0.120","","","","Rate your confidence with the number keys or mouse and press Enter to submit","1",""
"17.100000008940697","e","choice","left","e","experimental","1078","1010910","0.0-4.0-8.121","true","122","2.25","","",""
"4310.899999991059","6","confid","","","html-slider-response-keyinput","1080","1015724","0.0-4.0-10.121-0.121","","","","Rate your confidence with the number keys or mouse and press Enter to submit","1",""
"1030.300000011921","i","choice","right","i","experimental","1087","1018522","0.0-4.0-8.122","true","123","2.25","","",""
"2704.6000000089407","5","confid","","","html-slider-response-keyinput","1089","1021730","0.0-4.0-10.122-0.122","","","","Rate your confidence with the number keys or mouse and press Enter to submit","1",""
"221.20000000298023","e","choice","left","e","experimental","1096","1023723","0.0-4.0-8.123","true","124","2.15","","",""
"3328.0999999940395","4","confid","","","html-slider-response-keyinput","1098","1027554","0.0-4.0-10.123-0.123","","","","Rate your confidence with the number keys or mouse and press Enter to submit","1",""
"347.09999999403954","e","choice","left","e","experimental","1105","1029673","0.0-4.0-8.124","true","125","2.05","","",""
"2890.2999999970198","6","confid","","","html-slider-response-keyinput","1107","1033065","0.0-4.0-10.124-0.124","","","","Rate your confidence with the number keys or mouse and press Enter to submit","1",""
"328.09999999403954","e","choice","right","i","experimental","1114","1035168","0.0-4.0-8.125","false","126","1.9499999999999997","","",""
"3191.9000000059605","6","confid","","","html-slider-response-keyinput","1116","1038862","0.0-4.0-10.125-0.125","","","","Rate your confidence with the number keys or mouse and press Enter to submit","1",""
"390.40000000596046","e","choice","right","i","experimental","1123","1041025","0.0-4.0-8.126","false","127","2.05","","",""
"2660.5999999940395","6","confid","","","html-slider-response-keyinput","1125","1044190","0.0-4.0-10.126-0.126","","","","Rate your confidence with the number keys or mouse and press Enter to submit","1",""
"374.20000000298023","e","choice","left","e","experimental","1132","1046348","0.0-4.0-8.127","true","128","2.15","","",""
"4557.29999999702","6","confid","","","html-slider-response-keyinput","1134","1051407","0.0-4.0-10.127-0.127","","","","Rate your confidence with the number keys or mouse and press Enter to submit","1",""
"277.09999999403954","e","choice","left","e","experimental","1141","1053456","0.0-4.0-8.128","true","129","2.15","","",""
"3026.0999999940395","4","confid","","","html-slider-response-keyinput","1143","1056984","0.0-4.0-10.128-0.128","","","","Rate your confidence with the number keys or mouse and press Enter to submit","1",""
"313.09999999403954","e","choice","right","i","experimental","1150","1059068","0.0-4.0-8.129","false","130","2.05","","",""
"2818.6000000089407","6","confid","","","html-slider-response-keyinput","1152","1062391","0.0-4.0-10.129-0.129","","","","Rate your confidence with the number keys or mouse and press Enter to submit","1",""
"302.79999999701977","e","choice","left","e","experimental","1159","1064466","0.0-4.0-8.130","true","131","2.15","","",""
"2887.7999999970198","5","confid","","","html-slider-response-keyinput","1161","1067857","0.0-4.0-10.130-0.130","","","","Rate your confidence with the number keys or mouse and press Enter to submit","1",""
"343.6000000089407","e","choice","right","i","experimental","1168","1069975","0.0-4.0-8.131","false","132","2.15","","",""
"2908.8999999910593","6","confid","","","html-slider-response-keyinput","1170","1073388","0.0-4.0-10.131-0.131","","","","Rate your confidence with the number keys or mouse and press Enter to submit","1",""
"274.40000000596046","e","choice","left","e","experimental","1177","1075456","0.0-4.0-8.132","true","133","2.25","","",""
"2698.6000000089407","3","confid","","","html-slider-response-keyinput","1179","1078658","0.0-4.0-10.132-0.132","","","","Rate your confidence with the number keys or mouse and press Enter to submit","1",""
"284.3999999910593","e","choice","right","i","experimental","1186","1080715","0.0-4.0-8.133","false","134","2.25","","",""
"2454.6000000089407","4","confid","","","html-slider-response-keyinput","1188","1083672","0.0-4.0-10.133-0.133","","","","Rate your confidence with the number keys or mouse and press Enter to submit","1",""
"381.90000000596046","i","choice","left","e","experimental","1195","1085835","0.0-4.0-8.134","false","135","2.35","","",""
"2368.2999999970198","4","confid","","","html-slider-response-keyinput","1197","1088706","0.0-4.0-10.134-0.134","","","","Rate your confidence with the number keys or mouse and press Enter to submit","1",""
"340.09999999403954","i","choice","right","i","experimental","1204","1090841","0.0-4.0-8.135","true","136","2.45","","",""
"2519.1000000089407","4","confid","","","html-slider-response-keyinput","1206","1093863","0.0-4.0-10.135-0.135","","","","Rate your confidence with the number keys or mouse and press Enter to submit","1",""
"300.30000001192093","e","choice","left","e","experimental","1213","1095935","0.0-4.0-8.136","true","137","2.45","","",""
"3791","2","confid","","","html-slider-response-keyinput","1215","1100229","0.0-4.0-10.136-0.136","","","","Rate your confidence with the number keys or mouse and press Enter to submit","1",""
"49.69999998807907","i","choice","right","i","experimental","1222","1102054","0.0-4.0-8.137","true","138","2.35","","",""
"2601.1000000089407","4","confid","","","html-slider-response-keyinput","1224","1105159","0.0-4.0-10.137-0.137","","","","Rate your confidence with the number keys or mouse and press Enter to submit","1",""
"116.29999999701977","e","choice","left","e","experimental","1231","1107048","0.0-4.0-8.138","true","139","2.25","","",""
"2531.9000000059605","3","confid","","","html-slider-response-keyinput","1233","1110088","0.0-4.0-10.138-0.138","","","","Rate your confidence with the number keys or mouse and press Enter to submit","1",""
"151.29999999701977","e","choice","right","i","experimental","1240","1112014","0.0-4.0-8.139","false","140","2.15","","",""
"2798.7999999970198","6","confid","","","html-slider-response-keyinput","1242","1115315","0.0-4.0-10.139-0.139","","","","Rate your confidence with the number keys or mouse and press Enter to submit","1",""
"487.90000000596046","i","choice","left","e","experimental","1249","1117576","0.0-4.0-8.140","false","141","2.25","","",""
"2543","6","confid","","","html-slider-response-keyinput","1251","1120622","0.0-4.0-10.140-0.140","","","","Rate your confidence with the number keys or mouse and press Enter to submit","1",""
"232.40000000596046","e","choice","right","i","experimental","1258","1122629","0.0-4.0-8.141","false","142","2.35","","",""
"2771.6000000089407","3","confid","","","html-slider-response-keyinput","1260","1125904","0.0-4.0-10.141-0.141","","","","Rate your confidence with the number keys or mouse and press Enter to submit","1",""
"250.59999999403954","i","choice","right","i","experimental","1267","1127932","0.0-4.0-8.142","true","143","2.45","","",""
"2601.7999999970198","2","confid","","","html-slider-response-keyinput","1269","1131035","0.0-4.0-10.142-0.142","","","","Rate your confidence with the number keys or mouse and press Enter to submit","1",""
"125.5","e","choice","left","e","experimental","1276","1132932","0.0-4.0-8.143","true","144","2.45","","",""
"2814.3999999910593","1","confid","","","html-slider-response-keyinput","1278","1136251","0.0-4.0-10.143-0.143","","","","Rate your confidence with the number keys or mouse and press Enter to submit","1",""
"85.3999999910593","e","choice","right","i","experimental","1285","1138118","0.0-4.0-8.144","false","145","2.35","","",""
"3079.8999999910593","1","confid","","","html-slider-response-keyinput","1287","1141701","0.0-4.0-10.144-0.144","","","","Rate your confidence with the number keys or mouse and press Enter to submit","1",""
"8.600000008940697","e","choice","left","e","experimental","1294","1143501","0.0-4.0-8.145","true","146","2.45","","",""
"2499.199999988079","2","confid","","","html-slider-response-keyinput","1296","1146503","0.0-4.0-10.145-0.145","","","","Rate your confidence with the number keys or mouse and press Enter to submit","1",""
"371.6000000089407","e","choice","right","i","experimental","1303","1148659","0.0-4.0-8.146","false","147","2.45","","",""
"2761","5","confid","","","html-slider-response-keyinput","1305","1151922","0.0-4.0-10.146-0.146","","","","Rate your confidence with the number keys or mouse and press Enter to submit","1",""
"199.79999999701977","i","choice","left","e","experimental","1312","1153896","0.0-4.0-8.147","false","148","2.5500000000000003","","",""
"2992","4","confid","","","html-slider-response-keyinput","1314","1157392","0.0-4.0-10.147-0.147","","","","Rate your confidence with the number keys or mouse and press Enter to submit","1",""
"54.099999994039536","i","choice","right","i","experimental","1321","1159227","0.0-4.0-8.148","true","149","2.6500000000000004","","",""
"2228.3999999910593","2","confid","","","html-slider-response-keyinput","1323","1161958","0.0-4.0-10.148-0.148","","","","Rate your confidence with the number keys or mouse and press Enter to submit","1",""
"277.59999999403954","i","choice","left","e","experimental","1330","1164008","0.0-4.0-8.149","false","150","2.6500000000000004","","",""
"2202.4000000059605","1","confid","","","html-slider-response-keyinput","1332","1166723","0.0-4.0-10.149-0.149","","","","Rate your confidence with the number keys or mouse and press Enter to submit","1",""
"241.29999999701977","i","choice","right","i","experimental","1339","1168734","0.0-4.0-8.150","true","151","2.7500000000000004","","",""
"2494.5","1","confid","","","html-slider-response-keyinput","1341","1171730","0.0-4.0-10.150-0.150","","","","Rate your confidence with the number keys or mouse and press Enter to submit","1",""
"387.1000000089407","e","choice","left","e","experimental","1348","1173892","0.0-4.0-8.151","true","152","2.7500000000000004","","",""
"2666.4000000059605","5","confid","","","html-slider-response-keyinput","1350","1177062","0.0-4.0-10.151-0.151","","","","Rate your confidence with the number keys or mouse and press Enter to submit","1",""
"259.40000000596046","e","choice","right","i","experimental","1358","1180363","0.0-4.0-8.152","false","153","2.6500000000000004","","",""
"2961.5999999940395","2","confid","","","html-slider-response-keyinput","1360","1183829","0.0-4.0-10.152-0.152","","","","Rate your confidence with the number keys or mouse and press Enter to submit","1",""
"91.20000000298023","e","choice","left","e","experimental","1367","1185694","0.0-4.0-8.153","true","154","2.7500000000000004","","",""
"2346.7999999970198","1","confid","","","html-slider-response-keyinput","1369","1188545","0.0-4.0-10.153-0.153","","","","Rate your confidence with the number keys or mouse and press Enter to submit","1",""
"145.5","i","choice","right","i","experimental","1376","1190465","0.0-4.0-8.154","true","155","2.7500000000000004","","",""
"3826.4000000059605","5","confid","","","html-slider-response-keyinput","1378","1194794","0.0-4.0-10.154-0.154","","","","Rate your confidence with the number keys or mouse and press Enter to submit","1",""
"4.600000008940697","e","choice","left","e","experimental","1385","1196589","0.0-4.0-8.155","true","156","2.6500000000000004","","",""
"3172.9000000059605","6","confid","","","html-slider-response-keyinput","1387","1200265","0.0-4.0-10.155-0.155","","","","Rate your confidence with the number keys or mouse and press Enter to submit","1",""
"74.29999999701977","e","choice","left","e","experimental","1394","1202115","0.0-4.0-8.156","true","157","2.5500000000000003","","",""
"2245","5","confid","","","html-slider-response-keyinput","1396","1204864","0.0-4.0-10.156-0.156","","","","Rate your confidence with the number keys or mouse and press Enter to submit","1",""
"139.59999999403954","i","choice","right","i","experimental","1403","1206791","0.0-4.0-8.157","true","158","2.45","","",""
"2596.4000000059605","5","confid","","","html-slider-response-keyinput","1405","1209891","0.0-4.0-10.157-0.157","","","","Rate your confidence with the number keys or mouse and press Enter to submit","1",""
"854.2000000029802","e","choice","left","e","experimental","1412","1212523","0.0-4.0-8.158","true","159","2.35","","",""
"2724","6","confid","","","html-slider-response-keyinput","1414","1215750","0.0-4.0-10.158-0.158","","","","Rate your confidence with the number keys or mouse and press Enter to submit","1",""
"583.6000000089407","i","choice","right","i","experimental","1421","1218103","0.0-4.0-8.159","true","160","2.25","","",""
"2596.699999988079","3","confid","","","html-slider-response-keyinput","1423","1221203","0.0-4.0-10.159-0.159","","","","Rate your confidence with the number keys or mouse and press Enter to submit","1",""
"413","e","choice","right","i","experimental","1430","1223391","0.0-4.0-8.160","false","161","2.15","","",""
"4339.800000011921","5","confid","","","html-slider-response-keyinput","1432","1228233","0.0-4.0-10.160-0.160","","","","Rate your confidence with the number keys or mouse and press Enter to submit","1",""
"33.900000005960464","i","choice","left","e","experimental","1439","1230044","0.0-4.0-8.161","false","162","2.25","","",""
"2507.2999999970198","3","confid","","","html-slider-response-keyinput","1441","1233054","0.0-4.0-10.161-0.161","","","","Rate your confidence with the number keys or mouse and press Enter to submit","1",""
"80.29999999701977","e","choice","left","e","experimental","1448","1234909","0.0-4.0-8.162","true","163","2.35","","",""
"2733.2000000029802","3","confid","","","html-slider-response-keyinput","1450","1238144","0.0-4.0-10.162-0.162","","","","Rate your confidence with the number keys or mouse and press Enter to submit","1",""
"46.1000000089407","e","choice","right","i","experimental","1457","1239964","0.0-4.0-8.163","false","164","2.35","","",""
"2759.8999999910593","2","confid","","","html-slider-response-keyinput","1459","1243226","0.0-4.0-10.163-0.163","","","","Rate your confidence with the number keys or mouse and press Enter to submit","1",""
"465","e","choice","right","i","experimental","1466","1245467","0.0-4.0-8.164","false","165","2.45","","",""
"2622.3999999910593","3","confid","","","html-slider-response-keyinput","1468","1248592","0.0-4.0-10.164-0.164","","","","Rate your confidence with the number keys or mouse and press Enter to submit","1",""
"12.799999997019768","e","choice","left","e","experimental","1475","1250384","0.0-4.0-8.165","true","166","2.5500000000000003","","",""
"3041.199999988079","2","confid","","","html-slider-response-keyinput","1477","1253928","0.0-4.0-10.165-0.165","","","","Rate your confidence with the number keys or mouse and press Enter to submit","1",""
"187.29999999701977","e","choice","left","e","experimental","1484","1255889","0.0-4.0-8.166","true","167","2.5500000000000003","","",""
"3975.3999999910593","3","confid","","","html-slider-response-keyinput","1486","1260373","0.0-4.0-10.166-0.166","","","","Rate your confidence with the number keys or mouse and press Enter to submit","1",""
"190.59999999403954","i","choice","right","i","experimental","1493","1262338","0.0-4.0-8.167","true","168","2.45","","",""
"2675.7999999970198","3","confid","","","html-slider-response-keyinput","1495","1265517","0.0-4.0-10.167-0.167","","","","Rate your confidence with the number keys or mouse and press Enter to submit","1",""
"950.7000000029802","e","choice","right","i","experimental","1502","1268243","0.0-4.0-8.168","false","169","2.35","","",""
"2753.2000000029802","2","confid","","","html-slider-response-keyinput","1504","1271501","0.0-4.0-10.168-0.168","","","","Rate your confidence with the number keys or mouse and press Enter to submit","1",""
"610.9000000059605","e","choice","left","e","experimental","1511","1273895","0.0-4.0-8.169","true","170","2.45","","",""
"2700.6000000089407","1","confid","","","html-slider-response-keyinput","1513","1277098","0.0-4.0-10.169-0.169","","","","Rate your confidence with the number keys or mouse and press Enter to submit","1",""
"240.70000000298023","e","choice","left","e","experimental","1520","1279109","0.0-4.0-8.170","true","171","2.45","","",""
"5735.4000000059605","3","confid","","","html-slider-response-keyinput","1522","1285351","0.0-4.0-10.170-0.170","","","","Rate your confidence with the number keys or mouse and press Enter to submit","1",""
"178.5","i","choice","right","i","experimental","1529","1287302","0.0-4.0-8.171","true","172","2.35","","",""
"2770","4","confid","","","html-slider-response-keyinput","1531","1290576","0.0-4.0-10.171-0.171","","","","Rate your confidence with the number keys or mouse and press Enter to submit","1",""
"342.59999999403954","e","choice","right","i","experimental","1538","1292694","0.0-4.0-8.172","false","173","2.25","","",""
"2494.800000011921","4","confid","","","html-slider-response-keyinput","1540","1295692","0.0-4.0-10.172-0.172","","","","Rate your confidence with the number keys or mouse and press Enter to submit","1",""
"112.79999999701977","e","choice","left","e","experimental","1547","1297592","0.0-4.0-8.173","true","174","2.35","","",""
"2193.8999999910593","3","confid","","","html-slider-response-keyinput","1549","1300288","0.0-4.0-10.173-0.173","","","","Rate your confidence with the number keys or mouse and press Enter to submit","1",""
"273.70000000298023","e","choice","left","e","experimental","1556","1302335","0.0-4.0-8.174","true","175","2.35","","",""
"2185","2","confid","","","html-slider-response-keyinput","1558","1305022","0.0-4.0-10.174-0.174","","","","Rate your confidence with the number keys or mouse and press Enter to submit","1",""
"190.40000000596046","i","choice","right","i","experimental","1565","1306996","0.0-4.0-8.175","true","176","2.25","","",""
"2449.7000000029802","2","confid","","","html-slider-response-keyinput","1567","1309950","0.0-4.0-10.175-0.175","","","","Rate your confidence with the number keys or mouse and press Enter to submit","1",""
"304.20000000298023","i","choice","right","i","experimental","1574","1312037","0.0-4.0-8.176","true","177","2.15","","",""
"2087.5","5","confid","","","html-slider-response-keyinput","1576","1314627","0.0-4.0-10.176-0.176","","","","Rate your confidence with the number keys or mouse and press Enter to submit","1",""
"257.20000000298023","e","choice","left","e","experimental","1583","1316667","0.0-4.0-8.177","true","178","2.05","","",""
"2208.5","3","confid","","","html-slider-response-keyinput","1585","1319379","0.0-4.0-10.177-0.177","","","","Rate your confidence with the number keys or mouse and press Enter to submit","1",""
"293.70000000298023","i","choice","right","i","experimental","1592","1321446","0.0-4.0-8.178","true","179","1.9499999999999997","","",""
"3711.7000000029802","4","confid","","","html-slider-response-keyinput","1594","1325660","0.0-4.0-10.178-0.178","","","","Rate your confidence with the number keys or mouse and press Enter to submit","1",""
"145.5","i","choice","left","e","experimental","1601","1327581","0.0-4.0-8.179","false","180","1.8499999999999996","","",""
"2712","2","confid","","","html-slider-response-keyinput","1603","1330797","0.0-4.0-10.179-0.179","","","","Rate your confidence with the number keys or mouse and press Enter to submit","1",""
"49.3999999910593","e","choice","left","e","experimental","1610","1332619","0.0-4.0-8.180","true","181","1.9499999999999997","","",""
"3414.300000011921","6","confid","","","html-slider-response-keyinput","1612","1336535","0.0-4.0-10.180-0.180","","","","Rate your confidence with the number keys or mouse and press Enter to submit","1",""
"86.79999999701977","i","choice","right","i","experimental","1619","1338397","0.0-4.0-8.181","true","182","1.9499999999999997","","",""
"2627","4","confid","","","html-slider-response-keyinput","1621","1341528","0.0-4.0-10.181-0.181","","","","Rate your confidence with the number keys or mouse and press Enter to submit","1",""
"225","e","choice","left","e","experimental","1628","1343528","0.0-4.0-8.182","true","183","1.8499999999999996","","",""
"2912.1000000089407","2","confid","","","html-slider-response-keyinput","1630","1346943","0.0-4.0-10.182-0.182","","","","Rate your confidence with the number keys or mouse and press Enter to submit","1",""
"73.29999999701977","i","choice","right","i","experimental","1637","1348796","0.0-4.0-8.183","true","184","1.7499999999999996","","",""
"3060.300000011921","2","confid","","","html-slider-response-keyinput","1639","1352359","0.0-4.0-10.183-0.183","","","","Rate your confidence with the number keys or mouse and press Enter to submit","1",""
"159.8999999910593","i","choice","left","e","experimental","1646","1354290","0.0-4.0-8.184","false","185","1.6499999999999995","","",""
"4035.5","1","confid","","","html-slider-response-keyinput","1648","1358828","0.0-4.0-10.184-0.184","","","","Rate your confidence with the number keys or mouse and press Enter to submit","1",""
"211.5","i","choice","right","i","experimental","1655","1360814","0.0-4.0-8.185","true","186","1.7499999999999996","","",""
"3369.0999999940395","2","confid","","","html-slider-response-keyinput","1657","1364687","0.0-4.0-10.185-0.185","","","","Rate your confidence with the number keys or mouse and press Enter to submit","1",""
"80.29999999701977","e","choice","left","e","experimental","1664","1366542","0.0-4.0-8.186","true","187","1.7499999999999996","","",""
"2376.9000000059605","5","confid","","","html-slider-response-keyinput","1666","1369423","0.0-4.0-10.186-0.186","","","","Rate your confidence with the number keys or mouse and press Enter to submit","1",""
"1062.3999999910593","i","choice","right","i","experimental","1673","1372259","0.0-4.0-8.187","true","188","1.6499999999999995","","",""
"2507.5","3","confid","","","html-slider-response-keyinput","1675","1375270","0.0-4.0-10.187-0.187","","","","Rate your confidence with the number keys or mouse and press Enter to submit","1",""
"110.90000000596046","e","choice","left","e","experimental","1682","1377153","0.0-4.0-8.188","true","189","1.5499999999999994","","",""
"2888.699999988079","2","confid","","","html-slider-response-keyinput","1684","1380547","0.0-4.0-10.188-0.188","","","","Rate your confidence with the number keys or mouse and press Enter to submit","1",""
"34.900000005960464","e","choice","right","i","experimental","1691","1382351","0.0-4.0-8.189","false","190","1.4499999999999993","","",""
"2853.6000000089407","3","confid","","","html-slider-response-keyinput","1693","1385708","0.0-4.0-10.189-0.189","","","","Rate your confidence with the number keys or mouse and press Enter to submit","1",""
"159.1000000089407","e","choice","right","i","experimental","1700","1387637","0.0-4.0-8.190","false","191","1.5499999999999994","","",""
"2450.2000000029802","3","confid","","","html-slider-response-keyinput","1702","1390591","0.0-4.0-10.190-0.190","","","","Rate your confidence with the number keys or mouse and press Enter to submit","1",""
"272.79999999701977","e","choice","left","e","experimental","1709","1392631","0.0-4.0-8.191","true","192","1.6499999999999995","","",""
"2378.7999999970198","5","confid","","","html-slider-response-keyinput","1711","1395513","0.0-4.0-10.191-0.191","","","","Rate your confidence with the number keys or mouse and press Enter to submit","1",""
"1041.2000000029802","e","choice","left","e","experimental","1718","1398325","0.0-4.0-8.192","true","193","1.6499999999999995","","",""
"2940.2999999970198","5","confid","","","html-slider-response-keyinput","1720","1401768","0.0-4.0-10.192-0.192","","","","Rate your confidence with the number keys or mouse and press Enter to submit","1",""
"391.5","e","choice","right","i","experimental","1727","1403937","0.0-4.0-8.193","false","194","1.5499999999999994","","",""
"2422.7999999970198","5","confid","","","html-slider-response-keyinput","1729","1406863","0.0-4.0-10.193-0.193","","","","Rate your confidence with the number keys or mouse and press Enter to submit","1","67794"
