"rt","response","task","target_side","correct_response","trial_type","trial_index","time_elapsed","internal_node_id","correct","trial_number","n_dots","stimulus","slider_start","participant"
"230.79999995231628","i","choice","left","e","practice","10","151203","0.0-4.0-8.0","false","1","4.25","","",""
"70.29999995231628","i","choice","right","i","practice","18","153624","0.0-4.0-8.1","true","2","4.65","","",""
"3167.699999809265","i","choice","right","i","practice","26","159130","0.0-4.0-8.2","true","3","4.65","","",""
"359.5","e","choice","left","e","practice","34","161829","0.0-4.0-8.3","true","4","4.25","","",""
"70.60000014305115","e","choice","left","e","practice","42","164247","0.0-4.0-8.4","true","5","4.25","","",""
"1013.6999998092651","i","choice","right","i","practice","50","167599","0.0-4.0-8.5","true","6","3.85","","",""
"898.2999999523163","e","choice","left","e","practice","58","170843","0.0-4.0-8.6","true","7","3.85","","",""
"58.90000009536743","i","choice","right","i","practice","66","173233","0.0-4.0-8.7","true","8","3.65","","",""
"241.79999995231628","i","choice","left","e","practice","74","175806","0.0-4.0-8.8","false","9","3.65","","",""
"100.90000009536743","i","choice","right","i","practice","82","178235","0.0-4.0-8.9","true","10","3.85","","",""
"74.40000009536743","i","choice","right","i","practice","90","180655","0.0-4.0-8.10","true","11","3.85","","",""
"201.5","e","choice","left","e","practice","98","183194","0.0-4.0-8.11","true","12","3.75","","",""
"76.89999985694885","e","choice","left","e","practice","106","185629","0.0-4.0-8.12","true","13","3.75","","",""
"868.8999998569489","i","choice","right","i","practice","114","188824","0.0-4.0-8.13","true","14","3.65","","",""
"77.89999985694885","e","choice","left","e","practice","122","191239","0.0-4.0-8.14","true","15","3.65","","",""
"677.2999999523163","i","choice","right","i","practice","130","194279","0.0-4.0-8.15","true","16","3.55","","",""
"818.3999998569489","i","choice","left","e","practice","138","197437","0.0-4.0-8.16","false","17","3.55","","",""
"35.200000047683716","i","choice","right","i","practice","146","199820","0.0-4.0-8.17","true","18","3.65","","",""
"516.8999998569489","e","choice","left","e","practice","154","202670","0.0-4.0-8.18","true","19","3.65","","",""
"483.5","i","choice","right","i","practice","162","205519","0.0-4.0-8.19","true","20","3.55","","",""
"89.90000009536743","e","choice","left","e","practice","170","207953","0.0-4.0-8.20","true","21","3.55","","",""
"220.60000014305115","i","choice","right","i","practice","178","210510","0.0-4.0-8.21","true","22","3.4499999999999997","","",""
"567.7000000476837","e","choice","left","e","practice","186","213405","0.0-4.0-8.22","true","23","3.4499999999999997","","",""
"26.700000047683716","i","choice","right","i","practice","194","215779","0.0-4.0-8.23","true","24","3.3499999999999996","","",""
"2548.5999999046326","i","choice","right","i","practice","202","220705","0.0-4.0-8.24","true","25","3.3499999999999996","","",""
"244","i","choice","left","e","practice","210","223297","0.0-4.0-8.25","false","26","3.2499999999999996","","",""
"940.5","i","choice","right","i","experimental","221","263936","0.0-4.0-8.26","true","27","3.3499999999999996","","",""
"10092.700000047684","5","confid","","","html-slider-response","223","274547","0.0-4.0-10.26-0.26","","","","Rate your confidence","1",""
"85","e","choice","left","e","experimental","230","276447","0.0-4.0-8.27","true","28","3.3499999999999996","","",""
"3769.5","4","confid","","","html-slider-response","232","280729","0.0-4.0-10.27-0.27","","","","Rate your confidence","1",""
"2115.2000000476837","e","choice","right","i","experimental","239","284670","0.0-4.0-8.28","false","29","3.2499999999999996","","",""
"4259.699999809265","3","confid","","","html-slider-response","241","289447","0.0-4.0-10.28-0.28","","","","Rate your confidence","1",""
"896.7999999523163","e","choice","left","e","experimental","248","292189","0.0-4.0-8.29","true","30","3.3499999999999996","","",""
"11402","4","confid","","","html-slider-response","250","304110","0.0-4.0-10.29-0.29","","","","Rate your confidence","1",""
"304.09999990463257","e","choice","left","e","experimental","257","306240","0.0-4.0-8.30","true","31","3.3499999999999996","","",""
"5763.100000143051","4","confid","","","html-slider-response","259","312511","0.0-4.0-10.30-0.30","","","","Rate your confidence","1",""
"1223.5999999046326","i","choice","right","i","experimental","266","315563","0.0-4.0-8.31","true","32","3.2499999999999996","","",""
"3061.5","5","confid","","","html-slider-response","268","319133","0.0-4.0-10.31-0.31","","","","Rate your confidence","1",""
"5.700000047683716","i","choice","right","i","experimental","275","320996","0.0-4.0-8.32","true","33","3.2499999999999996","","",""
"3575.0999999046326","5","confid","","","html-slider-response","277","325084","0.0-4.0-10.32-0.32","","","","Rate your confidence","1",""
"106.29999995231628","i","choice","left","e","experimental","284","327022","0.0-4.0-8.33","false","34","3.1499999999999995","","",""
"2798.2000000476837","5","confid","","","html-slider-response","286","330327","0.0-4.0-10.33-0.33","","","","Rate your confidence","1",""
"47.80000019073486","i","choice","right","i","experimental","293","332202","0.0-4.0-8.34","true","35","3.2499999999999996","","",""
"2948.7999999523163","5","confid","","","html-slider-response","295","335664","0.0-4.0-10.34-0.34","","","","Rate your confidence","1",""
"283.60000014305115","i","choice","left","e","experimental","302","337783","0.0-4.0-8.35","false","36","3.2499999999999996","","",""
"4549.899999856949","5","confid","","","html-slider-response","304","342851","0.0-4.0-10.35-0.35","","","","Rate your confidence","1",""
"348.39999985694885","i","choice","right","i","experimental","311","345032","0.0-4.0-8.36","true","37","3.3499999999999996","","",""
"2547.2000000476837","5","confid","","","html-slider-response","313","348089","0.0-4.0-10.36-0.36","","","","Rate your confidence","1",""
"119","e","choice","left","e","experimental","320","350019","0.0-4.0-8.37","true","38","3.3499999999999996","","",""
"2903.7999999523163","4","confid","","","html-slider-response","322","353430","0.0-4.0-10.37-0.37","","","","Rate your confidence","1",""
"1559","e","choice","left","e","experimental","329","356814","0.0-4.0-8.38","true","39","3.2499999999999996","","",""
"2726","3","confid","","","html-slider-response","331","360052","0.0-4.0-10.38-0.38","","","","Rate your confidence","1",""
"361.2000000476837","i","choice","right","i","experimental","338","362244","0.0-4.0-8.39","true","40","3.2499999999999996","","",""
"2745.9000000953674","5","confid","","","html-slider-response","340","365495","0.0-4.0-10.39-0.39","","","","Rate your confidence","1",""
"32.5","i","choice","right","i","experimental","347","367338","0.0-4.0-8.40","true","41","3.1499999999999995","","",""
"2691.5","5","confid","","","html-slider-response","349","370538","0.0-4.0-10.40-0.40","","","","Rate your confidence","1",""
"1117.6999998092651","e","choice","left","e","experimental","356","373465","0.0-4.0-8.41","true","42","3.1499999999999995","","",""
"2391.0999999046326","3","confid","","","html-slider-response","358","376364","0.0-4.0-10.41-0.41","","","","Rate your confidence","1",""
"525.1999998092651","i","choice","right","i","experimental","365","378736","0.0-4.0-8.42","true","43","3.0499999999999994","","",""
"4951.100000143051","4","confid","","","html-slider-response","367","384193","0.0-4.0-10.42-0.42","","","","Rate your confidence","1",""
"513.4000000953674","e","choice","left","e","experimental","374","386531","0.0-4.0-8.43","true","44","3.0499999999999994","","",""
"4684","4","confid","","","html-slider-response","376","391727","0.0-4.0-10.43-0.43","","","","Rate your confidence","1",""
"861.8999998569489","i","choice","left","e","experimental","383","394419","0.0-4.0-8.44","false","45","2.9499999999999993","","",""
"7953.599999904633","3","confid","","","html-slider-response","385","402880","0.0-4.0-10.44-0.44","","","","Rate your confidence","1",""
"916.6999998092651","i","choice","right","i","experimental","392","405635","0.0-4.0-8.45","true","46","3.0499999999999994","","",""
"3561.0999999046326","3","confid","","","html-slider-response","394","409702","0.0-4.0-10.45-0.45","","","","Rate your confidence","1",""
"590.6000001430511","i","choice","left","e","experimental","401","412115","0.0-4.0-8.46","false","47","3.0499999999999994","","",""
"2725.0999999046326","5","confid","","","html-slider-response","403","415349","0.0-4.0-10.46-0.46","","","","Rate your confidence","1",""
"918.0999999046326","i","choice","right","i","experimental","410","418100","0.0-4.0-8.47","true","48","3.1499999999999995","","",""
"2599.7999999523163","5","confid","","","html-slider-response","412","421210","0.0-4.0-10.47-0.47","","","","Rate your confidence","1",""
"385.5","i","choice","right","i","experimental","419","423449","0.0-4.0-8.48","true","49","3.1499999999999995","","",""
"3466","5","confid","","","html-slider-response","421","427426","0.0-4.0-10.48-0.48","","","","Rate your confidence","1",""
"1204.1999998092651","i","choice","left","e","experimental","428","430473","0.0-4.0-8.49","false","50","3.0499999999999994","","",""
"2806.5","3","confid","","","html-slider-response","430","433800","0.0-4.0-10.49-0.49","","","","Rate your confidence","1",""
"3564.2000000476837","i","choice","right","i","experimental","437","439206","0.0-4.0-8.50","true","51","3.1499999999999995","","",""
"4370.399999856949","4","confid","","","html-slider-response","439","444082","0.0-4.0-10.50-0.50","","","","Rate your confidence","1",""
"358.69999980926514","e","choice","left","e","experimental","446","446268","0.0-4.0-8.51","true","52","3.1499999999999995","","",""
"2849.5","3","confid","","","html-slider-response","448","449623","0.0-4.0-10.51-0.51","","","","Rate your confidence","1",""
"136.59999990463257","i","choice","right","i","experimental","455","451582","0.0-4.0-8.52","true","53","3.0499999999999994","","",""
"3404.7000000476837","5","confid","","","html-slider-response","457","455496","0.0-4.0-10.52-0.52","","","","Rate your confidence","1",""
"668","i","choice","left","e","experimental","464","458004","0.0-4.0-8.53","false","54","3.0499999999999994","","",""
"3257.399999856949","4","confid","","","html-slider-response","466","461767","0.0-4.0-10.53-0.53","","","","Rate your confidence","1",""
"2374.2999999523163","i","choice","right","i","experimental","473","465951","0.0-4.0-8.54","true","55","3.1499999999999995","","",""
"3215.2000000476837","3","confid","","","html-slider-response","475","469676","0.0-4.0-10.54-0.54","","","","Rate your confidence","1",""
"799.7999999523163","e","choice","left","e","experimental","482","472309","0.0-4.0-8.55","true","56","3.1499999999999995","","",""
"3273","6","confid","","","html-slider-response","484","476090","0.0-4.0-10.55-0.55","","","","Rate your confidence","1",""
"3517.699999809265","e","choice","left","e","experimental","491","481420","0.0-4.0-8.56","true","57","3.0499999999999994","","",""
"3919","3","confid","","","html-slider-response","493","485851","0.0-4.0-10.56-0.56","","","","Rate your confidence","1",""
"366.89999985694885","i","choice","right","i","experimental","500","488048","0.0-4.0-8.57","true","58","3.0499999999999994","","",""
"2236.7000000476837","4","confid","","","html-slider-response","502","490797","0.0-4.0-10.57-0.57","","","","Rate your confidence","1",""
"286.5","e","choice","left","e","experimental","509","492889","0.0-4.0-8.58","true","59","2.9499999999999993","","",""
"4458.200000047684","5","confid","","","html-slider-response","511","497857","0.0-4.0-10.58-0.58","","","","Rate your confidence","1",""
"1435.8999998569489","i","choice","right","i","experimental","518","501136","0.0-4.0-8.59","true","60","2.9499999999999993","","",""
"7675.299999952316","3","confid","","","html-slider-response","520","509321","0.0-4.0-10.59-0.59","","","","Rate your confidence","1",""
"674.7000000476837","i","choice","right","i","experimental","527","511835","0.0-4.0-8.60","true","61","2.849999999999999","","",""
"3981.2000000476837","3","confid","","","html-slider-response","529","516328","0.0-4.0-10.60-0.60","","","","Rate your confidence","1",""
"794.5","i","choice","left","e","experimental","536","518954","0.0-4.0-8.61","false","62","2.849999999999999","","",""
"2885.600000143051","3","confid","","","html-slider-response","538","522350","0.0-4.0-10.61-0.61","","","","Rate your confidence","1",""
"1029.5999999046326","i","choice","right","i","experimental","545","525223","0.0-4.0-8.62","true","63","2.9499999999999993","","",""
"4776.899999856949","4","confid","","","html-slider-response","547","530525","0.0-4.0-10.62-0.62","","","","Rate your confidence","1",""
"542.8999998569489","e","choice","left","e","experimental","554","532904","0.0-4.0-8.63","true","64","2.9499999999999993","","",""
"2861.399999856949","5","confid","","","html-slider-response","556","536275","0.0-4.0-10.63-0.63","","","","Rate your confidence","1",""
"1855.3999998569489","i","choice","right","i","experimental","563","539956","0.0-4.0-8.64","true","65","2.849999999999999","","",""
"5054.399999856949","2","confid","","","html-slider-response","565","545517","0.0-4.0-10.64-0.64","","","","Rate your confidence","1",""
"2930.199999809265","e","choice","left","e","experimental","572","550292","0.0-4.0-8.65","true","66","2.849999999999999","","",""
"3630.5","4","confid","","","html-slider-response","574","554428","0.0-4.0-10.65-0.65","","","","Rate your confidence","1",""
"2268.5","e","choice","left","e","experimental","581","558530","0.0-4.0-8.66","true","67","2.749999999999999","","",""
"6199.600000143051","3","confid","","","html-slider-response","583","565242","0.0-4.0-10.66-0.66","","","","Rate your confidence","1",""
"273.59999990463257","i","choice","right","i","experimental","590","567369","0.0-4.0-8.67","true","68","2.749999999999999","","",""
"2608.0999999046326","4","confid","","","html-slider-response","592","570486","0.0-4.0-10.67-0.67","","","","Rate your confidence","1",""
"1024.6999998092651","e","choice","left","e","experimental","600","595354","0.0-4.0-8.68","true","69","2.649999999999999","","",""
"3036.5999999046326","4","confid","","","html-slider-response","602","598899","0.0-4.0-10.68-0.68","","","","Rate your confidence","1",""
"814.5","i","choice","right","i","experimental","609","601540","0.0-4.0-8.69","true","70","2.649999999999999","","",""
"2638","3","confid","","","html-slider-response","611","604687","0.0-4.0-10.69-0.69","","","","Rate your confidence","1",""
"537.6000001430511","i","choice","right","i","experimental","618","607059","0.0-4.0-8.70","true","71","2.549999999999999","","",""
"5442.899999856949","5","confid","","","html-slider-response","620","613014","0.0-4.0-10.70-0.70","","","","Rate your confidence","1",""
"1365.1999998092651","e","choice","left","e","experimental","627","616203","0.0-4.0-8.71","true","72","2.549999999999999","","",""
"3695.100000143051","2","confid","","","html-slider-response","629","620412","0.0-4.0-10.71-0.71","","","","Rate your confidence","1",""
"382.5","i","choice","right","i","experimental","636","622617","0.0-4.0-8.72","true","73","2.449999999999999","","",""
"4025.2999999523163","4","confid","","","html-slider-response","638","627153","0.0-4.0-10.72-0.72","","","","Rate your confidence","1",""
"525.2999999523163","e","choice","left","e","experimental","645","629515","0.0-4.0-8.73","true","74","2.449999999999999","","",""
"2953.0999999046326","4","confid","","","html-slider-response","647","632979","0.0-4.0-10.73-0.73","","","","Rate your confidence","1",""
"1195.1000001430511","e","choice","right","i","experimental","654","636041","0.0-4.0-8.74","false","75","2.3499999999999988","","",""
"3014.2000000476837","3","confid","","","html-slider-response","656","639563","0.0-4.0-10.74-0.74","","","","Rate your confidence","1",""
"511.39999985694885","e","choice","left","e","experimental","663","641901","0.0-4.0-8.75","true","76","2.449999999999999","","",""
"2770.2000000476837","5","confid","","","html-slider-response","665","645181","0.0-4.0-10.75-0.75","","","","Rate your confidence","1",""
"605.5","e","choice","left","e","experimental","672","647620","0.0-4.0-8.76","true","77","2.449999999999999","","",""
"2521","5","confid","","","html-slider-response","674","650654","0.0-4.0-10.76-0.76","","","","Rate your confidence","1",""
"432.90000009536743","i","choice","right","i","experimental","681","652912","0.0-4.0-8.77","true","78","2.3499999999999988","","",""
"2799.2999999523163","5","confid","","","html-slider-response","683","656218","0.0-4.0-10.77-0.77","","","","Rate your confidence","1",""
"1762.4000000953674","e","choice","right","i","experimental","690","659825","0.0-4.0-8.78","false","79","2.3499999999999988","","",""
"2786.7000000476837","3","confid","","","html-slider-response","692","663119","0.0-4.0-10.78-0.78","","","","Rate your confidence","1",""
"311.40000009536743","e","choice","left","e","experimental","699","665270","0.0-4.0-8.79","true","80","2.449999999999999","","",""
"2795.7999999523163","5","confid","","","html-slider-response","701","668574","0.0-4.0-10.79-0.79","","","","Rate your confidence","1",""
"570.5999999046326","e","choice","right","i","experimental","708","670979","0.0-4.0-8.80","false","81","2.449999999999999","","",""
"3198","5","confid","","","html-slider-response","710","674702","0.0-4.0-10.80-0.80","","","","Rate your confidence","1",""
"503.5","e","choice","left","e","experimental","717","677054","0.0-4.0-8.81","true","82","2.549999999999999","","",""
"2777","5","confid","","","html-slider-response","719","680339","0.0-4.0-10.81-0.81","","","","Rate your confidence","1",""
"945.2000000476837","e","choice","left","e","experimental","726","683125","0.0-4.0-8.82","true","83","2.549999999999999","","",""
"6698.599999904633","5","confid","","","html-slider-response","728","690328","0.0-4.0-10.82-0.82","","","","Rate your confidence","1",""
"4669.099999904633","e","choice","right","i","experimental","735","696836","0.0-4.0-8.83","false","84","2.449999999999999","","",""
"4661.5","2","confid","","","html-slider-response","737","702009","0.0-4.0-10.83-0.83","","","","Rate your confidence","1",""
"3123.2000000476837","e","choice","left","e","experimental","744","706972","0.0-4.0-8.84","true","85","2.549999999999999","","",""
"3441.7000000476837","2","confid","","","html-slider-response","746","710922","0.0-4.0-10.84-0.84","","","","Rate your confidence","1",""
"1876.8000001907349","e","choice","right","i","experimental","753","714611","0.0-4.0-8.85","false","86","2.549999999999999","","",""
"3480.399999856949","2","confid","","","html-slider-response","755","718610","0.0-4.0-10.85-0.85","","","","Rate your confidence","1",""
"1696","e","choice","right","i","experimental","762","722127","0.0-4.0-8.86","false","87","2.649999999999999","","",""
"3390.399999856949","2","confid","","","html-slider-response","764","726023","0.0-4.0-10.86-0.86","","","","Rate your confidence","1",""
"1572.9000000953674","e","choice","left","e","experimental","771","729438","0.0-4.0-8.87","true","88","2.749999999999999","","",""
"2858.100000143051","3","confid","","","html-slider-response","773","732805","0.0-4.0-10.87-0.87","","","","Rate your confidence","1",""
"1980.7000000476837","e","choice","left","e","experimental","780","736633","0.0-4.0-8.88","true","89","2.749999999999999","","",""
"3600.600000143051","3","confid","","","html-slider-response","782","740748","0.0-4.0-10.88-0.88","","","","Rate your confidence","1",""
"645.9000000953674","e","choice","right","i","experimental","789","743217","0.0-4.0-8.89","false","90","2.649999999999999","","",""
"2925","5","confid","","","html-slider-response","791","746656","0.0-4.0-10.89-0.89","","","","Rate your confidence","1",""
"573.7999999523163","e","choice","left","e","experimental","798","749039","0.0-4.0-8.90","true","91","2.749999999999999","","",""
"3004.7999999523163","4","confid","","","html-slider-response","800","752552","0.0-4.0-10.90-0.90","","","","Rate your confidence","1",""
"1676","i","choice","right","i","experimental","807","756055","0.0-4.0-8.91","true","92","2.749999999999999","","",""
"3586","3","confid","","","html-slider-response","809","760155","0.0-4.0-10.91-0.91","","","","Rate your confidence","1",""
"241.39999985694885","e","choice","left","e","experimental","816","762244","0.0-4.0-8.92","true","93","2.649999999999999","","",""
"3095.5","5","confid","","","html-slider-response","818","765845","0.0-4.0-10.92-0.92","","","","Rate your confidence","1",""
"657.4000000953674","i","choice","right","i","experimental","825","768331","0.0-4.0-8.93","true","94","2.649999999999999","","",""
"5311.700000047684","6","confid","","","html-slider-response","827","774158","0.0-4.0-10.93-0.93","","","","Rate your confidence","1",""
"361.7999999523163","e","choice","left","e","experimental","834","776354","0.0-4.0-8.94","true","95","2.549999999999999","","",""
"6889.399999856949","5","confid","","","html-slider-response","836","783753","0.0-4.0-10.94-0.94","","","","Rate your confidence","1",""
"2405.2000000476837","i","choice","right","i","experimental","843","787990","0.0-4.0-8.95","true","96","2.549999999999999","","",""
"4077.7000000476837","2","confid","","","html-slider-response","845","792581","0.0-4.0-10.95-0.95","","","","Rate your confidence","1",""
"869.5999999046326","e","choice","left","e","experimental","852","795295","0.0-4.0-8.96","true","97","2.449999999999999","","",""
"3117.5","2","confid","","","html-slider-response","854","798918","0.0-4.0-10.96-0.96","","","","Rate your confidence","1",""
"508.40000009536743","i","choice","right","i","experimental","861","801257","0.0-4.0-8.97","true","98","2.449999999999999","","",""
"3710.9000000953674","5","confid","","","html-slider-response","863","805477","0.0-4.0-10.97-0.97","","","","Rate your confidence","1",""
"1144.0999999046326","e","choice","right","i","experimental","870","808466","0.0-4.0-8.98","false","99","2.3499999999999988","","",""
"3652.9000000953674","5","confid","","","html-slider-response","872","812631","0.0-4.0-10.98-0.98","","","","Rate your confidence","1",""
"509.7000000476837","e","choice","left","e","experimental","879","814962","0.0-4.0-8.99","true","100","2.449999999999999","","",""
"3041.5","6","confid","","","html-slider-response","881","818518","0.0-4.0-10.99-0.99","","","","Rate your confidence","1",""
"1188.1000001430511","i","choice","right","i","experimental","888","821539","0.0-4.0-8.100","true","101","2.449999999999999","","",""
"4091.7000000476837","5","confid","","","html-slider-response","890","826140","0.0-4.0-10.100-0.100","","","","Rate your confidence","1",""
"98.10000014305115","e","choice","left","e","experimental","897","828070","0.0-4.0-8.101","true","102","2.3499999999999988","","",""
"8408.100000143051","5","confid","","","html-slider-response","899","836995","0.0-4.0-10.101-0.101","","","","Rate your confidence","1",""
"1747","e","choice","left","e","experimental","906","840580","0.0-4.0-8.102","true","103","2.3499999999999988","","",""
"6352.899999856949","3","confid","","","html-slider-response","908","847460","0.0-4.0-10.102-0.102","","","","Rate your confidence","1",""
"1546.5999999046326","e","choice","right","i","experimental","915","850846","0.0-4.0-8.103","false","104","2.2499999999999987","","",""
"3352.7000000476837","4","confid","","","html-slider-response","917","854712","0.0-4.0-10.103-0.103","","","","Rate your confidence","1",""
"1662.2999999523163","i","choice","right","i","experimental","924","858195","0.0-4.0-8.104","true","105","2.3499999999999988","","",""
"8568.900000095367","4","confid","","","html-slider-response","926","867276","0.0-4.0-10.104-0.104","","","","Rate your confidence","1",""
"372.7000000476837","e","choice","left","e","experimental","933","869489","0.0-4.0-8.105","true","106","2.3499999999999988","","",""
"3410.5999999046326","4","confid","","","html-slider-response","935","873416","0.0-4.0-10.105-0.105","","","","Rate your confidence","1",""
"1188.7999999523163","e","choice","right","i","experimental","942","876445","0.0-4.0-8.106","false","107","2.2499999999999987","","",""
"5041.700000047684","3","confid","","","html-slider-response","944","881991","0.0-4.0-10.106-0.106","","","","Rate your confidence","1",""
"67.79999995231628","e","choice","left","e","experimental","951","883902","0.0-4.0-8.107","true","108","2.3499999999999988","","",""
"2639.899999856949","5","confid","","","html-slider-response","953","887071","0.0-4.0-10.107-0.107","","","","Rate your confidence","1",""
"310.7999999523163","i","choice","left","e","experimental","960","889205","0.0-4.0-8.108","false","109","2.3499999999999988","","",""
"3664.100000143051","4","confid","","","html-slider-response","962","893382","0.0-4.0-10.108-0.108","","","","Rate your confidence","1",""
"478.90000009536743","i","choice","right","i","experimental","969","895742","0.0-4.0-8.109","true","110","2.449999999999999","","",""
"3715","5","confid","","","html-slider-response","971","899970","0.0-4.0-10.109-0.109","","","","Rate your confidence","1",""
"104.10000014305115","i","choice","right","i","experimental","979","1010482","0.0-4.0-8.110","true","111","2.449999999999999","","",""
"8138.700000047684","5","confid","","","html-slider-response","981","1019135","0.0-4.0-10.110-0.110","","","","Rate your confidence","1",""
"373","e","choice","left","e","experimental","988","1021353","0.0-4.0-8.111","true","112","2.3499999999999988","","",""
"4545.799999952316","5","confid","","","html-slider-response","990","1026414","0.0-4.0-10.111-0.111","","","","Rate your confidence","1",""
"249.19999980926514","i","choice","right","i","experimental","997","1028503","0.0-4.0-8.112","true","113","2.3499999999999988","","",""
"7871.400000095367","5","confid","","","html-slider-response","999","1036888","0.0-4.0-10.112-0.112","","","","Rate your confidence","1",""
"2338.2999999523163","e","choice","left","e","experimental","1006","1041079","0.0-4.0-8.113","true","114","2.2499999999999987","","",""
"6255.5","1","confid","","","html-slider-response","1008","1047842","0.0-4.0-10.113-0.113","","","","Rate your confidence","1",""
"543.3999998569489","e","choice","left","e","experimental","1015","1050251","0.0-4.0-8.114","true","115","2.2499999999999987","","",""
"8598.599999904633","5","confid","","","html-slider-response","1017","1059362","0.0-4.0-10.114-0.114","","","","Rate your confidence","1",""
"518.5","e","choice","right","i","experimental","1024","1061703","0.0-4.0-8.115","false","116","2.1499999999999986","","",""
"3262","4","confid","","","html-slider-response","1026","1065479","0.0-4.0-10.115-0.115","","","","Rate your confidence","1",""
"489.7000000476837","i","choice","right","i","experimental","1033","1067815","0.0-4.0-8.116","true","117","2.2499999999999987","","",""
"2875.5","5","confid","","","html-slider-response","1035","1071196","0.0-4.0-10.116-0.116","","","","Rate your confidence","1",""
"315.7999999523163","i","choice","left","e","experimental","1042","1073337","0.0-4.0-8.117","false","118","2.2499999999999987","","",""
"4550.400000095367","5","confid","","","html-slider-response","1044","1078399","0.0-4.0-10.117-0.117","","","","Rate your confidence","1",""
"46.299999952316284","i","choice","right","i","experimental","1051","1080287","0.0-4.0-8.118","true","119","2.3499999999999988","","",""
"2973.2000000476837","5","confid","","","html-slider-response","1053","1083780","0.0-4.0-10.118-0.118","","","","Rate your confidence","1",""
"799.7999999523163","e","choice","left","e","experimental","1060","1086445","0.0-4.0-8.119","true","120","2.3499999999999988","","",""
"3363.7000000476837","4","confid","","","html-slider-response","1062","1090319","0.0-4.0-10.119-0.119","","","","Rate your confidence","1",""
"800.2999999523163","e","choice","left","e","experimental","1069","1092966","0.0-4.0-8.120","true","121","2.2499999999999987","","",""
"4290.700000047684","4","confid","","","html-slider-response","1071","1097762","0.0-4.0-10.120-0.120","","","","Rate your confidence","1",""
"79.59999990463257","i","choice","right","i","experimental","1078","1099679","0.0-4.0-8.121","true","122","2.2499999999999987","","",""
"3023.4000000953674","4","confid","","","html-slider-response","1080","1103211","0.0-4.0-10.121-0.121","","","","Rate your confidence","1",""
"418.60000014305115","i","choice","left","e","experimental","1087","1105462","0.0-4.0-8.122","false","123","2.1499999999999986","","",""
"7934.200000047684","6","confid","","","html-slider-response","1089","1113908","0.0-4.0-10.122-0.122","","","","Rate your confidence","1",""
"925.9000000953674","i","choice","right","i","experimental","1096","1116670","0.0-4.0-8.123","true","124","2.2499999999999987","","",""
"3130.399999856949","3","confid","","","html-slider-response","1098","1120312","0.0-4.0-10.123-0.123","","","","Rate your confidence","1",""
"485.40000009536743","i","choice","right","i","experimental","1105","1122631","0.0-4.0-8.124","true","125","2.2499999999999987","","",""
"3359.9000000953674","5","confid","","","html-slider-response","1107","1126501","0.0-4.0-10.124-0.124","","","","Rate your confidence","1",""
"975.7000000476837","e","choice","left","e","experimental","1114","1129314","0.0-4.0-8.125","true","126","2.1499999999999986","","",""
"3051.300000190735","3","confid","","","html-slider-response","1116","1132877","0.0-4.0-10.125-0.125","","","","Rate your confidence","1",""
"646.1000001430511","i","choice","right","i","experimental","1123","1135366","0.0-4.0-8.126","true","127","2.1499999999999986","","",""
"3949.199999809265","3","confid","","","html-slider-response","1125","1139820","0.0-4.0-10.126-0.126","","","","Rate your confidence","1",""
"2592.2000000476837","e","choice","left","e","experimental","1132","1144241","0.0-4.0-8.127","true","128","2.0499999999999985","","",""
"4859.400000095367","1","confid","","","html-slider-response","1134","1149618","0.0-4.0-10.127-0.127","","","","Rate your confidence","1",""
"2990.0999999046326","e","choice","left","e","experimental","1141","1154434","0.0-4.0-8.128","true","129","2.0499999999999985","","",""
"3538.7000000476837","2","confid","","","html-slider-response","1143","1158481","0.0-4.0-10.128-0.128","","","","Rate your confidence","1",""
"1198.6000001430511","e","choice","right","i","experimental","1150","1161506","0.0-4.0-8.129","false","130","1.9499999999999984","","",""
"2661.7999999523163","2","confid","","","html-slider-response","1152","1164693","0.0-4.0-10.129-0.129","","","","Rate your confidence","1",""
"1054.3999998569489","i","choice","right","i","experimental","1159","1167561","0.0-4.0-8.130","true","131","2.0499999999999985","","",""
"3073.399999856949","3","confid","","","html-slider-response","1161","1171150","0.0-4.0-10.130-0.130","","","","Rate your confidence","1",""
"1910.4000000953674","e","choice","left","e","experimental","1168","1174915","0.0-4.0-8.131","true","132","2.0499999999999985","","",""
"4637.399999856949","2","confid","","","html-slider-response","1170","1180060","0.0-4.0-10.131-0.131","","","","Rate your confidence","1",""
"588.7999999523163","i","choice","left","e","experimental","1177","1182496","0.0-4.0-8.132","false","133","1.9499999999999984","","",""
"3402.2000000476837","4","confid","","","html-slider-response","1179","1186408","0.0-4.0-10.132-0.132","","","","Rate your confidence","1",""
"1315.5","e","choice","right","i","experimental","1186","1189546","0.0-4.0-8.133","false","134","2.0499999999999985","","",""
"3633","2","confid","","","html-slider-response","1188","1193689","0.0-4.0-10.133-0.133","","","","Rate your confidence","1",""
"1103.0999999046326","e","choice","left","e","experimental","1195","1196632","0.0-4.0-8.134","true","135","2.1499999999999986","","",""
"3096.899999856949","4","confid","","","html-slider-response","1197","1200242","0.0-4.0-10.134-0.134","","","","Rate your confidence","1",""
"844.1999998092651","i","choice","right","i","experimental","1204","1202953","0.0-4.0-8.135","true","136","2.1499999999999986","","",""
"5827.599999904633","2","confid","","","html-slider-response","1206","1209287","0.0-4.0-10.135-0.135","","","","Rate your confidence","1",""
"330.2000000476837","e","choice","left","e","experimental","1213","1211455","0.0-4.0-8.136","true","137","2.0499999999999985","","",""
"2824.7999999523163","5","confid","","","html-slider-response","1215","1214799","0.0-4.0-10.136-0.136","","","","Rate your confidence","1",""
"1133.6999998092651","e","choice","right","i","experimental","1222","1217764","0.0-4.0-8.137","false","138","2.0499999999999985","","",""
"3786.5","3","confid","","","html-slider-response","1224","1222061","0.0-4.0-10.137-0.137","","","","Rate your confidence","1",""
"592.1000001430511","e","choice","left","e","experimental","1231","1224500","0.0-4.0-8.138","true","139","2.1499999999999986","","",""
"5179.299999952316","3","confid","","","html-slider-response","1233","1230190","0.0-4.0-10.138-0.138","","","","Rate your confidence","1",""
"346.2000000476837","i","choice","right","i","experimental","1240","1232376","0.0-4.0-8.139","true","140","2.1499999999999986","","",""
"7054.900000095367","5","confid","","","html-slider-response","1242","1239940","0.0-4.0-10.139-0.139","","","","Rate your confidence","1",""
"76.20000004768372","e","choice","left","e","experimental","1249","1241856","0.0-4.0-8.140","true","141","2.0499999999999985","","",""
"3304.4000000953674","6","confid","","","html-slider-response","1251","1245670","0.0-4.0-10.140-0.140","","","","Rate your confidence","1",""
"1057.2000000476837","i","choice","right","i","experimental","1258","1248566","0.0-4.0-8.141","true","142","2.0499999999999985","","",""
"3106","2","confid","","","html-slider-response","1260","1252179","0.0-4.0-10.141-0.141","","","","Rate your confidence","1",""
"487.5","e","choice","left","e","experimental","1267","1254533","0.0-4.0-8.142","true","143","1.9499999999999984","","",""
"3981.7999999523163","5","confid","","","html-slider-response","1269","1259030","0.0-4.0-10.142-0.142","","","","Rate your confidence","1",""
"681.5","i","choice","right","i","experimental","1276","1261541","0.0-4.0-8.143","true","144","1.9499999999999984","","",""
"3544.899999856949","5","confid","","","html-slider-response","1278","1265600","0.0-4.0-10.143-0.143","","","","Rate your confidence","1",""
"1429.9000000953674","e","choice","left","e","experimental","1285","1268860","0.0-4.0-8.144","true","145","1.8499999999999983","","",""
"3676","2","confid","","","html-slider-response","1287","1273055","0.0-4.0-10.144-0.144","","","","Rate your confidence","1",""
"169","i","choice","right","i","experimental","1294","1275068","0.0-4.0-8.145","true","146","1.8499999999999983","","",""
"3208.5","6","confid","","","html-slider-response","1296","1278783","0.0-4.0-10.145-0.145","","","","Rate your confidence","1",""
"1620.4000000953674","i","choice","left","e","experimental","1303","1282250","0.0-4.0-8.146","false","147","1.7499999999999982","","",""
"3379.199999809265","2","confid","","","html-slider-response","1305","1286140","0.0-4.0-10.146-0.146","","","","Rate your confidence","1",""
"109.60000014305115","i","choice","right","i","experimental","1312","1288086","0.0-4.0-8.147","true","148","1.8499999999999983","","",""
"3400.7000000476837","4","confid","","","html-slider-response","1314","1292002","0.0-4.0-10.147-0.147","","","","Rate your confidence","1",""
"375.89999985694885","i","choice","left","e","experimental","1321","1294208","0.0-4.0-8.148","false","149","1.8499999999999983","","",""
"15581.900000095367","3","confid","","","html-slider-response","1323","1310322","0.0-4.0-10.148-0.148","","","","Rate your confidence","1",""
"3198.2999999523163","e","choice","right","i","experimental","1330","1315352","0.0-4.0-8.149","false","150","1.9499999999999984","","",""
"2528.100000143051","3","confid","","","html-slider-response","1332","1318386","0.0-4.0-10.149-0.149","","","","Rate your confidence","1",""
"4616.700000047684","i","choice","right","i","experimental","1339","1324827","0.0-4.0-8.150","true","151","2.0499999999999985","","",""
"5587.599999904633","2","confid","","","html-slider-response","1341","1330922","0.0-4.0-10.150-0.150","","","","Rate your confidence","1",""
"805.3999998569489","i","choice","left","e","experimental","1348","1333583","0.0-4.0-8.151","false","152","2.0499999999999985","","",""
"2956.5999999046326","3","confid","","","html-slider-response","1350","1337051","0.0-4.0-10.151-0.151","","","","Rate your confidence","1",""
"723.3999998569489","e","choice","left","e","experimental","1358","1643783","0.0-4.0-8.152","true","153","2.1499999999999986","","",""
"7447.5","3","confid","","","html-slider-response","1360","1651740","0.0-4.0-10.152-0.152","","","","Rate your confidence","1",""
"3037.7999999523163","i","choice","right","i","experimental","1367","1656611","0.0-4.0-8.153","true","154","2.1499999999999986","","",""
"4312.400000095367","3","confid","","","html-slider-response","1369","1661430","0.0-4.0-10.153-0.153","","","","Rate your confidence","1",""
"728.2000000476837","e","choice","right","i","experimental","1376","1663966","0.0-4.0-8.154","false","155","2.0499999999999985","","",""
"10841.900000095367","3","confid","","","html-slider-response","1378","1675317","0.0-4.0-10.154-0.154","","","","Rate your confidence","1",""
"920.7999999523163","e","choice","left","e","experimental","1385","1678110","0.0-4.0-8.155","true","156","2.1499999999999986","","",""
"6502.599999904633","4","confid","","","html-slider-response","1387","1685125","0.0-4.0-10.155-0.155","","","","Rate your confidence","1",""
"558.2000000476837","e","choice","left","e","experimental","1394","1687520","0.0-4.0-8.156","true","157","2.1499999999999986","","",""
"3690.5","5","confid","","","html-slider-response","1396","1691722","0.0-4.0-10.156-0.156","","","","Rate your confidence","1",""
"313.40000009536743","e","choice","right","i","experimental","1403","1693889","0.0-4.0-8.157","false","158","2.0499999999999985","","",""
"2759","5","confid","","","html-slider-response","1405","1697163","0.0-4.0-10.157-0.157","","","","Rate your confidence","1",""
"385.10000014305115","i","choice","right","i","experimental","1412","1699368","0.0-4.0-8.158","true","159","2.1499999999999986","","",""
"4343.699999809265","5","confid","","","html-slider-response","1414","1704222","0.0-4.0-10.158-0.158","","","","Rate your confidence","1",""
"518.7000000476837","e","choice","left","e","experimental","1421","1706584","0.0-4.0-8.159","true","160","2.1499999999999986","","",""
"7765.400000095367","4","confid","","","html-slider-response","1423","1714861","0.0-4.0-10.159-0.159","","","","Rate your confidence","1",""
"2790.9000000953674","e","choice","right","i","experimental","1430","1719492","0.0-4.0-8.160","false","161","2.0499999999999985","","",""
"3654.7999999523163","2","confid","","","html-slider-response","1432","1723658","0.0-4.0-10.160-0.160","","","","Rate your confidence","1",""
"663.8999998569489","e","choice","left","e","experimental","1439","1726166","0.0-4.0-8.161","true","162","2.1499999999999986","","",""
"5167.5","4","confid","","","html-slider-response","1441","1731839","0.0-4.0-10.161-0.161","","","","Rate your confidence","1",""
"630.1000001430511","i","choice","right","i","experimental","1448","1734321","0.0-4.0-8.162","true","163","2.1499999999999986","","",""
"5415.5","4","confid","","","html-slider-response","1450","1740258","0.0-4.0-10.162-0.162","","","","Rate your confidence","1",""
"1181","e","choice","left","e","experimental","1457","1743256","0.0-4.0-8.163","true","164","2.0499999999999985","","",""
"4672.700000047684","4","confid","","","html-slider-response","1459","1748444","0.0-4.0-10.163-0.163","","","","Rate your confidence","1",""
"746.2999999523163","i","choice","right","i","experimental","1466","1751037","0.0-4.0-8.164","true","165","2.0499999999999985","","",""
"4661.799999952316","3","confid","","","html-slider-response","1468","1756210","0.0-4.0-10.164-0.164","","","","Rate your confidence","1",""
"475.69999980926514","e","choice","left","e","experimental","1475","1758536","0.0-4.0-8.165","true","166","1.9499999999999984","","",""
"3264.600000143051","4","confid","","","html-slider-response","1477","1762314","0.0-4.0-10.165-0.165","","","","Rate your confidence","1",""
"931.7999999523163","e","choice","right","i","experimental","1484","1765100","0.0-4.0-8.166","false","167","1.9499999999999984","","",""
"3409.4000000953674","3","confid","","","html-slider-response","1486","1769018","0.0-4.0-10.166-0.166","","","","Rate your confidence","1",""
"314.7000000476837","e","choice","left","e","experimental","1493","1771170","0.0-4.0-8.167","true","168","2.0499999999999985","","",""
"4914.700000047684","4","confid","","","html-slider-response","1495","1776592","0.0-4.0-10.167-0.167","","","","Rate your confidence","1",""
"1586.2000000476837","e","choice","right","i","experimental","1502","1780029","0.0-4.0-8.168","false","169","2.0499999999999985","","",""
"5220.799999952316","2","confid","","","html-slider-response","1504","1785760","0.0-4.0-10.168-0.168","","","","Rate your confidence","1",""
"346.2000000476837","e","choice","left","e","experimental","1511","1787930","0.0-4.0-8.169","true","170","2.1499999999999986","","",""
"4459","5","confid","","","html-slider-response","1513","1792899","0.0-4.0-10.169-0.169","","","","Rate your confidence","1",""
"431","e","choice","left","e","experimental","1520","1795184","0.0-4.0-8.170","true","171","2.1499999999999986","","",""
"3317.7000000476837","3","confid","","","html-slider-response","1522","1799008","0.0-4.0-10.170-0.170","","","","Rate your confidence","1",""
"488.39999985694885","e","choice","right","i","experimental","1529","1801329","0.0-4.0-8.171","false","172","2.0499999999999985","","",""
"3404.399999856949","4","confid","","","html-slider-response","1531","1805248","0.0-4.0-10.171-0.171","","","","Rate your confidence","1",""
"597.8999998569489","e","choice","right","i","experimental","1538","1807683","0.0-4.0-8.172","false","173","2.1499999999999986","","",""
"2819.0999999046326","3","confid","","","html-slider-response","1540","1811026","0.0-4.0-10.172-0.172","","","","Rate your confidence","1",""
"1386.2999999523163","i","choice","left","e","experimental","1547","1814237","0.0-4.0-8.173","false","174","2.2499999999999987","","",""
"3638.0999999046326","3","confid","","","html-slider-response","1549","1818382","0.0-4.0-10.173-0.173","","","","Rate your confidence","1",""
"97.90000009536743","i","choice","right","i","experimental","1556","1820325","0.0-4.0-8.174","true","175","2.3499999999999988","","",""
"3423.7999999523163","6","confid","","","html-slider-response","1558","1824266","0.0-4.0-10.174-0.174","","","","Rate your confidence","1",""
"866.9000000953674","e","choice","left","e","experimental","1565","1826972","0.0-4.0-8.175","true","176","2.3499999999999988","","",""
"3087.5","3","confid","","","html-slider-response","1567","1830579","0.0-4.0-10.175-0.175","","","","Rate your confidence","1",""
"0.2999999523162842","i","choice","right","i","experimental","1574","1832426","0.0-4.0-8.176","true","177","2.2499999999999987","","",""
"2458.0999999046326","5","confid","","","html-slider-response","1576","1835400","0.0-4.0-10.176-0.176","","","","Rate your confidence","1",""
"313","e","choice","left","e","experimental","1583","1837537","0.0-4.0-8.177","true","178","2.2499999999999987","","",""
"4237.600000143051","4","confid","","","html-slider-response","1585","1842283","0.0-4.0-10.177-0.177","","","","Rate your confidence","1",""
"939.2000000476837","e","choice","right","i","experimental","1592","1845047","0.0-4.0-8.178","false","179","2.1499999999999986","","",""
"2694.600000143051","4","confid","","","html-slider-response","1594","1848250","0.0-4.0-10.178-0.178","","","","Rate your confidence","1",""
"1260.5","i","choice","left","e","experimental","1601","1851353","0.0-4.0-8.179","false","180","2.2499999999999987","","",""
"4629.399999856949","2","confid","","","html-slider-response","1603","1856496","0.0-4.0-10.179-0.179","","","","Rate your confidence","1",""
"495.40000009536743","e","choice","left","e","experimental","1610","1858826","0.0-4.0-8.180","true","181","2.3499999999999988","","",""
"2706.0999999046326","4","confid","","","html-slider-response","1612","1862044","0.0-4.0-10.180-0.180","","","","Rate your confidence","1",""
"2321.899999856949","i","choice","right","i","experimental","1619","1866218","0.0-4.0-8.181","true","182","2.3499999999999988","","",""
"3668","2","confid","","","html-slider-response","1621","1870394","0.0-4.0-10.181-0.181","","","","Rate your confidence","1",""
"331.59999990463257","i","choice","right","i","experimental","1628","1872557","0.0-4.0-8.182","true","183","2.2499999999999987","","",""
"3497.7999999523163","5","confid","","","html-slider-response","1630","1876566","0.0-4.0-10.182-0.182","","","","Rate your confidence","1",""
"609","i","choice","left","e","experimental","1637","1879002","0.0-4.0-8.183","false","184","2.2499999999999987","","",""
"2953.2000000476837","3","confid","","","html-slider-response","1639","1882461","0.0-4.0-10.183-0.183","","","","Rate your confidence","1",""
"2038.9000000953674","e","choice","right","i","experimental","1646","1886347","0.0-4.0-8.184","false","185","2.3499999999999988","","",""
"2996","3","confid","","","html-slider-response","1648","1889858","0.0-4.0-10.184-0.184","","","","Rate your confidence","1",""
"1029.7999999523163","e","choice","left","e","experimental","1655","1892717","0.0-4.0-8.185","true","186","2.449999999999999","","",""
"3011.699999809265","3","confid","","","html-slider-response","1657","1896241","0.0-4.0-10.185-0.185","","","","Rate your confidence","1",""
"584.7000000476837","e","choice","left","e","experimental","1664","1898644","0.0-4.0-8.186","true","187","2.449999999999999","","",""
"3399.2999999523163","3","confid","","","html-slider-response","1666","1902558","0.0-4.0-10.186-0.186","","","","Rate your confidence","1",""
"796.6000001430511","e","choice","right","i","experimental","1673","1905209","0.0-4.0-8.187","false","188","2.3499999999999988","","",""
"2539.5","4","confid","","","html-slider-response","1675","1908265","0.0-4.0-10.187-0.187","","","","Rate your confidence","1",""
"4134.799999952316","e","choice","left","e","experimental","1682","1914245","0.0-4.0-8.188","true","189","2.449999999999999","","",""
"2846.100000143051","3","confid","","","html-slider-response","1684","1917605","0.0-4.0-10.188-0.188","","","","Rate your confidence","1",""
"1053.6000001430511","e","choice","right","i","experimental","1691","1920502","0.0-4.0-8.189","false","190","2.449999999999999","","",""
"4220.5","3","confid","","","html-slider-response","1693","1925234","0.0-4.0-10.189-0.189","","","","Rate your confidence","1",""
"815.2999999523163","i","choice","right","i","experimental","1700","1927892","0.0-4.0-8.190","true","191","2.549999999999999","","",""
"9067.899999856949","3","confid","","","html-slider-response","1702","1937468","0.0-4.0-10.190-0.190","","","","Rate your confidence","1",""
"314.2000000476837","e","choice","left","e","experimental","1709","1939599","0.0-4.0-8.191","true","192","2.549999999999999","","",""
"3798.7000000476837","5","confid","","","html-slider-response","1711","1943911","0.0-4.0-10.191-0.191","","","","Rate your confidence","1",""
"179.59999990463257","i","choice","right","i","experimental","1718","1945941","0.0-4.0-8.192","true","193","2.449999999999999","","",""
"2515.2999999523163","5","confid","","","html-slider-response","1720","1948962","0.0-4.0-10.192-0.192","","","","Rate your confidence","1",""
"1161.4000000953674","e","choice","left","e","experimental","1727","1951974","0.0-4.0-8.193","true","194","2.449999999999999","","",""
"4154.299999952316","3","confid","","","html-slider-response","1729","1956635","0.0-4.0-10.193-0.193","","","","Rate your confidence","1","34277"
