"rt","response","task","target_side","correct_response","trial_type","trial_index","time_elapsed","internal_node_id","correct","trial_number","n_dots","stimulus","slider_start","participant"
"297.7999999821186","i","choice","right","i","practice","10","103902","0.0-4.0-8.0","true","1","4.25","","",""
"257.80000001192093","e","choice","left","e","practice","18","106430","0.0-4.0-8.1","true","2","4.25","","",""
"275","i","choice","right","i","practice","26","109007","0.0-4.0-8.2","true","3","3.85","","",""
"327.2999999821186","e","choice","left","e","practice","34","111606","0.0-4.0-8.3","true","4","3.85","","",""
"241.5","i","choice","right","i","practice","42","114126","0.0-4.0-8.4","true","5","3.45","","",""
"240.30000001192093","i","choice","left","e","practice","50","116646","0.0-4.0-8.5","false","6","3.45","","",""
"221.2999999821186","i","choice","right","i","practice","58","119142","0.0-4.0-8.6","true","7","3.6500000000000004","","",""
"271.5","e","choice","left","e","practice","66","121694","0.0-4.0-8.7","true","8","3.6500000000000004","","",""
"422.5","e","choice","left","e","practice","74","124390","0.0-4.0-8.8","true","9","3.45","","",""
"263.90000000596046","i","choice","right","i","practice","82","126936","0.0-4.0-8.9","true","10","3.45","","",""
"638.5","e","choice","right","i","practice","90","129847","0.0-4.0-8.10","false","11","3.25","","",""
"224.30000001192093","i","choice","left","e","practice","98","132351","0.0-4.0-8.11","false","12","3.35","","",""
"237.7999999821186","i","choice","left","e","practice","106","134878","0.0-4.0-8.12","false","13","3.45","","",""
"390.80000001192093","i","choice","right","i","practice","114","137542","0.0-4.0-8.13","true","14","3.5500000000000003","","",""
"361.7000000178814","e","choice","left","e","practice","122","140191","0.0-4.0-8.14","true","15","3.5500000000000003","","",""
"673.4000000059605","e","choice","right","i","practice","130","143159","0.0-4.0-8.15","false","16","3.45","","",""
"445.09999999403954","e","choice","left","e","practice","138","145886","0.0-4.0-8.16","true","17","3.5500000000000003","","",""
"635.8999999761581","e","choice","right","i","practice","146","148798","0.0-4.0-8.17","false","18","3.5500000000000003","","",""
"426.2000000178814","e","choice","left","e","practice","154","151494","0.0-4.0-8.18","true","19","3.6500000000000004","","",""
"282.7999999821186","i","choice","right","i","practice","162","154071","0.0-4.0-8.19","true","20","3.6500000000000004","","",""
"307","i","choice","right","i","practice","170","156654","0.0-4.0-8.20","true","21","3.5500000000000003","","",""
"302.19999998807907","i","choice","left","e","practice","178","159239","0.0-4.0-8.21","false","22","3.5500000000000003","","",""
"573.4000000059605","e","choice","left","e","practice","186","162089","0.0-4.0-8.22","true","23","3.6500000000000004","","",""
"730.9000000059605","e","choice","right","i","practice","194","165095","0.0-4.0-8.23","false","24","3.6500000000000004","","",""
"281.90000000596046","i","choice","right","i","practice","202","167657","0.0-4.0-8.24","true","25","3.7500000000000004","","",""
"659","e","choice","left","e","practice","210","170585","0.0-4.0-8.25","true","26","3.7500000000000004","","",""
"568.1999999880791","e","choice","left","e","experimental","221","198160","0.0-4.0-8.26","true","27","3.6500000000000004","","",""
"1746.5","3","confid","","","html-slider-response","223","200408","0.0-4.0-10.26-0.26","","","","Rate your confidence","1",""
"1063.5999999940395","i","choice","right","i","experimental","230","203256","0.0-4.0-8.27","true","28","3.6500000000000004","","",""
"3271.5999999940395","4","confid","","","html-slider-response","232","207032","0.0-4.0-10.27-0.27","","","","Rate your confidence","1",""
"1526.5999999940395","e","choice","left","e","experimental","239","210328","0.0-4.0-8.28","true","29","3.5500000000000003","","",""
"1626.2000000178814","4","confid","","","html-slider-response","241","212456","0.0-4.0-10.28-0.28","","","","Rate your confidence","1",""
"2105.0999999940395","e","choice","right","i","experimental","248","216352","0.0-4.0-8.29","false","30","3.5500000000000003","","",""
"2399.800000011921","5","confid","","","html-slider-response","250","219256","0.0-4.0-10.29-0.29","","","","Rate your confidence","1",""
"816.7999999821186","i","choice","left","e","experimental","257","221849","0.0-4.0-8.30","false","31","3.6500000000000004","","",""
"1821.9000000059605","3","confid","","","html-slider-response","259","224178","0.0-4.0-10.30-0.30","","","","Rate your confidence","1",""
"282.89999997615814","i","choice","right","i","experimental","266","226241","0.0-4.0-8.31","true","32","3.7500000000000004","","",""
"1577.2999999821186","6","confid","","","html-slider-response","268","228321","0.0-4.0-10.31-0.31","","","","Rate your confidence","1",""
"1159.4000000059605","i","choice","right","i","experimental","275","231281","0.0-4.0-8.32","true","33","3.7500000000000004","","",""
"1887.5","4","confid","","","html-slider-response","277","233673","0.0-4.0-10.32-0.32","","","","Rate your confidence","1",""
"475.2000000178814","e","choice","left","e","experimental","284","235938","0.0-4.0-8.33","true","34","3.6500000000000004","","",""
"2262.5","5","confid","","","html-slider-response","286","238705","0.0-4.0-10.33-0.33","","","","Rate your confidence","1",""
"853.4000000059605","e","choice","left","e","experimental","293","241329","0.0-4.0-8.34","true","35","3.6500000000000004","","",""
"1410.5999999940395","3","confid","","","html-slider-response","295","243249","0.0-4.0-10.34-0.34","","","","Rate your confidence","1",""
"877.0999999940395","i","choice","right","i","experimental","302","245897","0.0-4.0-8.35","true","36","3.5500000000000003","","",""
"1208.7000000178814","4","confid","","","html-slider-response","304","247609","0.0-4.0-10.35-0.35","","","","Rate your confidence","1",""
"2093.5","i","choice","left","e","experimental","311","251497","0.0-4.0-8.36","false","37","3.5500000000000003","","",""
"1202","4","confid","","","html-slider-response","313","253201","0.0-4.0-10.36-0.36","","","","Rate your confidence","1",""
"398.5","i","choice","right","i","experimental","320","255378","0.0-4.0-8.37","true","38","3.6500000000000004","","",""
"1310.8999999761581","6","confid","","","html-slider-response","322","257193","0.0-4.0-10.37-0.37","","","","Rate your confidence","1",""
"398.80000001192093","e","choice","right","i","experimental","329","259369","0.0-4.0-8.38","false","39","3.6500000000000004","","",""
"2015.800000011921","2","confid","","","html-slider-response","331","261889","0.0-4.0-10.38-0.38","","","","Rate your confidence","1",""
"348.5","e","choice","left","e","experimental","338","264009","0.0-4.0-8.39","true","40","3.7500000000000004","","",""
"1615.7000000178814","5","confid","","","html-slider-response","340","266129","0.0-4.0-10.39-0.39","","","","Rate your confidence","1",""
"497.2999999821186","e","choice","left","e","experimental","347","268401","0.0-4.0-8.40","true","41","3.7500000000000004","","",""
"1607.5999999940395","4","confid","","","html-slider-response","349","270513","0.0-4.0-10.40-0.40","","","","Rate your confidence","1",""
"1294.300000011921","i","choice","right","i","experimental","356","273587","0.0-4.0-8.41","true","42","3.6500000000000004","","",""
"2463.199999988079","2","confid","","","html-slider-response","358","276553","0.0-4.0-10.41-0.41","","","","Rate your confidence","1",""
"795.7000000178814","i","choice","right","i","experimental","365","279129","0.0-4.0-8.42","true","43","3.6500000000000004","","",""
"5185.9000000059605","2","confid","","","html-slider-response","367","284818","0.0-4.0-10.42-0.42","","","","Rate your confidence","1",""
"164114.80000001192","i","choice","left","e","experimental","374","455726","0.0-4.0-8.43","false","44","3.5500000000000003","","",""
"5024.300000011921","2","confid","","","html-slider-response","376","461254","0.0-4.0-10.43-0.43","","","","Rate your confidence","1",""
"822.6999999880791","e","choice","left","e","experimental","383","463854","0.0-4.0-8.44","true","45","3.6500000000000004","","",""
"4200","3","confid","","","html-slider-response","385","468574","0.0-4.0-10.44-0.44","","","","Rate your confidence","1",""
"29033.20000001788","e","choice","right","i","experimental","392","499382","0.0-4.0-8.45","false","46","3.6500000000000004","","",""
"3208.9000000059605","3","confid","","","html-slider-response","394","503094","0.0-4.0-10.45-0.45","","","","Rate your confidence","1",""
"329.5","i","choice","right","i","experimental","401","505198","0.0-4.0-8.46","true","47","3.7500000000000004","","",""
"2087.2999999821186","5","confid","","","html-slider-response","403","507790","0.0-4.0-10.46-0.46","","","","Rate your confidence","1",""
"467.5","e","choice","left","e","experimental","410","510030","0.0-4.0-8.47","true","48","3.7500000000000004","","",""
"1377.300000011921","3","confid","","","html-slider-response","412","511910","0.0-4.0-10.47-0.47","","","","Rate your confidence","1",""
"446.69999998807907","e","choice","left","e","experimental","419","514127","0.0-4.0-8.48","true","49","3.6500000000000004","","",""
"1205.5999999940395","5","confid","","","html-slider-response","421","515839","0.0-4.0-10.48-0.48","","","","Rate your confidence","1",""
"599.2000000178814","e","choice","right","i","experimental","428","518224","0.0-4.0-8.49","false","50","3.6500000000000004","","",""
"1312.1000000238419","5","confid","","","html-slider-response","430","520040","0.0-4.0-10.49-0.49","","","","Rate your confidence","1",""
"315.09999999403954","i","choice","right","i","experimental","437","522129","0.0-4.0-8.50","true","51","3.7500000000000004","","",""
"2142.2999999821186","5","confid","","","html-slider-response","439","524775","0.0-4.0-10.50-0.50","","","","Rate your confidence","1",""
"479.30000001192093","e","choice","left","e","experimental","446","527032","0.0-4.0-8.51","true","52","3.7500000000000004","","",""
"1000.7999999821186","3","confid","","","html-slider-response","448","528535","0.0-4.0-10.51-0.51","","","","Rate your confidence","1",""
"470.09999999403954","i","choice","right","i","experimental","455","530775","0.0-4.0-8.52","true","53","3.6500000000000004","","",""
"1696.8999999761581","4","confid","","","html-slider-response","457","532975","0.0-4.0-10.52-0.52","","","","Rate your confidence","1",""
"433.90000000596046","e","choice","left","e","experimental","464","535183","0.0-4.0-8.53","true","54","3.6500000000000004","","",""
"1610.300000011921","4","confid","","","html-slider-response","466","537295","0.0-4.0-10.53-0.53","","","","Rate your confidence","1",""
"852.0999999940395","e","choice","right","i","experimental","473","539920","0.0-4.0-8.54","false","55","3.5500000000000003","","",""
"1448.699999988079","2","confid","","","html-slider-response","475","541871","0.0-4.0-10.54-0.54","","","","Rate your confidence","1",""
"781.5999999940395","i","choice","left","e","experimental","482","544448","0.0-4.0-8.55","false","56","3.6500000000000004","","",""
"2264","2","confid","","","html-slider-response","484","547215","0.0-4.0-10.55-0.55","","","","Rate your confidence","1",""
"238.40000000596046","i","choice","right","i","experimental","491","549224","0.0-4.0-8.56","true","57","3.7500000000000004","","",""
"1264.9000000059605","5","confid","","","html-slider-response","493","550999","0.0-4.0-10.56-0.56","","","","Rate your confidence","1",""
"320.59999999403954","i","choice","left","e","experimental","500","553089","0.0-4.0-8.57","false","58","3.7500000000000004","","",""
"1909.9000000059605","5","confid","","","html-slider-response","502","555503","0.0-4.0-10.57-0.57","","","","Rate your confidence","1",""
"698.1999999880791","e","choice","right","i","experimental","509","557977","0.0-4.0-8.58","false","59","3.8500000000000005","","",""
"18671","3","confid","","","html-slider-response","511","577152","0.0-4.0-10.58-0.58","","","","Rate your confidence","1",""
"240.2000000178814","e","choice","left","e","experimental","518","579177","0.0-4.0-8.59","true","60","3.9500000000000006","","",""
"1192.800000011921","6","confid","","","html-slider-response","520","580872","0.0-4.0-10.59-0.59","","","","Rate your confidence","1",""
"336.59999999403954","i","choice","right","i","experimental","527","582984","0.0-4.0-8.60","true","61","3.9500000000000006","","",""
"8721.299999982119","4","confid","","","html-slider-response","529","592208","0.0-4.0-10.60-0.60","","","","Rate your confidence","1",""
"230.59999999403954","e","choice","left","e","experimental","536","594208","0.0-4.0-8.61","true","62","3.8500000000000005","","",""
"1689.5","6","confid","","","html-slider-response","538","596400","0.0-4.0-10.61-0.61","","","","Rate your confidence","1",""
"235.2000000178814","e","choice","left","e","experimental","545","598411","0.0-4.0-8.62","true","63","3.8500000000000005","","",""
"1485.7000000178814","6","confid","","","html-slider-response","547","600401","0.0-4.0-10.62-0.62","","","","Rate your confidence","1",""
"913.6999999880791","e","choice","right","i","experimental","554","603096","0.0-4.0-8.63","false","64","3.7500000000000004","","",""
"1224.199999988079","4","confid","","","html-slider-response","556","604824","0.0-4.0-10.63-0.63","","","","Rate your confidence","1",""
"286.80000001192093","i","choice","right","i","experimental","563","606889","0.0-4.0-8.64","true","65","3.8500000000000005","","",""
"2816.399999976158","5","confid","","","html-slider-response","565","610208","0.0-4.0-10.64-0.64","","","","Rate your confidence","1",""
"349.90000000596046","e","choice","left","e","experimental","572","612336","0.0-4.0-8.65","true","66","3.8500000000000005","","",""
"2623.699999988079","6","confid","","","html-slider-response","574","615464","0.0-4.0-10.65-0.65","","","","Rate your confidence","1",""
"517.5999999940395","i","choice","right","i","experimental","581","617752","0.0-4.0-8.66","true","67","3.7500000000000004","","",""
"1594.4000000059605","5","confid","","","html-slider-response","583","619849","0.0-4.0-10.66-0.66","","","","Rate your confidence","1",""
"554","e","choice","left","e","experimental","590","622177","0.0-4.0-8.67","true","68","3.7500000000000004","","",""
"2207.2999999821186","4","confid","","","html-slider-response","592","624889","0.0-4.0-10.67-0.67","","","","Rate your confidence","1",""
"1126.699999988079","e","choice","left","e","experimental","600","1587436","0.0-4.0-8.68","true","69","3.6500000000000004","","",""
"1370.300000011921","3","confid","","","html-slider-response","602","1589309","0.0-4.0-10.68-0.68","","","","Rate your confidence","1",""
"719","e","choice","right","i","experimental","609","1591805","0.0-4.0-8.69","false","70","3.6500000000000004","","",""
"2264","4","confid","","","html-slider-response","611","1594573","0.0-4.0-10.69-0.69","","","","Rate your confidence","1",""
"269.39999997615814","e","choice","left","e","experimental","618","1596637","0.0-4.0-8.70","true","71","3.7500000000000004","","",""
"1159.699999988079","4","confid","","","html-slider-response","620","1598300","0.0-4.0-10.70-0.70","","","","Rate your confidence","1",""
"324.09999999403954","i","choice","right","i","experimental","627","1600413","0.0-4.0-8.71","true","72","3.7500000000000004","","",""
"4097.199999988079","5","confid","","","html-slider-response","629","1605012","0.0-4.0-10.71-0.71","","","","Rate your confidence","1",""
"607","e","choice","left","e","experimental","636","1607398","0.0-4.0-8.72","true","73","3.6500000000000004","","",""
"1652.2999999821186","4","confid","","","html-slider-response","638","1609573","0.0-4.0-10.72-0.72","","","","Rate your confidence","1",""
"302.5","i","choice","right","i","experimental","645","1611653","0.0-4.0-8.73","true","74","3.6500000000000004","","",""
"4401.299999982119","4","confid","","","html-slider-response","647","1616558","0.0-4.0-10.73-0.73","","","","Rate your confidence","1",""
"306.2999999821186","e","choice","left","e","experimental","654","1618655","0.0-4.0-8.74","true","75","3.5500000000000003","","",""
"1519.300000011921","5","confid","","","html-slider-response","656","1620678","0.0-4.0-10.74-0.74","","","","Rate your confidence","1",""
"273.2000000178814","i","choice","right","i","experimental","663","1622750","0.0-4.0-8.75","true","76","3.5500000000000003","","",""
"3121.199999988079","5","confid","","","html-slider-response","665","1626374","0.0-4.0-10.75-0.75","","","","Rate your confidence","1",""
"381.19999998807907","e","choice","left","e","experimental","672","1628534","0.0-4.0-8.76","true","77","3.45","","",""
"3344.199999988079","6","confid","","","html-slider-response","674","1632382","0.0-4.0-10.76-0.76","","","","Rate your confidence","1",""
"356.7999999821186","i","choice","right","i","experimental","681","1634518","0.0-4.0-8.77","true","78","3.45","","",""
"1465.7999999821186","5","confid","","","html-slider-response","683","1636486","0.0-4.0-10.77-0.77","","","","Rate your confidence","1",""
"286.5","e","choice","left","e","experimental","690","1638550","0.0-4.0-8.78","true","79","3.35","","",""
"1289","6","confid","","","html-slider-response","692","1640342","0.0-4.0-10.78-0.78","","","","Rate your confidence","1",""
"774.8999999761581","i","choice","right","i","experimental","699","1642895","0.0-4.0-8.79","true","80","3.35","","",""
"1159.5","3","confid","","","html-slider-response","701","1644558","0.0-4.0-10.79-0.79","","","","Rate your confidence","1",""
"123.69999998807907","e","choice","left","e","experimental","708","1646454","0.0-4.0-8.80","true","81","3.25","","",""
"1136.9000000059605","5","confid","","","html-slider-response","710","1648094","0.0-4.0-10.80-0.80","","","","Rate your confidence","1",""
"475.09999999403954","i","choice","right","i","experimental","717","1650352","0.0-4.0-8.81","true","82","3.25","","",""
"1830.699999988079","2","confid","","","html-slider-response","719","1652686","0.0-4.0-10.81-0.81","","","","Rate your confidence","1",""
"555.9000000059605","e","choice","right","i","experimental","726","1655014","0.0-4.0-8.82","false","83","3.15","","",""
"1688.8999999761581","3","confid","","","html-slider-response","728","1657206","0.0-4.0-10.82-0.82","","","","Rate your confidence","1",""
"332.5","e","choice","left","e","experimental","735","1659326","0.0-4.0-8.83","true","84","3.25","","",""
"1312.199999988079","4","confid","","","html-slider-response","737","1661142","0.0-4.0-10.83-0.83","","","","Rate your confidence","1",""
"734.9000000059605","e","choice","left","e","experimental","744","1663662","0.0-4.0-8.84","true","85","3.25","","",""
"1448","2","confid","","","html-slider-response","746","1665614","0.0-4.0-10.84-0.84","","","","Rate your confidence","1",""
"278.19999998807907","i","choice","right","i","experimental","753","1667670","0.0-4.0-8.85","true","86","3.15","","",""
"1104.800000011921","5","confid","","","html-slider-response","755","1669278","0.0-4.0-10.85-0.85","","","","Rate your confidence","1",""
"791.5","e","choice","left","e","experimental","762","1671846","0.0-4.0-8.86","true","87","3.15","","",""
"1248.2999999821186","4","confid","","","html-slider-response","764","1673598","0.0-4.0-10.86-0.86","","","","Rate your confidence","1",""
"315.7999999821186","i","choice","right","i","experimental","771","1675687","0.0-4.0-8.87","true","88","3.05","","",""
"1794.4000000059605","3","confid","","","html-slider-response","773","1677983","0.0-4.0-10.87-0.87","","","","Rate your confidence","1",""
"481.2999999821186","e","choice","left","e","experimental","780","1680248","0.0-4.0-8.88","true","89","3.05","","",""
"1196.699999988079","5","confid","","","html-slider-response","782","1681951","0.0-4.0-10.88-0.88","","","","Rate your confidence","1",""
"319.09999999403954","i","choice","right","i","experimental","789","1684048","0.0-4.0-8.89","true","90","2.9499999999999997","","",""
"1876.5999999940395","3","confid","","","html-slider-response","791","1686431","0.0-4.0-10.89-0.89","","","","Rate your confidence","1",""
"243","e","choice","left","e","experimental","798","1688448","0.0-4.0-8.90","true","91","2.9499999999999997","","",""
"1205.199999988079","5","confid","","","html-slider-response","800","1690159","0.0-4.0-10.90-0.90","","","","Rate your confidence","1",""
"850.6000000238419","i","choice","right","i","experimental","807","1692791","0.0-4.0-8.91","true","92","2.8499999999999996","","",""
"1455.9000000059605","5","confid","","","html-slider-response","809","1694751","0.0-4.0-10.91-0.91","","","","Rate your confidence","1",""
"504.7999999821186","e","choice","right","i","experimental","816","1697039","0.0-4.0-8.92","false","93","2.8499999999999996","","",""
"2767.899999976158","2","confid","","","html-slider-response","818","1700311","0.0-4.0-10.92-0.92","","","","Rate your confidence","1",""
"354.80000001192093","e","choice","left","e","experimental","825","1702471","0.0-4.0-8.93","true","94","2.9499999999999997","","",""
"1850.0999999940395","5","confid","","","html-slider-response","827","1704823","0.0-4.0-10.93-0.93","","","","Rate your confidence","1",""
"75545.90000000596","e","choice","right","i","experimental","834","1782145","0.0-4.0-8.94","false","95","2.9499999999999997","","",""
"2048.600000023842","2","confid","","","html-slider-response","836","1784697","0.0-4.0-10.94-0.94","","","","Rate your confidence","1",""
"326","e","choice","left","e","experimental","843","1786793","0.0-4.0-8.95","true","96","3.05","","",""
"1697.4000000059605","4","confid","","","html-slider-response","845","1788993","0.0-4.0-10.95-0.95","","","","Rate your confidence","1",""
"229.90000000596046","i","choice","right","i","experimental","852","1791001","0.0-4.0-8.96","true","97","3.05","","",""
"2094.4000000059605","5","confid","","","html-slider-response","854","1793601","0.0-4.0-10.96-0.96","","","","Rate your confidence","1",""
"269.7999999821186","e","choice","left","e","experimental","861","1795649","0.0-4.0-8.97","true","98","2.9499999999999997","","",""
"857.5","4","confid","","","html-slider-response","863","1797009","0.0-4.0-10.97-0.97","","","","Rate your confidence","1",""
"261.59999999403954","e","choice","left","e","experimental","870","1799049","0.0-4.0-8.98","true","99","2.9499999999999997","","",""
"1027.7000000178814","5","confid","","","html-slider-response","872","1800585","0.0-4.0-10.98-0.98","","","","Rate your confidence","1",""
"439.59999999403954","e","choice","right","i","experimental","879","1802801","0.0-4.0-8.99","false","100","2.8499999999999996","","",""
"1313.9000000059605","3","confid","","","html-slider-response","881","1804617","0.0-4.0-10.99-0.99","","","","Rate your confidence","1",""
"665.0999999940395","i","choice","right","i","experimental","888","1807057","0.0-4.0-8.100","true","101","2.9499999999999997","","",""
"7303.700000017881","6","confid","","","html-slider-response","890","1814865","0.0-4.0-10.100-0.100","","","","Rate your confidence","1",""
"987.5999999940395","i","choice","left","e","experimental","897","1817633","0.0-4.0-8.101","false","102","2.9499999999999997","","",""
"1105","5","confid","","","html-slider-response","899","1819241","0.0-4.0-10.101-0.101","","","","Rate your confidence","1",""
"620.5","i","choice","right","i","experimental","906","1821649","0.0-4.0-8.102","true","103","3.05","","",""
"1521.4000000059605","5","confid","","","html-slider-response","908","1823673","0.0-4.0-10.102-0.102","","","","Rate your confidence","1",""
"704.0999999940395","i","choice","left","e","experimental","915","1826153","0.0-4.0-8.103","false","104","3.05","","",""
"2314.2000000178814","3","confid","","","html-slider-response","917","1828969","0.0-4.0-10.103-0.103","","","","Rate your confidence","1",""
"563.8000000119209","e","choice","left","e","experimental","924","1831305","0.0-4.0-8.104","true","105","3.15","","",""
"1272.5","4","confid","","","html-slider-response","926","1833081","0.0-4.0-10.104-0.104","","","","Rate your confidence","1",""
"253.59999999403954","i","choice","right","i","experimental","933","1835121","0.0-4.0-8.105","true","106","3.15","","",""
"1192.5","4","confid","","","html-slider-response","935","1836817","0.0-4.0-10.105-0.105","","","","Rate your confidence","1",""
"754.9000000059605","i","choice","right","i","experimental","942","1839371","0.0-4.0-8.106","true","107","3.05","","",""
"1741.800000011921","4","confid","","","html-slider-response","944","1841618","0.0-4.0-10.106-0.106","","","","Rate your confidence","1",""
"502.90000000596046","i","choice","left","e","experimental","951","1843907","0.0-4.0-8.107","false","108","3.05","","",""
"1566.300000011921","4","confid","","","html-slider-response","953","1845978","0.0-4.0-10.107-0.107","","","","Rate your confidence","1",""
"454.19999998807907","e","choice","left","e","experimental","960","1848210","0.0-4.0-8.108","true","109","3.15","","",""
"1576.7000000178814","3","confid","","","html-slider-response","962","1850290","0.0-4.0-10.108-0.108","","","","Rate your confidence","1",""
"536.7999999821186","i","choice","right","i","experimental","969","1852603","0.0-4.0-8.109","true","110","3.15","","",""
"1678.5999999940395","5","confid","","","html-slider-response","971","1854786","0.0-4.0-10.109-0.109","","","","Rate your confidence","1",""
"681.2000000178814","i","choice","left","e","experimental","979","1863114","0.0-4.0-8.110","false","111","3.05","","",""
"3095.5999999940395","4","confid","","","html-slider-response","981","1866714","0.0-4.0-10.110-0.110","","","","Rate your confidence","1",""
"257.39999997615814","i","choice","right","i","experimental","988","1868762","0.0-4.0-8.111","true","112","3.15","","",""
"2193","6","confid","","","html-slider-response","990","1871458","0.0-4.0-10.111-0.111","","","","Rate your confidence","1",""
"1166.800000011921","i","choice","left","e","experimental","997","1874410","0.0-4.0-8.112","false","113","3.15","","",""
"1025.2000000178814","4","confid","","","html-slider-response","999","1875938","0.0-4.0-10.112-0.112","","","","Rate your confidence","1",""
"497.80000001192093","i","choice","right","i","experimental","1006","1878219","0.0-4.0-8.113","true","114","3.25","","",""
"1382.5","5","confid","","","html-slider-response","1008","1880106","0.0-4.0-10.113-0.113","","","","Rate your confidence","1",""
"1516.2999999821186","i","choice","right","i","experimental","1015","1883402","0.0-4.0-8.114","true","115","3.25","","",""
"1367.5999999940395","3","confid","","","html-slider-response","1017","1885274","0.0-4.0-10.114-0.114","","","","Rate your confidence","1",""
"2319","e","choice","left","e","experimental","1024","1889378","0.0-4.0-8.115","true","116","3.15","","",""
"3007.4000000059605","5","confid","","","html-slider-response","1026","1892890","0.0-4.0-10.115-0.115","","","","Rate your confidence","1",""
"278.2999999821186","e","choice","left","e","experimental","1033","1894955","0.0-4.0-8.116","true","117","3.15","","",""
"1726.800000011921","6","confid","","","html-slider-response","1035","1897186","0.0-4.0-10.116-0.116","","","","Rate your confidence","1",""
"672.8000000119209","i","choice","right","i","experimental","1042","1899635","0.0-4.0-8.117","true","118","3.05","","",""
"1025","4","confid","","","html-slider-response","1044","1901163","0.0-4.0-10.117-0.117","","","","Rate your confidence","1",""
"693.1999999880791","i","choice","right","i","experimental","1051","1903644","0.0-4.0-8.118","true","119","3.05","","",""
"1821.5","2","confid","","","html-slider-response","1053","1905971","0.0-4.0-10.118-0.118","","","","Rate your confidence","1",""
"995.9000000059605","e","choice","left","e","experimental","1060","1908747","0.0-4.0-8.119","true","120","2.9499999999999997","","",""
"1209.199999988079","5","confid","","","html-slider-response","1062","1910459","0.0-4.0-10.119-0.119","","","","Rate your confidence","1",""
"279","e","choice","left","e","experimental","1069","1912531","0.0-4.0-8.120","true","121","2.9499999999999997","","",""
"1863.5","5","confid","","","html-slider-response","1071","1914899","0.0-4.0-10.120-0.120","","","","Rate your confidence","1",""
"362.2999999821186","e","choice","right","i","experimental","1078","1917051","0.0-4.0-8.121","false","122","2.8499999999999996","","",""
"3015.699999988079","5","confid","","","html-slider-response","1080","1920571","0.0-4.0-10.121-0.121","","","","Rate your confidence","1",""
"451.30000001192093","i","choice","right","i","experimental","1087","1922803","0.0-4.0-8.122","true","123","2.9499999999999997","","",""
"1193.300000011921","5","confid","","","html-slider-response","1089","1924499","0.0-4.0-10.122-0.122","","","","Rate your confidence","1",""
"440.30000001192093","e","choice","left","e","experimental","1096","1926715","0.0-4.0-8.123","true","124","2.9499999999999997","","",""
"2769.5","3","confid","","","html-slider-response","1098","1929987","0.0-4.0-10.123-0.123","","","","Rate your confidence","1",""
"390.40000000596046","e","choice","right","i","experimental","1105","1932155","0.0-4.0-8.124","false","125","2.8499999999999996","","",""
"2080.800000011921","5","confid","","","html-slider-response","1107","1934739","0.0-4.0-10.124-0.124","","","","Rate your confidence","1",""
"2720.0999999940395","e","choice","left","e","experimental","1114","1939243","0.0-4.0-8.125","true","126","2.9499999999999997","","",""
"1502.5","4","confid","","","html-slider-response","1116","1941251","0.0-4.0-10.125-0.125","","","","Rate your confidence","1",""
"697.8000000119209","e","choice","left","e","experimental","1123","1943731","0.0-4.0-8.126","true","127","2.9499999999999997","","",""
"1594.199999988079","4","confid","","","html-slider-response","1125","1945827","0.0-4.0-10.126-0.126","","","","Rate your confidence","1",""
"291.90000000596046","i","choice","right","i","experimental","1132","1947899","0.0-4.0-8.127","true","128","2.8499999999999996","","",""
"1281.2999999821186","5","confid","","","html-slider-response","1134","1949683","0.0-4.0-10.127-0.127","","","","Rate your confidence","1",""
"1229.7000000178814","i","choice","right","i","experimental","1141","1952692","0.0-4.0-8.128","true","129","2.8499999999999996","","",""
"1126.5","4","confid","","","html-slider-response","1143","1954323","0.0-4.0-10.128-0.128","","","","Rate your confidence","1",""
"705.9000000059605","e","choice","left","e","experimental","1150","1956803","0.0-4.0-8.129","true","130","2.7499999999999996","","",""
"1473.9000000059605","3","confid","","","html-slider-response","1152","1958788","0.0-4.0-10.129-0.129","","","","Rate your confidence","1",""
"363.90000000596046","i","choice","right","i","experimental","1159","1960932","0.0-4.0-8.130","true","131","2.7499999999999996","","",""
"1560.2999999821186","4","confid","","","html-slider-response","1161","1963012","0.0-4.0-10.130-0.130","","","","Rate your confidence","1",""
"244198","e","choice","left","e","experimental","1168","2208992","0.0-4.0-8.131","true","132","2.6499999999999995","","",""
"1304.800000011921","2","confid","","","html-slider-response","1170","2210800","0.0-4.0-10.131-0.131","","","","Rate your confidence","1",""
"183.59999999403954","e","choice","left","e","experimental","1177","2212769","0.0-4.0-8.132","true","133","2.6499999999999995","","",""
"1613.9000000059605","5","confid","","","html-slider-response","1179","2214888","0.0-4.0-10.132-0.132","","","","Rate your confidence","1",""
"305.90000000596046","i","choice","right","i","experimental","1186","2216968","0.0-4.0-8.133","true","134","2.5499999999999994","","",""
"1487.8999999761581","4","confid","","","html-slider-response","1188","2218960","0.0-4.0-10.133-0.133","","","","Rate your confidence","1",""
"237.2999999821186","e","choice","left","e","experimental","1195","2220978","0.0-4.0-8.134","true","135","2.5499999999999994","","",""
"1429.9000000059605","5","confid","","","html-slider-response","1197","2222912","0.0-4.0-10.134-0.134","","","","Rate your confidence","1",""
"298","e","choice","right","i","experimental","1204","2224984","0.0-4.0-8.135","false","136","2.4499999999999993","","",""
"2089.7000000178814","5","confid","","","html-slider-response","1206","2227576","0.0-4.0-10.135-0.135","","","","Rate your confidence","1",""
"343.90000000596046","i","choice","right","i","experimental","1213","2229704","0.0-4.0-8.136","true","137","2.5499999999999994","","",""
"2266.2000000178814","4","confid","","","html-slider-response","1215","2232472","0.0-4.0-10.136-0.136","","","","Rate your confidence","1",""
"676.6999999880791","e","choice","left","e","experimental","1222","2234928","0.0-4.0-8.137","true","138","2.5499999999999994","","",""
"1410.300000011921","3","confid","","","html-slider-response","1224","2236840","0.0-4.0-10.137-0.137","","","","Rate your confidence","1",""
"399.39999997615814","e","choice","right","i","experimental","1231","2239025","0.0-4.0-8.138","false","139","2.4499999999999993","","",""
"959.7000000178814","5","confid","","","html-slider-response","1233","2240488","0.0-4.0-10.138-0.138","","","","Rate your confidence","1",""
"295.40000000596046","e","choice","left","e","experimental","1240","2242561","0.0-4.0-8.139","true","140","2.5499999999999994","","",""
"2527.800000011921","5","confid","","","html-slider-response","1242","2245592","0.0-4.0-10.139-0.139","","","","Rate your confidence","1",""
"462.89999997615814","e","choice","right","i","experimental","1249","2247833","0.0-4.0-8.140","false","141","2.5499999999999994","","",""
"2480.2000000178814","4","confid","","","html-slider-response","1251","2250816","0.0-4.0-10.140-0.140","","","","Rate your confidence","1",""
"274","i","choice","left","e","experimental","1258","2252866","0.0-4.0-8.141","false","142","2.6499999999999995","","",""
"1187.800000011921","5","confid","","","html-slider-response","1260","2254560","0.0-4.0-10.141-0.141","","","","Rate your confidence","1",""
"1158.9000000059605","e","choice","right","i","experimental","1267","2257512","0.0-4.0-8.142","false","143","2.7499999999999996","","",""
"1209","2","confid","","","html-slider-response","1269","2259224","0.0-4.0-10.142-0.142","","","","Rate your confidence","1",""
"360.39999997615814","e","choice","left","e","experimental","1276","2261377","0.0-4.0-8.143","true","144","2.8499999999999996","","",""
"1840.7000000178814","5","confid","","","html-slider-response","1278","2263720","0.0-4.0-10.143-0.143","","","","Rate your confidence","1",""
"624.4000000059605","i","choice","right","i","experimental","1285","2266138","0.0-4.0-8.144","true","145","2.8499999999999996","","",""
"1592.8999999761581","4","confid","","","html-slider-response","1287","2268234","0.0-4.0-10.144-0.144","","","","Rate your confidence","1",""
"386.2999999821186","e","choice","left","e","experimental","1294","2270402","0.0-4.0-8.145","true","146","2.7499999999999996","","",""
"3383.5999999940395","3","confid","","","html-slider-response","1296","2274290","0.0-4.0-10.145-0.145","","","","Rate your confidence","1",""
"453.90000000596046","i","choice","right","i","experimental","1303","2276530","0.0-4.0-8.146","true","147","2.7499999999999996","","",""
"1664.800000011921","6","confid","","","html-slider-response","1305","2278698","0.0-4.0-10.146-0.146","","","","Rate your confidence","1",""
"413.7999999821186","e","choice","left","e","experimental","1312","2280890","0.0-4.0-8.147","true","148","2.6499999999999995","","",""
"2711.2000000178814","6","confid","","","html-slider-response","1314","2284106","0.0-4.0-10.147-0.147","","","","Rate your confidence","1",""
"740.2999999821186","i","choice","right","i","experimental","1321","2286626","0.0-4.0-8.148","true","149","2.6499999999999995","","",""
"1218.300000011921","2","confid","","","html-slider-response","1323","2288354","0.0-4.0-10.148-0.148","","","","Rate your confidence","1",""
"664.3000000119209","e","choice","left","e","experimental","1330","2290818","0.0-4.0-8.149","true","150","2.5499999999999994","","",""
"1345.5999999940395","3","confid","","","html-slider-response","1332","2292666","0.0-4.0-10.149-0.149","","","","Rate your confidence","1",""
"854.0999999940395","i","choice","right","i","experimental","1339","2295299","0.0-4.0-8.150","true","151","2.5499999999999994","","",""
"1415.300000011921","5","confid","","","html-slider-response","1341","2297218","0.0-4.0-10.150-0.150","","","","Rate your confidence","1",""
"431.5","e","choice","left","e","experimental","1348","2299434","0.0-4.0-8.151","true","152","2.4499999999999993","","",""
"1913.4000000059605","5","confid","","","html-slider-response","1350","2301850","0.0-4.0-10.151-0.151","","","","Rate your confidence","1",""
"243.90000000596046","e","choice","left","e","experimental","1358","2375572","0.0-4.0-8.152","true","153","2.4499999999999993","","",""
"1846.199999988079","4","confid","","","html-slider-response","1360","2377923","0.0-4.0-10.152-0.152","","","","Rate your confidence","1",""
"477.80000001192093","i","choice","right","i","experimental","1367","2380179","0.0-4.0-8.153","true","154","2.349999999999999","","",""
"1832.5999999940395","4","confid","","","html-slider-response","1369","2382515","0.0-4.0-10.153-0.153","","","","Rate your confidence","1",""
"239.7999999821186","e","choice","left","e","experimental","1376","2384547","0.0-4.0-8.154","true","155","2.349999999999999","","",""
"2152.5","3","confid","","","html-slider-response","1378","2387203","0.0-4.0-10.154-0.154","","","","Rate your confidence","1",""
"255.60000002384186","i","choice","right","i","experimental","1385","2389243","0.0-4.0-8.155","true","156","2.249999999999999","","",""
"1488","5","confid","","","html-slider-response","1387","2391235","0.0-4.0-10.155-0.155","","","","Rate your confidence","1",""
"354.69999998807907","e","choice","right","i","experimental","1394","2393371","0.0-4.0-8.156","false","157","2.249999999999999","","",""
"1695.0999999940395","6","confid","","","html-slider-response","1396","2395571","0.0-4.0-10.156-0.156","","","","Rate your confidence","1",""
"356.19999998807907","e","choice","left","e","experimental","1403","2397708","0.0-4.0-8.157","true","158","2.349999999999999","","",""
"2064.199999988079","5","confid","","","html-slider-response","1405","2400275","0.0-4.0-10.157-0.157","","","","Rate your confidence","1",""
"597.3999999761581","i","choice","left","e","experimental","1412","2402653","0.0-4.0-8.158","false","159","2.349999999999999","","",""
"2694","5","confid","","","html-slider-response","1414","2405851","0.0-4.0-10.158-0.158","","","","Rate your confidence","1",""
"272.09999999403954","e","choice","right","i","experimental","1421","2407899","0.0-4.0-8.159","false","160","2.4499999999999993","","",""
"998.9000000059605","4","confid","","","html-slider-response","1423","2409403","0.0-4.0-10.159-0.159","","","","Rate your confidence","1",""
"186.69999998807907","i","choice","right","i","experimental","1430","2411364","0.0-4.0-8.160","true","161","2.5499999999999994","","",""
"1702.2999999821186","6","confid","","","html-slider-response","1432","2413571","0.0-4.0-10.160-0.160","","","","Rate your confidence","1",""
"389.5","e","choice","left","e","experimental","1439","2415748","0.0-4.0-8.161","true","162","2.5499999999999994","","",""
"2207.300000011921","5","confid","","","html-slider-response","1441","2418467","0.0-4.0-10.161-0.161","","","","Rate your confidence","1",""
"213.30000001192093","i","choice","right","i","experimental","1448","2420460","0.0-4.0-8.162","true","163","2.4499999999999993","","",""
"1963.0999999940395","6","confid","","","html-slider-response","1450","2422932","0.0-4.0-10.162-0.162","","","","Rate your confidence","1",""
"257.7999999821186","e","choice","left","e","experimental","1457","2424972","0.0-4.0-8.163","true","164","2.4499999999999993","","",""
"1784.300000011921","4","confid","","","html-slider-response","1459","2427261","0.0-4.0-10.163-0.163","","","","Rate your confidence","1",""
"372.40000000596046","e","choice","left","e","experimental","1466","2429422","0.0-4.0-8.164","true","165","2.349999999999999","","",""
"1326.9000000059605","5","confid","","","html-slider-response","1468","2431253","0.0-4.0-10.164-0.164","","","","Rate your confidence","1",""
"493.2000000178814","i","choice","right","i","experimental","1475","2433525","0.0-4.0-8.165","true","166","2.349999999999999","","",""
"2350.699999988079","3","confid","","","html-slider-response","1477","2436381","0.0-4.0-10.165-0.165","","","","Rate your confidence","1",""
"944.8000000119209","i","choice","left","e","experimental","1484","2439109","0.0-4.0-8.166","false","167","2.249999999999999","","",""
"1496.5","2","confid","","","html-slider-response","1486","2441109","0.0-4.0-10.166-0.166","","","","Rate your confidence","1",""
"423.90000000596046","e","choice","right","i","experimental","1493","2443327","0.0-4.0-8.167","false","168","2.349999999999999","","",""
"1550.5999999940395","4","confid","","","html-slider-response","1495","2445381","0.0-4.0-10.167-0.167","","","","Rate your confidence","1",""
"344.7999999821186","i","choice","right","i","experimental","1502","2447509","0.0-4.0-8.168","true","169","2.4499999999999993","","",""
"1048.9000000059605","5","confid","","","html-slider-response","1504","2449061","0.0-4.0-10.168-0.168","","","","Rate your confidence","1",""
"627.5","e","choice","left","e","experimental","1511","2451478","0.0-4.0-8.169","true","170","2.4499999999999993","","",""
"1231.5999999940395","2","confid","","","html-slider-response","1513","2453213","0.0-4.0-10.169-0.169","","","","Rate your confidence","1",""
"534.6999999880791","i","choice","right","i","experimental","1520","2455557","0.0-4.0-8.170","true","171","2.349999999999999","","",""
"3553.4000000059605","4","confid","","","html-slider-response","1522","2459613","0.0-4.0-10.170-0.170","","","","Rate your confidence","1",""
"791.5999999940395","i","choice","left","e","experimental","1529","2462190","0.0-4.0-8.171","false","172","2.349999999999999","","",""
"1076.699999988079","2","confid","","","html-slider-response","1531","2463773","0.0-4.0-10.171-0.171","","","","Rate your confidence","1",""
"628.7000000178814","i","choice","left","e","experimental","1538","2466214","0.0-4.0-8.172","false","173","2.4499999999999993","","",""
"1733.9000000059605","5","confid","","","html-slider-response","1540","2468453","0.0-4.0-10.172-0.172","","","","Rate your confidence","1",""
"403.7000000178814","i","choice","right","i","experimental","1547","2470638","0.0-4.0-8.173","true","174","2.5499999999999994","","",""
"1262.0999999940395","5","confid","","","html-slider-response","1549","2472405","0.0-4.0-10.173-0.173","","","","Rate your confidence","1",""
"658.2999999821186","i","choice","left","e","experimental","1556","2474837","0.0-4.0-8.174","false","175","2.5499999999999994","","",""
"3360.0999999940395","4","confid","","","html-slider-response","1558","2478701","0.0-4.0-10.174-0.174","","","","Rate your confidence","1",""
"384.19999998807907","e","choice","right","i","experimental","1565","2480861","0.0-4.0-8.175","false","176","2.6499999999999995","","",""
"1359.0999999940395","4","confid","","","html-slider-response","1567","2482725","0.0-4.0-10.175-0.175","","","","Rate your confidence","1",""
"415.69999998807907","i","choice","right","i","experimental","1574","2484917","0.0-4.0-8.176","true","177","2.7499999999999996","","",""
"1209.199999988079","4","confid","","","html-slider-response","1576","2486629","0.0-4.0-10.176-0.176","","","","Rate your confidence","1",""
"347.09999999403954","e","choice","left","e","experimental","1583","2488750","0.0-4.0-8.177","true","178","2.7499999999999996","","",""
"1329.199999988079","5","confid","","","html-slider-response","1585","2490581","0.0-4.0-10.177-0.177","","","","Rate your confidence","1",""
"706","e","choice","left","e","experimental","1592","2493078","0.0-4.0-8.178","true","179","2.6499999999999995","","",""
"2569.0999999940395","3","confid","","","html-slider-response","1594","2496149","0.0-4.0-10.178-0.178","","","","Rate your confidence","1",""
"355.19999998807907","e","choice","right","i","experimental","1601","2498294","0.0-4.0-8.179","false","180","2.6499999999999995","","",""
"2032.0999999940395","5","confid","","","html-slider-response","1603","2500829","0.0-4.0-10.179-0.179","","","","Rate your confidence","1",""
"376.09999999403954","i","choice","right","i","experimental","1610","2503007","0.0-4.0-8.180","true","181","2.7499999999999996","","",""
"1037.699999988079","5","confid","","","html-slider-response","1612","2504549","0.0-4.0-10.180-0.180","","","","Rate your confidence","1",""
"681.8999999761581","i","choice","left","e","experimental","1619","2507013","0.0-4.0-8.181","false","182","2.7499999999999996","","",""
"1536.4000000059605","6","confid","","","html-slider-response","1621","2509053","0.0-4.0-10.181-0.181","","","","Rate your confidence","1",""
"405.89999997615814","e","choice","right","i","experimental","1628","2511238","0.0-4.0-8.182","false","183","2.8499999999999996","","",""
"1751.9000000059605","6","confid","","","html-slider-response","1630","2513493","0.0-4.0-10.182-0.182","","","","Rate your confidence","1",""
"486.09999999403954","e","choice","left","e","experimental","1637","2515767","0.0-4.0-8.183","true","184","2.9499999999999997","","",""
"1142.199999988079","4","confid","","","html-slider-response","1639","2517413","0.0-4.0-10.183-0.183","","","","Rate your confidence","1",""
"821.1000000238419","i","choice","right","i","experimental","1646","2520014","0.0-4.0-8.184","true","185","2.9499999999999997","","",""
"1071.5","4","confid","","","html-slider-response","1648","2521589","0.0-4.0-10.184-0.184","","","","Rate your confidence","1",""
"772.6999999880791","i","choice","left","e","experimental","1655","2524141","0.0-4.0-8.185","false","186","2.8499999999999996","","",""
"1281.5999999940395","5","confid","","","html-slider-response","1657","2525925","0.0-4.0-10.185-0.185","","","","Rate your confidence","1",""
"749.9000000059605","e","choice","left","e","experimental","1664","2528462","0.0-4.0-8.186","true","187","2.9499999999999997","","",""
"1254.0999999940395","5","confid","","","html-slider-response","1666","2530222","0.0-4.0-10.186-0.186","","","","Rate your confidence","1",""
"556.6999999880791","i","choice","right","i","experimental","1673","2532565","0.0-4.0-8.187","true","188","2.9499999999999997","","",""
"3047.699999988079","6","confid","","","html-slider-response","1675","2536117","0.0-4.0-10.187-0.187","","","","Rate your confidence","1",""
"298.19999998807907","i","choice","right","i","experimental","1682","2538190","0.0-4.0-8.188","true","189","2.8499999999999996","","",""
"2214.699999988079","6","confid","","","html-slider-response","1684","2540909","0.0-4.0-10.188-0.188","","","","Rate your confidence","1",""
"628.5999999940395","e","choice","left","e","experimental","1691","2543318","0.0-4.0-8.189","true","190","2.8499999999999996","","",""
"1457.0999999940395","6","confid","","","html-slider-response","1693","2545278","0.0-4.0-10.189-0.189","","","","Rate your confidence","1",""
"488.90000000596046","i","choice","right","i","experimental","1700","2547551","0.0-4.0-8.190","true","191","2.7499999999999996","","",""
"1319.2999999821186","3","confid","","","html-slider-response","1702","2549375","0.0-4.0-10.190-0.190","","","","Rate your confidence","1",""
"492.5","e","choice","left","e","experimental","1709","2551663","0.0-4.0-8.191","true","192","2.7499999999999996","","",""
"1401.1000000238419","5","confid","","","html-slider-response","1711","2553567","0.0-4.0-10.191-0.191","","","","Rate your confidence","1",""
"436.90000000596046","i","choice","right","i","experimental","1718","2555799","0.0-4.0-8.192","true","193","2.6499999999999995","","",""
"1600.8999999761581","6","confid","","","html-slider-response","1720","2557903","0.0-4.0-10.192-0.192","","","","Rate your confidence","1",""
"937.0999999940395","i","choice","left","e","experimental","1727","2560631","0.0-4.0-8.193","false","194","2.6499999999999995","","",""
"2696.5999999940395","5","confid","","","html-slider-response","1729","2563831","0.0-4.0-10.193-0.193","","","","Rate your confidence","1","38342"
