"rt","response","task","target_side","correct_response","trial_type","trial_index","time_elapsed","internal_node_id","correct","trial_number","n_dots","stimulus","slider_start","participant"
"1712.300000011921","i","choice","right","i","practice","10","75990","0.0-4.0-8.0","true","1","4.25","","",""
"1280.699999988079","i","choice","left","e","practice","18","79582","0.0-4.0-8.1","false","2","4.25","","",""
"156.19999998807907","e","choice","left","e","practice","26","82054","0.0-4.0-8.2","true","3","4.65","","",""
"254.39999997615814","i","choice","right","i","practice","34","84598","0.0-4.0-8.3","true","4","4.65","","",""
"272.69999998807907","e","choice","left","e","practice","42","87174","0.0-4.0-8.4","true","5","4.25","","",""
"88.40000003576279","i","choice","right","i","practice","50","89558","0.0-4.0-8.5","true","6","4.25","","",""
"1805.1000000238419","e","choice","left","e","practice","58","93670","0.0-4.0-8.6","true","7","4.05","","",""
"72.19999998807907","i","choice","right","i","practice","66","96030","0.0-4.0-8.7","true","8","4.05","","",""
"416","e","choice","left","e","practice","74","98741","0.0-4.0-8.8","true","9","3.8499999999999996","","",""
"28.30000001192093","i","choice","right","i","practice","82","101078","0.0-4.0-8.9","true","10","3.8499999999999996","","",""
"943.6999999880791","i","choice","left","e","practice","90","104326","0.0-4.0-8.10","false","11","3.6499999999999995","","",""
"345.30000001192093","i","choice","right","i","practice","98","106958","0.0-4.0-8.11","true","12","3.7499999999999996","","",""
"316.80000001192093","i","choice","right","i","practice","106","109557","0.0-4.0-8.12","true","13","3.7499999999999996","","",""
"292.10000002384186","e","choice","left","e","practice","114","112149","0.0-4.0-8.13","true","14","3.6499999999999995","","",""
"92.19999998807907","e","choice","left","e","practice","122","114526","0.0-4.0-8.14","true","15","3.6499999999999995","","",""
"559.8000000119209","i","choice","right","i","practice","130","117374","0.0-4.0-8.15","true","16","3.5499999999999994","","",""
"1961.199999988079","e","choice","right","i","practice","138","121637","0.0-4.0-8.16","false","17","3.5499999999999994","","",""
"263.5","i","choice","left","e","practice","146","124213","0.0-4.0-8.17","false","18","3.6499999999999995","","",""
"564.8000000119209","i","choice","right","i","practice","154","127061","0.0-4.0-8.18","true","19","3.7499999999999996","","",""
"122.60000002384186","e","choice","left","e","practice","162","129469","0.0-4.0-8.19","true","20","3.7499999999999996","","",""
"736.6000000238419","e","choice","right","i","practice","170","132509","0.0-4.0-8.20","false","21","3.6499999999999995","","",""
"867","i","choice","left","e","practice","178","135677","0.0-4.0-8.21","false","22","3.7499999999999996","","",""
"439.10000002384186","i","choice","right","i","practice","186","138421","0.0-4.0-8.22","true","23","3.8499999999999996","","",""
"140.30000001192093","e","choice","left","e","practice","194","140853","0.0-4.0-8.23","true","24","3.8499999999999996","","",""
"266.60000002384186","e","choice","left","e","practice","202","143429","0.0-4.0-8.24","true","25","3.7499999999999996","","",""
"1776.2999999523163","e","choice","right","i","practice","210","147517","0.0-4.0-8.25","false","26","3.7499999999999996","","",""
"276.9000000357628","i","choice","right","i","experimental","221","209475","0.0-4.0-8.26","true","27","3.8499999999999996","","",""
"4227.200000047684","5","confid","","","html-slider-response","223","214207","0.0-4.0-10.26-0.26","","","","Rate your confidence","1",""
"1173.0999999642372","e","choice","left","e","experimental","230","217163","0.0-4.0-8.27","true","28","3.8499999999999996","","",""
"6068.600000023842","2","confid","","","html-slider-response","232","223734","0.0-4.0-10.27-0.27","","","","Rate your confidence","1",""
"1310.800000011921","i","choice","right","i","experimental","239","226827","0.0-4.0-8.28","true","29","3.7499999999999996","","",""
"3281.800000011921","6","confid","","","html-slider-response","241","230630","0.0-4.0-10.28-0.28","","","","Rate your confidence","1",""
"3206","e","choice","left","e","experimental","248","235627","0.0-4.0-8.29","true","30","3.7499999999999996","","",""
"6468.399999976158","3","confid","","","html-slider-response","250","242598","0.0-4.0-10.29-0.29","","","","Rate your confidence","1",""
"2829.699999988079","i","choice","left","e","experimental","257","247235","0.0-4.0-8.30","false","31","3.6499999999999995","","",""
"2618.7999999523163","4","confid","","","html-slider-response","259","250358","0.0-4.0-10.30-0.30","","","","Rate your confidence","1",""
"1450.5999999642372","i","choice","right","i","experimental","266","253594","0.0-4.0-8.31","true","32","3.7499999999999996","","",""
"2378.599999964237","5","confid","","","html-slider-response","268","256478","0.0-4.0-10.31-0.31","","","","Rate your confidence","1",""
"1418.800000011921","i","choice","right","i","experimental","275","259698","0.0-4.0-8.32","true","33","3.7499999999999996","","",""
"2409.199999988079","6","confid","","","html-slider-response","277","262614","0.0-4.0-10.32-0.32","","","","Rate your confidence","1",""
"1764.9000000357628","e","choice","left","e","experimental","284","266162","0.0-4.0-8.33","true","34","3.6499999999999995","","",""
"3813.099999964237","2","confid","","","html-slider-response","286","270478","0.0-4.0-10.33-0.33","","","","Rate your confidence","1",""
"4441.899999976158","e","choice","left","e","experimental","293","276706","0.0-4.0-8.34","true","35","3.6499999999999995","","",""
"3830.899999976158","2","confid","","","html-slider-response","295","281041","0.0-4.0-10.34-0.34","","","","Rate your confidence","1",""
"1661.8999999761581","i","choice","right","i","experimental","302","284490","0.0-4.0-8.35","true","36","3.5499999999999994","","",""
"5260.300000011921","5","confid","","","html-slider-response","304","290253","0.0-4.0-10.35-0.35","","","","Rate your confidence","1",""
"1438.6000000238419","i","choice","left","e","experimental","311","293490","0.0-4.0-8.36","false","37","3.5499999999999994","","",""
"3963.5","5","confid","","","html-slider-response","313","297957","0.0-4.0-10.36-0.36","","","","Rate your confidence","1",""
"1259.300000011921","i","choice","right","i","experimental","320","301010","0.0-4.0-8.37","true","38","3.6499999999999995","","",""
"2972.199999988079","5","confid","","","html-slider-response","322","304485","0.0-4.0-10.37-0.37","","","","Rate your confidence","1",""
"1834.300000011921","i","choice","right","i","experimental","329","308098","0.0-4.0-8.38","true","39","3.6499999999999995","","",""
"3706.100000023842","5","confid","","","html-slider-response","331","312309","0.0-4.0-10.38-0.38","","","","Rate your confidence","1",""
"2893.100000023842","e","choice","left","e","experimental","338","317001","0.0-4.0-8.39","true","40","3.5499999999999994","","",""
"3490.5","4","confid","","","html-slider-response","340","320996","0.0-4.0-10.39-0.39","","","","Rate your confidence","1",""
"1347","i","choice","right","i","experimental","347","324129","0.0-4.0-8.40","true","41","3.5499999999999994","","",""
"2970.899999976158","6","confid","","","html-slider-response","349","327605","0.0-4.0-10.40-0.40","","","","Rate your confidence","1",""
"3380.5","i","choice","left","e","experimental","356","332769","0.0-4.0-8.41","false","42","3.4499999999999993","","",""
"2900.199999988079","3","confid","","","html-slider-response","358","336172","0.0-4.0-10.41-0.41","","","","Rate your confidence","1",""
"4280.100000023842","e","choice","left","e","experimental","365","342257","0.0-4.0-8.42","true","43","3.5499999999999994","","",""
"2347.699999988079","2","confid","","","html-slider-response","367","345108","0.0-4.0-10.42-0.42","","","","Rate your confidence","1",""
"1483.5","i","choice","right","i","experimental","374","348384","0.0-4.0-8.43","true","44","3.5499999999999994","","",""
"2684.5","5","confid","","","html-slider-response","376","351572","0.0-4.0-10.43-0.43","","","","Rate your confidence","1",""
"1544.5999999642372","e","choice","left","e","experimental","383","354904","0.0-4.0-8.44","true","45","3.4499999999999993","","",""
"2542.399999976158","3","confid","","","html-slider-response","385","357964","0.0-4.0-10.44-0.44","","","","Rate your confidence","1",""
"1454.5","i","choice","right","i","experimental","392","361208","0.0-4.0-8.45","true","46","3.4499999999999993","","",""
"2903","4","confid","","","html-slider-response","394","364615","0.0-4.0-10.45-0.45","","","","Rate your confidence","1",""
"1271.5999999642372","i","choice","right","i","experimental","401","367680","0.0-4.0-8.46","true","47","3.349999999999999","","",""
"2516.2999999523163","4","confid","","","html-slider-response","403","370699","0.0-4.0-10.46-0.46","","","","Rate your confidence","1",""
"1489.9000000357628","e","choice","left","e","experimental","410","373992","0.0-4.0-8.47","true","48","3.349999999999999","","",""
"2149.099999964237","3","confid","","","html-slider-response","412","376647","0.0-4.0-10.47-0.47","","","","Rate your confidence","1",""
"1762.6000000238419","e","choice","right","i","experimental","419","380192","0.0-4.0-8.48","false","49","3.249999999999999","","",""
"2789.800000011921","2","confid","","","html-slider-response","421","383487","0.0-4.0-10.48-0.48","","","","Rate your confidence","1",""
"1093.5","e","choice","left","e","experimental","428","386368","0.0-4.0-8.49","true","50","3.349999999999999","","",""
"2444.600000023842","4","confid","","","html-slider-response","430","389315","0.0-4.0-10.49-0.49","","","","Rate your confidence","1",""
"1500.300000011921","i","choice","right","i","experimental","437","392616","0.0-4.0-8.50","true","51","3.349999999999999","","",""
"3240","2","confid","","","html-slider-response","439","396359","0.0-4.0-10.50-0.50","","","","Rate your confidence","1",""
"1478.5","i","choice","left","e","experimental","446","399631","0.0-4.0-8.51","false","52","3.249999999999999","","",""
"2704.399999976158","3","confid","","","html-slider-response","448","402839","0.0-4.0-10.51-0.51","","","","Rate your confidence","1",""
"3158.199999988079","e","choice","left","e","experimental","455","407775","0.0-4.0-8.52","true","53","3.349999999999999","","",""
"2548.300000011921","3","confid","","","html-slider-response","457","410827","0.0-4.0-10.52-0.52","","","","Rate your confidence","1",""
"1185.6000000238419","i","choice","right","i","experimental","464","413799","0.0-4.0-8.53","true","54","3.349999999999999","","",""
"3436.5","5","confid","","","html-slider-response","466","417738","0.0-4.0-10.53-0.53","","","","Rate your confidence","1",""
"1647","i","choice","left","e","experimental","473","421167","0.0-4.0-8.54","false","55","3.249999999999999","","",""
"2568.699999988079","4","confid","","","html-slider-response","475","424238","0.0-4.0-10.54-0.54","","","","Rate your confidence","1",""
"1375","i","choice","right","i","experimental","482","427415","0.0-4.0-8.55","true","56","3.349999999999999","","",""
"4071.5","4","confid","","","html-slider-response","484","431990","0.0-4.0-10.55-0.55","","","","Rate your confidence","1",""
"1331.699999988079","i","choice","right","i","experimental","491","435127","0.0-4.0-8.56","true","57","3.349999999999999","","",""
"2350.2999999523163","4","confid","","","html-slider-response","493","437982","0.0-4.0-10.56-0.56","","","","Rate your confidence","1",""
"1564.3999999761581","e","choice","left","e","experimental","500","441327","0.0-4.0-8.57","true","58","3.249999999999999","","",""
"3432.5","2","confid","","","html-slider-response","502","445262","0.0-4.0-10.57-0.57","","","","Rate your confidence","1",""
"1382.5999999642372","i","choice","right","i","experimental","509","448430","0.0-4.0-8.58","true","59","3.249999999999999","","",""
"2753.5","5","confid","","","html-slider-response","511","451690","0.0-4.0-10.58-0.58","","","","Rate your confidence","1",""
"966.9000000357628","e","choice","left","e","experimental","518","454439","0.0-4.0-8.59","true","60","3.149999999999999","","",""
"2687.599999964237","3","confid","","","html-slider-response","520","457629","0.0-4.0-10.59-0.59","","","","Rate your confidence","1",""
"1616.8999999761581","i","choice","right","i","experimental","527","461046","0.0-4.0-8.60","true","61","3.149999999999999","","",""
"4760","1","confid","","","html-slider-response","529","466309","0.0-4.0-10.60-0.60","","","","Rate your confidence","1",""
"3238.099999964237","e","choice","left","e","experimental","536","471334","0.0-4.0-8.61","true","62","3.049999999999999","","",""
"2613.7000000476837","1","confid","","","html-slider-response","538","474453","0.0-4.0-10.61-0.61","","","","Rate your confidence","1",""
"2717.399999976158","i","choice","left","e","experimental","545","478957","0.0-4.0-8.62","false","63","3.049999999999999","","",""
"2785.2000000476837","2","confid","","","html-slider-response","547","482245","0.0-4.0-10.62-0.62","","","","Rate your confidence","1",""
"1722.800000011921","i","choice","right","i","experimental","554","485741","0.0-4.0-8.63","true","64","3.149999999999999","","",""
"2877.199999988079","3","confid","","","html-slider-response","556","489125","0.0-4.0-10.63-0.63","","","","Rate your confidence","1",""
"1073.800000011921","i","choice","right","i","experimental","563","491981","0.0-4.0-8.64","true","65","3.149999999999999","","",""
"2497","4","confid","","","html-slider-response","565","494980","0.0-4.0-10.64-0.64","","","","Rate your confidence","1",""
"1132.800000011921","e","choice","left","e","experimental","572","497893","0.0-4.0-8.65","true","66","3.049999999999999","","",""
"3382.099999964237","4","confid","","","html-slider-response","574","501780","0.0-4.0-10.65-0.65","","","","Rate your confidence","1",""
"645.9000000357628","e","choice","left","e","experimental","581","504221","0.0-4.0-8.66","true","67","3.049999999999999","","",""
"3624.099999964237","3","confid","","","html-slider-response","583","508348","0.0-4.0-10.66-0.66","","","","Rate your confidence","1",""
"1330","i","choice","right","i","experimental","590","511453","0.0-4.0-8.67","true","68","2.949999999999999","","",""
"2704.800000011921","5","confid","","","html-slider-response","592","514660","0.0-4.0-10.67-0.67","","","","Rate your confidence","1",""
"1117.5","i","choice","right","i","experimental","600","559932","0.0-4.0-8.68","true","69","2.949999999999999","","",""
"3579.699999988079","5","confid","","","html-slider-response","602","564023","0.0-4.0-10.68-0.68","","","","Rate your confidence","1",""
"1351","i","choice","left","e","experimental","609","567156","0.0-4.0-8.69","false","70","2.8499999999999988","","",""
"2752.899999976158","4","confid","","","html-slider-response","611","570411","0.0-4.0-10.69-0.69","","","","Rate your confidence","1",""
"1113.800000011921","i","choice","right","i","experimental","618","573315","0.0-4.0-8.70","true","71","2.949999999999999","","",""
"5687.100000023842","4","confid","","","html-slider-response","620","579507","0.0-4.0-10.70-0.70","","","","Rate your confidence","1",""
"1614.4000000357628","e","choice","left","e","experimental","627","582899","0.0-4.0-8.71","true","72","2.949999999999999","","",""
"4999.099999964237","3","confid","","","html-slider-response","629","588402","0.0-4.0-10.71-0.71","","","","Rate your confidence","1",""
"1001.3999999761581","i","choice","right","i","experimental","636","591179","0.0-4.0-8.72","true","73","2.8499999999999988","","",""
"2625.300000011921","5","confid","","","html-slider-response","638","594306","0.0-4.0-10.72-0.72","","","","Rate your confidence","1",""
"2283.800000011921","e","choice","left","e","experimental","645","598371","0.0-4.0-8.73","true","74","2.8499999999999988","","",""
"3536.599999964237","3","confid","","","html-slider-response","647","602410","0.0-4.0-10.73-0.73","","","","Rate your confidence","1",""
"1292","i","choice","left","e","experimental","654","605483","0.0-4.0-8.74","false","75","2.7499999999999987","","",""
"2817","4","confid","","","html-slider-response","656","608802","0.0-4.0-10.74-0.74","","","","Rate your confidence","1",""
"1090.7999999523163","i","choice","right","i","experimental","663","611667","0.0-4.0-8.75","true","76","2.8499999999999988","","",""
"2621.900000035763","4","confid","","","html-slider-response","665","614794","0.0-4.0-10.75-0.75","","","","Rate your confidence","1",""
"3074.600000023842","e","choice","left","e","experimental","672","619659","0.0-4.0-8.76","true","77","2.8499999999999988","","",""
"3272.199999988079","1","confid","","","html-slider-response","674","623434","0.0-4.0-10.76-0.76","","","","Rate your confidence","1",""
"1519.9000000357628","i","choice","right","i","experimental","681","626730","0.0-4.0-8.77","true","78","2.7499999999999987","","",""
"3221.699999988079","5","confid","","","html-slider-response","683","630457","0.0-4.0-10.77-0.77","","","","Rate your confidence","1",""
"1538.3999999761581","i","choice","left","e","experimental","690","633778","0.0-4.0-8.78","false","79","2.7499999999999987","","",""
"2822.5","3","confid","","","html-slider-response","692","637105","0.0-4.0-10.78-0.78","","","","Rate your confidence","1",""
"1087","i","choice","right","i","experimental","699","639986","0.0-4.0-8.79","true","80","2.8499999999999988","","",""
"3692.800000011921","4","confid","","","html-slider-response","701","644181","0.0-4.0-10.79-0.79","","","","Rate your confidence","1",""
"1196","i","choice","right","i","experimental","708","647170","0.0-4.0-8.80","true","81","2.8499999999999988","","",""
"2926.100000023842","4","confid","","","html-slider-response","710","650601","0.0-4.0-10.80-0.80","","","","Rate your confidence","1",""
"1355.199999988079","e","choice","left","e","experimental","717","653738","0.0-4.0-8.81","true","82","2.7499999999999987","","",""
"2500.899999976158","3","confid","","","html-slider-response","719","656741","0.0-4.0-10.81-0.81","","","","Rate your confidence","1",""
"464.69999998807907","e","choice","left","e","experimental","726","658978","0.0-4.0-8.82","true","83","2.7499999999999987","","",""
"3470.800000011921","4","confid","","","html-slider-response","728","662953","0.0-4.0-10.82-0.82","","","","Rate your confidence","1",""
"906.8000000119209","i","choice","right","i","experimental","735","665642","0.0-4.0-8.83","true","84","2.6499999999999986","","",""
"2918.100000023842","4","confid","","","html-slider-response","737","669073","0.0-4.0-10.83-0.83","","","","Rate your confidence","1",""
"3349.800000011921","e","choice","right","i","experimental","744","674201","0.0-4.0-8.84","false","85","2.6499999999999986","","",""
"3040.600000023842","2","confid","","","html-slider-response","746","677744","0.0-4.0-10.84-0.84","","","","Rate your confidence","1",""
"965.6999999880791","e","choice","left","e","experimental","753","680497","0.0-4.0-8.85","true","86","2.7499999999999987","","",""
"2607.900000035763","2","confid","","","html-slider-response","755","683609","0.0-4.0-10.85-0.85","","","","Rate your confidence","1",""
"667.6999999880791","e","choice","left","e","experimental","762","686057","0.0-4.0-8.86","true","87","2.7499999999999987","","",""
"3205.099999964237","3","confid","","","html-slider-response","764","689764","0.0-4.0-10.86-0.86","","","","Rate your confidence","1",""
"1834.800000011921","i","choice","right","i","experimental","771","693385","0.0-4.0-8.87","true","88","2.6499999999999986","","",""
"2817.800000011921","3","confid","","","html-slider-response","773","696708","0.0-4.0-10.87-0.87","","","","Rate your confidence","1",""
"984","e","choice","left","e","experimental","780","699481","0.0-4.0-8.88","true","89","2.6499999999999986","","",""
"2236.899999976158","3","confid","","","html-slider-response","782","702220","0.0-4.0-10.88-0.88","","","","Rate your confidence","1",""
"949.8999999761581","i","choice","right","i","experimental","789","704953","0.0-4.0-8.89","true","90","2.5499999999999985","","",""
"2468.900000035763","4","confid","","","html-slider-response","791","707924","0.0-4.0-10.89-0.89","","","","Rate your confidence","1",""
"1008.5999999642372","i","choice","right","i","experimental","798","710713","0.0-4.0-8.90","true","91","2.5499999999999985","","",""
"2364.699999988079","5","confid","","","html-slider-response","800","713580","0.0-4.0-10.90-0.90","","","","Rate your confidence","1",""
"807.1000000238419","e","choice","left","e","experimental","807","716184","0.0-4.0-8.91","true","92","2.4499999999999984","","",""
"2522.5","4","confid","","","html-slider-response","809","719212","0.0-4.0-10.91-0.91","","","","Rate your confidence","1",""
"1225.199999988079","i","choice","right","i","experimental","816","722233","0.0-4.0-8.92","true","93","2.4499999999999984","","",""
"3105.800000011921","5","confid","","","html-slider-response","818","725843","0.0-4.0-10.92-0.92","","","","Rate your confidence","1",""
"1372.3999999761581","i","choice","left","e","experimental","825","728992","0.0-4.0-8.93","false","94","2.3499999999999983","","",""
"2619.199999988079","3","confid","","","html-slider-response","827","732115","0.0-4.0-10.93-0.93","","","","Rate your confidence","1",""
"991.5999999642372","i","choice","right","i","experimental","834","734888","0.0-4.0-8.94","true","95","2.4499999999999984","","",""
"2617.399999976158","5","confid","","","html-slider-response","836","738011","0.0-4.0-10.94-0.94","","","","Rate your confidence","1",""
"1820.7000000476837","i","choice","left","e","experimental","843","741624","0.0-4.0-8.95","false","96","2.4499999999999984","","",""
"2961.800000011921","3","confid","","","html-slider-response","845","745091","0.0-4.0-10.95-0.95","","","","Rate your confidence","1",""
"1080","i","choice","right","i","experimental","852","747944","0.0-4.0-8.96","true","97","2.5499999999999985","","",""
"2427.399999976158","4","confid","","","html-slider-response","854","750875","0.0-4.0-10.96-0.96","","","","Rate your confidence","1",""
"1037.0999999642372","i","choice","left","e","experimental","861","753704","0.0-4.0-8.97","false","98","2.5499999999999985","","",""
"3628.7000000476837","5","confid","","","html-slider-response","863","757835","0.0-4.0-10.97-0.97","","","","Rate your confidence","1",""
"2873.5","i","choice","left","e","experimental","870","762487","0.0-4.0-8.98","false","99","2.6499999999999986","","",""
"2488.800000011921","2","confid","","","html-slider-response","872","765479","0.0-4.0-10.98-0.98","","","","Rate your confidence","1",""
"1024.699999988079","i","choice","right","i","experimental","879","768280","0.0-4.0-8.99","true","100","2.7499999999999987","","",""
"2816.800000011921","5","confid","","","html-slider-response","881","771599","0.0-4.0-10.99-0.99","","","","Rate your confidence","1",""
"1181.8999999761581","e","choice","left","e","experimental","888","774567","0.0-4.0-8.100","true","101","2.7499999999999987","","",""
"2140.5","2","confid","","","html-slider-response","890","777211","0.0-4.0-10.100-0.100","","","","Rate your confidence","1",""
"1072.699999988079","i","choice","right","i","experimental","897","780071","0.0-4.0-8.101","true","102","2.6499999999999986","","",""
"2852.800000011921","4","confid","","","html-slider-response","899","783430","0.0-4.0-10.101-0.101","","","","Rate your confidence","1",""
"1623.1000000238419","e","choice","left","e","experimental","906","786839","0.0-4.0-8.102","true","103","2.6499999999999986","","",""
"2300.899999976158","2","confid","","","html-slider-response","908","789642","0.0-4.0-10.102-0.102","","","","Rate your confidence","1",""
"1298.199999988079","i","choice","right","i","experimental","915","792719","0.0-4.0-8.103","true","104","2.5499999999999985","","",""
"2619.599999964237","5","confid","","","html-slider-response","917","795842","0.0-4.0-10.103-0.103","","","","Rate your confidence","1",""
"1856.5999999642372","i","choice","right","i","experimental","924","799479","0.0-4.0-8.104","true","105","2.5499999999999985","","",""
"4630.800000011921","1","confid","","","html-slider-response","926","804614","0.0-4.0-10.104-0.104","","","","Rate your confidence","1",""
"1277.5","e","choice","left","e","experimental","933","807679","0.0-4.0-8.105","true","106","2.4499999999999984","","",""
"2602","2","confid","","","html-slider-response","935","810786","0.0-4.0-10.105-0.105","","","","Rate your confidence","1",""
"749.6999999880791","e","choice","left","e","experimental","942","813311","0.0-4.0-8.106","true","107","2.4499999999999984","","",""
"3091.699999988079","2","confid","","","html-slider-response","944","816906","0.0-4.0-10.106-0.106","","","","Rate your confidence","1",""
"1249.699999988079","i","choice","right","i","experimental","951","819942","0.0-4.0-8.107","true","108","2.3499999999999983","","",""
"2460.400000035763","5","confid","","","html-slider-response","953","822906","0.0-4.0-10.107-0.107","","","","Rate your confidence","1",""
"1190.300000011921","i","choice","right","i","experimental","960","825878","0.0-4.0-8.108","true","109","2.3499999999999983","","",""
"3617.7000000476837","5","confid","","","html-slider-response","962","830001","0.0-4.0-10.108-0.108","","","","Rate your confidence","1",""
"423.7000000476837","i","choice","left","e","experimental","969","832206","0.0-4.0-8.109","false","110","2.2499999999999982","","",""
"2700.300000011921","5","confid","","","html-slider-response","971","835410","0.0-4.0-10.109-0.109","","","","Rate your confidence","1",""
"2542.899999976158","i","choice","left","e","experimental","979","873398","0.0-4.0-8.110","false","111","2.3499999999999983","","",""
"3380.300000011921","2","confid","","","html-slider-response","981","877280","0.0-4.0-10.110-0.110","","","","Rate your confidence","1",""
"853.5","i","choice","right","i","experimental","988","879917","0.0-4.0-8.111","true","112","2.4499999999999984","","",""
"2084.800000011921","4","confid","","","html-slider-response","990","882504","0.0-4.0-10.111-0.111","","","","Rate your confidence","1",""
"995.5","i","choice","right","i","experimental","997","885285","0.0-4.0-8.112","true","113","2.4499999999999984","","",""
"2076.5","5","confid","","","html-slider-response","999","887864","0.0-4.0-10.112-0.112","","","","Rate your confidence","1",""
"1826.4000000357628","i","choice","left","e","experimental","1006","891485","0.0-4.0-8.113","false","114","2.3499999999999983","","",""
"2699.900000035763","3","confid","","","html-slider-response","1008","894688","0.0-4.0-10.113-0.113","","","","Rate your confidence","1",""
"1677.5","i","choice","left","e","experimental","1015","898141","0.0-4.0-8.114","false","115","2.4499999999999984","","",""
"2525","3","confid","","","html-slider-response","1017","901168","0.0-4.0-10.114-0.114","","","","Rate your confidence","1",""
"478.69999998807907","i","choice","right","i","experimental","1024","903429","0.0-4.0-8.115","true","116","2.5499999999999985","","",""
"2612.7000000476837","3","confid","","","html-slider-response","1026","906544","0.0-4.0-10.115-0.115","","","","Rate your confidence","1",""
"1789.7999999523163","e","choice","left","e","experimental","1033","910108","0.0-4.0-8.116","true","117","2.5499999999999985","","",""
"1963.4000000357628","2","confid","","","html-slider-response","1035","912576","0.0-4.0-10.116-0.116","","","","Rate your confidence","1",""
"3372.100000023842","i","choice","right","i","experimental","1042","917741","0.0-4.0-8.117","true","118","2.4499999999999984","","",""
"2314","2","confid","","","html-slider-response","1044","920559","0.0-4.0-10.117-0.117","","","","Rate your confidence","1",""
"1538.2999999523163","e","choice","left","e","experimental","1051","923884","0.0-4.0-8.118","true","119","2.4499999999999984","","",""
"2248.2000000476837","3","confid","","","html-slider-response","1053","926635","0.0-4.0-10.118-0.118","","","","Rate your confidence","1",""
"976.9000000357628","i","choice","right","i","experimental","1060","929389","0.0-4.0-8.119","true","120","2.3499999999999983","","",""
"2185","4","confid","","","html-slider-response","1062","932079","0.0-4.0-10.119-0.119","","","","Rate your confidence","1",""
"970.6999999880791","i","choice","right","i","experimental","1069","934828","0.0-4.0-8.120","true","121","2.3499999999999983","","",""
"3604.800000011921","4","confid","","","html-slider-response","1071","938935","0.0-4.0-10.120-0.120","","","","Rate your confidence","1",""
"1209.2000000476837","e","choice","left","e","experimental","1078","941916","0.0-4.0-8.121","true","122","2.2499999999999982","","",""
"2644.599999964237","4","confid","","","html-slider-response","1080","945063","0.0-4.0-10.121-0.121","","","","Rate your confidence","1",""
"2337","i","choice","right","i","experimental","1087","949188","0.0-4.0-8.122","true","123","2.2499999999999982","","",""
"2010.3999999761581","2","confid","","","html-slider-response","1089","951703","0.0-4.0-10.122-0.122","","","","Rate your confidence","1",""
"1363.1000000238419","i","choice","left","e","experimental","1096","954860","0.0-4.0-8.123","false","124","2.149999999999998","","",""
"2892.900000035763","2","confid","","","html-slider-response","1098","958255","0.0-4.0-10.123-0.123","","","","Rate your confidence","1",""
"434.5999999642372","i","choice","right","i","experimental","1105","960476","0.0-4.0-8.124","true","125","2.2499999999999982","","",""
"2136","2","confid","","","html-slider-response","1107","963126","0.0-4.0-10.124-0.124","","","","Rate your confidence","1",""
"550.4000000357628","i","choice","left","e","experimental","1114","965460","0.0-4.0-8.125","false","126","2.2499999999999982","","",""
"2524.600000023842","3","confid","","","html-slider-response","1116","968486","0.0-4.0-10.125-0.125","","","","Rate your confidence","1",""
"682.3000000119209","i","choice","right","i","experimental","1123","970963","0.0-4.0-8.126","true","127","2.3499999999999983","","",""
"3068.899999976158","3","confid","","","html-slider-response","1125","974534","0.0-4.0-10.126-0.126","","","","Rate your confidence","1",""
"747.3000000119209","i","choice","left","e","experimental","1132","977059","0.0-4.0-8.127","false","128","2.3499999999999983","","",""
"2343.5","2","confid","","","html-slider-response","1134","979906","0.0-4.0-10.127-0.127","","","","Rate your confidence","1",""
"423.7999999523163","i","choice","right","i","experimental","1141","982123","0.0-4.0-8.128","true","129","2.4499999999999984","","",""
"2778.7000000476837","2","confid","","","html-slider-response","1143","985406","0.0-4.0-10.128-0.128","","","","Rate your confidence","1",""
"46.5","i","choice","left","e","experimental","1150","987243","0.0-4.0-8.129","false","130","2.4499999999999984","","",""
"2477.100000023842","4","confid","","","html-slider-response","1152","990222","0.0-4.0-10.129-0.129","","","","Rate your confidence","1",""
"224.19999998807907","i","choice","right","i","experimental","1159","992227","0.0-4.0-8.130","true","131","2.5499999999999985","","",""
"2493","4","confid","","","html-slider-response","1161","995222","0.0-4.0-10.130-0.130","","","","Rate your confidence","1",""
"2319.300000011921","e","choice","left","e","experimental","1168","999323","0.0-4.0-8.131","true","132","2.5499999999999985","","",""
"2640.5","2","confid","","","html-slider-response","1170","1002466","0.0-4.0-10.131-0.131","","","","Rate your confidence","1",""
"1466.199999988079","i","choice","right","i","experimental","1177","1005723","0.0-4.0-8.132","true","133","2.4499999999999984","","",""
"1996.8999999761581","4","confid","","","html-slider-response","1179","1008222","0.0-4.0-10.132-0.132","","","","Rate your confidence","1",""
"1755.3999999761581","e","choice","left","e","experimental","1186","1011771","0.0-4.0-8.133","true","134","2.4499999999999984","","",""
"2160.599999964237","2","confid","","","html-slider-response","1188","1014434","0.0-4.0-10.133-0.133","","","","Rate your confidence","1",""
"1227.7999999523163","i","choice","right","i","experimental","1195","1017434","0.0-4.0-8.134","true","135","2.3499999999999983","","",""
"2909.800000011921","3","confid","","","html-slider-response","1197","1020849","0.0-4.0-10.134-0.134","","","","Rate your confidence","1",""
"1143.3999999761581","i","choice","left","e","experimental","1204","1023778","0.0-4.0-8.135","false","136","2.3499999999999983","","",""
"3166.399999976158","3","confid","","","html-slider-response","1206","1027449","0.0-4.0-10.135-0.135","","","","Rate your confidence","1",""
"265.10000002384186","i","choice","right","i","experimental","1213","1029506","0.0-4.0-8.136","true","137","2.4499999999999984","","",""
"2615.300000011921","4","confid","","","html-slider-response","1215","1032625","0.0-4.0-10.136-0.136","","","","Rate your confidence","1",""
"1663.2000000476837","e","choice","left","e","experimental","1222","1036082","0.0-4.0-8.137","true","138","2.4499999999999984","","",""
"3239.800000011921","2","confid","","","html-slider-response","1224","1039825","0.0-4.0-10.137-0.137","","","","Rate your confidence","1",""
"1280.7999999523163","i","choice","left","e","experimental","1231","1042882","0.0-4.0-8.138","false","139","2.3499999999999983","","",""
"2310.800000011921","5","confid","","","html-slider-response","1233","1045705","0.0-4.0-10.138-0.138","","","","Rate your confidence","1",""
"1790.5","e","choice","right","i","experimental","1240","1049282","0.0-4.0-8.139","false","140","2.4499999999999984","","",""
"2901.599999964237","2","confid","","","html-slider-response","1242","1052689","0.0-4.0-10.139-0.139","","","","Rate your confidence","1",""
"1395.6000000238419","i","choice","right","i","experimental","1249","1055858","0.0-4.0-8.140","true","141","2.5499999999999985","","",""
"2600.2000000476837","2","confid","","","html-slider-response","1251","1058961","0.0-4.0-10.140-0.140","","","","Rate your confidence","1",""
"1631.8999999761581","e","choice","left","e","experimental","1258","1062378","0.0-4.0-8.141","true","142","2.5499999999999985","","",""
"3256.099999964237","2","confid","","","html-slider-response","1260","1066136","0.0-4.0-10.141-0.141","","","","Rate your confidence","1",""
"1569.3999999761581","i","choice","left","e","experimental","1267","1069489","0.0-4.0-8.142","false","143","2.4499999999999984","","",""
"2544.600000023842","3","confid","","","html-slider-response","1269","1072536","0.0-4.0-10.142-0.142","","","","Rate your confidence","1",""
"437.4000000357628","i","choice","right","i","experimental","1276","1074753","0.0-4.0-8.143","true","144","2.5499999999999985","","",""
"4376.5","5","confid","","","html-slider-response","1278","1079632","0.0-4.0-10.143-0.143","","","","Rate your confidence","1",""
"79.39999997615814","i","choice","right","i","experimental","1285","1081489","0.0-4.0-8.144","true","145","2.5499999999999985","","",""
"3704.899999976158","5","confid","","","html-slider-response","1287","1085696","0.0-4.0-10.144-0.144","","","","Rate your confidence","1",""
"1789.5","e","choice","left","e","experimental","1294","1089265","0.0-4.0-8.145","true","146","2.4499999999999984","","",""
"2335.5","4","confid","","","html-slider-response","1296","1092104","0.0-4.0-10.145-0.145","","","","Rate your confidence","1",""
"1079.5","i","choice","right","i","experimental","1303","1094977","0.0-4.0-8.146","true","147","2.4499999999999984","","",""
"2439.900000035763","5","confid","","","html-slider-response","1305","1097920","0.0-4.0-10.146-0.146","","","","Rate your confidence","1",""
"1500.5999999642372","e","choice","left","e","experimental","1312","1101217","0.0-4.0-8.147","true","148","2.3499999999999983","","",""
"2607.399999976158","2","confid","","","html-slider-response","1314","1104327","0.0-4.0-10.147-0.147","","","","Rate your confidence","1",""
"1070.1000000238419","i","choice","left","e","experimental","1321","1107177","0.0-4.0-8.148","false","149","2.3499999999999983","","",""
"1896.5","4","confid","","","html-slider-response","1323","1109576","0.0-4.0-10.148-0.148","","","","Rate your confidence","1",""
"389.80000001192093","i","choice","right","i","experimental","1330","1111752","0.0-4.0-8.149","true","150","2.4499999999999984","","",""
"4263.599999964237","4","confid","","","html-slider-response","1332","1116519","0.0-4.0-10.149-0.149","","","","Rate your confidence","1",""
"357.19999998807907","i","choice","right","i","experimental","1339","1118656","0.0-4.0-8.150","true","151","2.4499999999999984","","",""
"2500.600000023842","4","confid","","","html-slider-response","1341","1121659","0.0-4.0-10.150-0.150","","","","Rate your confidence","1",""
"2132","e","choice","left","e","experimental","1348","1125576","0.0-4.0-8.151","true","152","2.3499999999999983","","",""
"2639.7000000476837","3","confid","","","html-slider-response","1350","1128719","0.0-4.0-10.151-0.151","","","","Rate your confidence","1",""
"2604.5","i","choice","right","i","experimental","1358","1148512","0.0-4.0-8.152","true","153","2.3499999999999983","","",""
"2559.300000011921","5","confid","","","html-slider-response","1360","1151575","0.0-4.0-10.152-0.152","","","","Rate your confidence","1",""
"2337.2000000476837","i","choice","left","e","experimental","1367","1155704","0.0-4.0-8.153","false","154","2.2499999999999982","","",""
"3064.5","2","confid","","","html-slider-response","1369","1159271","0.0-4.0-10.153-0.153","","","","Rate your confidence","1",""
"423.60000002384186","i","choice","left","e","experimental","1376","1161471","0.0-4.0-8.154","false","155","2.3499999999999983","","",""
"2565.300000011921","2","confid","","","html-slider-response","1378","1164542","0.0-4.0-10.154-0.154","","","","Rate your confidence","1",""
"588.9000000357628","i","choice","right","i","experimental","1385","1166927","0.0-4.0-8.155","true","156","2.4499999999999984","","",""
"2631.199999988079","2","confid","","","html-slider-response","1387","1170062","0.0-4.0-10.155-0.155","","","","Rate your confidence","1",""
"305.19999998807907","i","choice","left","e","experimental","1394","1172151","0.0-4.0-8.156","false","157","2.4499999999999984","","",""
"2758.899999976158","2","confid","","","html-slider-response","1396","1175414","0.0-4.0-10.156-0.156","","","","Rate your confidence","1",""
"2189.199999988079","e","choice","right","i","experimental","1403","1179383","0.0-4.0-8.157","false","158","2.5499999999999985","","",""
"2111.7000000476837","3","confid","","","html-slider-response","1405","1181998","0.0-4.0-10.157-0.157","","","","Rate your confidence","1",""
"1249.1000000238419","e","choice","left","e","experimental","1412","1185039","0.0-4.0-8.158","true","159","2.6499999999999986","","",""
"2288.100000023842","3","confid","","","html-slider-response","1414","1187830","0.0-4.0-10.158-0.158","","","","Rate your confidence","1",""
"872.9000000357628","e","choice","right","i","experimental","1421","1190479","0.0-4.0-8.159","false","160","2.6499999999999986","","",""
"2469.099999964237","2","confid","","","html-slider-response","1423","1193454","0.0-4.0-10.159-0.159","","","","Rate your confidence","1",""
"655.4000000357628","e","choice","left","e","experimental","1430","1195895","0.0-4.0-8.160","true","161","2.7499999999999987","","",""
"2288.899999976158","2","confid","","","html-slider-response","1432","1198686","0.0-4.0-10.160-0.160","","","","Rate your confidence","1",""
"962.1999999880791","e","choice","right","i","experimental","1439","1201423","0.0-4.0-8.161","false","162","2.7499999999999987","","",""
"2813.400000035763","1","confid","","","html-slider-response","1441","1204742","0.0-4.0-10.161-0.161","","","","Rate your confidence","1",""
"1971.5","i","choice","left","e","experimental","1448","1208510","0.0-4.0-8.162","false","163","2.8499999999999988","","",""
"2282.2000000476837","3","confid","","","html-slider-response","1450","1211298","0.0-4.0-10.162-0.162","","","","Rate your confidence","1",""
"1277.1000000238419","i","choice","right","i","experimental","1457","1214358","0.0-4.0-8.163","true","164","2.949999999999999","","",""
"2190.399999976158","3","confid","","","html-slider-response","1459","1217053","0.0-4.0-10.163-0.163","","","","Rate your confidence","1",""
"188.69999998807907","i","choice","right","i","experimental","1466","1219030","0.0-4.0-8.164","true","165","2.949999999999999","","",""
"5477.699999988079","4","confid","","","html-slider-response","1468","1225013","0.0-4.0-10.164-0.164","","","","Rate your confidence","1",""
"1009.6000000238419","i","choice","left","e","experimental","1475","1227806","0.0-4.0-8.165","false","166","2.8499999999999988","","",""
"2879","2","confid","","","html-slider-response","1477","1231189","0.0-4.0-10.165-0.165","","","","Rate your confidence","1",""
"58.5","i","choice","right","i","experimental","1484","1233030","0.0-4.0-8.166","true","167","2.949999999999999","","",""
"2849","5","confid","","","html-slider-response","1486","1236381","0.0-4.0-10.166-0.166","","","","Rate your confidence","1",""
"4536","e","choice","left","e","experimental","1493","1242694","0.0-4.0-8.167","true","168","2.949999999999999","","",""
"4376.700000047684","1","confid","","","html-slider-response","1495","1247573","0.0-4.0-10.167-0.167","","","","Rate your confidence","1",""
"2895.199999988079","i","choice","left","e","experimental","1502","1252246","0.0-4.0-8.168","false","169","2.8499999999999988","","",""
"2504.300000011921","1","confid","","","html-slider-response","1504","1255253","0.0-4.0-10.168-0.168","","","","Rate your confidence","1",""
"1166.8999999761581","i","choice","right","i","experimental","1511","1258214","0.0-4.0-8.169","true","170","2.949999999999999","","",""
"3197.899999976158","4","confid","","","html-slider-response","1513","1261917","0.0-4.0-10.169-0.169","","","","Rate your confidence","1",""
"163.80000001192093","i","choice","right","i","experimental","1520","1263870","0.0-4.0-8.170","true","171","2.949999999999999","","",""
"2741.900000035763","5","confid","","","html-slider-response","1522","1267117","0.0-4.0-10.170-0.170","","","","Rate your confidence","1",""
"2428.899999976158","e","choice","left","e","experimental","1529","1271326","0.0-4.0-8.171","true","172","2.8499999999999988","","",""
"2254.300000011921","2","confid","","","html-slider-response","1531","1274084","0.0-4.0-10.171-0.171","","","","Rate your confidence","1",""
"1343.8999999761581","e","choice","left","e","experimental","1538","1277205","0.0-4.0-8.172","true","173","2.8499999999999988","","",""
"2280.400000035763","4","confid","","","html-slider-response","1540","1279988","0.0-4.0-10.172-0.172","","","","Rate your confidence","1",""
"5024.599999964237","i","choice","right","i","experimental","1547","1286789","0.0-4.0-8.173","true","174","2.7499999999999987","","",""
"2344.400000035763","1","confid","","","html-slider-response","1549","1289636","0.0-4.0-10.173-0.173","","","","Rate your confidence","1",""
"302.89999997615814","i","choice","right","i","experimental","1556","1291733","0.0-4.0-8.174","true","175","2.7499999999999987","","",""
"2407.800000011921","4","confid","","","html-slider-response","1558","1294644","0.0-4.0-10.174-0.174","","","","Rate your confidence","1",""
"859.5999999642372","i","choice","left","e","experimental","1565","1297301","0.0-4.0-8.175","false","176","2.6499999999999986","","",""
"2256.599999964237","4","confid","","","html-slider-response","1567","1300060","0.0-4.0-10.175-0.175","","","","Rate your confidence","1",""
"322.10000002384186","i","choice","right","i","experimental","1574","1302165","0.0-4.0-8.176","true","177","2.7499999999999987","","",""
"2669.300000011921","4","confid","","","html-slider-response","1576","1305340","0.0-4.0-10.176-0.176","","","","Rate your confidence","1",""
"1596.5","e","choice","left","e","experimental","1583","1308717","0.0-4.0-8.177","true","178","2.7499999999999987","","",""
"2858.300000011921","4","confid","","","html-slider-response","1585","1312080","0.0-4.0-10.177-0.177","","","","Rate your confidence","1",""
"1638","e","choice","left","e","experimental","1592","1315492","0.0-4.0-8.178","true","179","2.6499999999999986","","",""
"3120.899999976158","4","confid","","","html-slider-response","1594","1319116","0.0-4.0-10.178-0.178","","","","Rate your confidence","1",""
"1179.8999999761581","e","choice","right","i","experimental","1601","1322092","0.0-4.0-8.179","false","180","2.6499999999999986","","",""
"3120.599999964237","4","confid","","","html-slider-response","1603","1325715","0.0-4.0-10.179-0.179","","","","Rate your confidence","1",""
"483.30000001192093","e","choice","left","e","experimental","1610","1327980","0.0-4.0-8.180","true","181","2.7499999999999987","","",""
"2284.699999988079","5","confid","","","html-slider-response","1612","1330767","0.0-4.0-10.180-0.180","","","","Rate your confidence","1",""
"490.4000000357628","e","choice","right","i","experimental","1619","1333036","0.0-4.0-8.181","false","182","2.7499999999999987","","",""
"3091.899999976158","3","confid","","","html-slider-response","1621","1336631","0.0-4.0-10.181-0.181","","","","Rate your confidence","1",""
"355.5","e","choice","left","e","experimental","1628","1338764","0.0-4.0-8.182","true","183","2.8499999999999988","","",""
"2515.800000011921","5","confid","","","html-slider-response","1630","1341783","0.0-4.0-10.182-0.182","","","","Rate your confidence","1",""
"2917.300000011921","i","choice","right","i","experimental","1637","1346492","0.0-4.0-8.183","true","184","2.8499999999999988","","",""
"2436.600000023842","1","confid","","","html-slider-response","1639","1349431","0.0-4.0-10.183-0.183","","","","Rate your confidence","1",""
"1728.0999999642372","e","choice","left","e","experimental","1646","1352948","0.0-4.0-8.184","true","185","2.7499999999999987","","",""
"2059.7999999523163","3","confid","","","html-slider-response","1648","1355511","0.0-4.0-10.184-0.184","","","","Rate your confidence","1",""
"1423.800000011921","i","choice","right","i","experimental","1655","1358716","0.0-4.0-8.185","true","186","2.7499999999999987","","",""
"2796","2","confid","","","html-slider-response","1657","1362015","0.0-4.0-10.185-0.185","","","","Rate your confidence","1",""
"1472.1000000238419","e","choice","left","e","experimental","1664","1365268","0.0-4.0-8.186","true","187","2.6499999999999986","","",""
"2879.800000011921","4","confid","","","html-slider-response","1666","1368663","0.0-4.0-10.186-0.186","","","","Rate your confidence","1",""
"326.89999997615814","e","choice","right","i","experimental","1673","1370771","0.0-4.0-8.187","false","188","2.6499999999999986","","",""
"3609.2000000476837","3","confid","","","html-slider-response","1675","1374886","0.0-4.0-10.187-0.187","","","","Rate your confidence","1",""
"3625.899999976158","i","choice","right","i","experimental","1682","1380307","0.0-4.0-8.188","true","189","2.7499999999999987","","",""
"2385.5","2","confid","","","html-slider-response","1684","1383198","0.0-4.0-10.188-0.188","","","","Rate your confidence","1",""
"1416.199999988079","i","choice","left","e","experimental","1691","1386403","0.0-4.0-8.189","false","190","2.7499999999999987","","",""
"3283.600000023842","2","confid","","","html-slider-response","1693","1390190","0.0-4.0-10.189-0.189","","","","Rate your confidence","1",""
"1528.699999988079","e","choice","left","e","experimental","1700","1393499","0.0-4.0-8.190","true","191","2.8499999999999988","","",""
"1963.8999999761581","1","confid","","","html-slider-response","1702","1395966","0.0-4.0-10.190-0.190","","","","Rate your confidence","1",""
"1814.5","i","choice","right","i","experimental","1709","1399563","0.0-4.0-8.191","true","192","2.8499999999999988","","",""
"2450.300000011921","3","confid","","","html-slider-response","1711","1402518","0.0-4.0-10.191-0.191","","","","Rate your confidence","1",""
"9435.599999964237","i","choice","left","e","experimental","1718","1413747","0.0-4.0-8.192","false","193","2.7499999999999987","","",""
"4968.400000035763","2","confid","","","html-slider-response","1720","1419217","0.0-4.0-10.192-0.192","","","","Rate your confidence","1",""
"2072.5","i","choice","right","i","experimental","1727","1423082","0.0-4.0-8.193","true","194","2.8499999999999988","","",""
"2900.800000011921","2","confid","","","html-slider-response","1729","1426485","0.0-4.0-10.193-0.193","","","","Rate your confidence","1","99518"
