"rt","response","task","target_side","correct_response","trial_type","trial_index","time_elapsed","internal_node_id","correct","trial_number","n_dots","stimulus","slider_start","participant"
"10609","e","choice","right","i","practice","10","66449","0.0-4.0-8.0","false","1","4.25","","",""
"895","e","choice","left","e","practice","18","69725","0.0-4.0-8.1","true","2","4.65","","",""
"1137","e","choice","left","e","practice","26","73225","0.0-4.0-8.2","true","3","4.65","","",""
"1399","i","choice","right","i","practice","34","76955","0.0-4.0-8.3","true","4","4.25","","",""
"593","e","choice","right","i","practice","42","79911","0.0-4.0-8.4","false","5","4.25","","",""
"928","i","choice","left","e","practice","50","83198","0.0-4.0-8.5","false","6","4.65","","",""
"1093","i","choice","right","i","practice","58","86676","0.0-4.0-8.6","true","7","4.8500000000000005","","",""
"334","e","choice","left","e","practice","66","89375","0.0-4.0-8.7","true","8","4.8500000000000005","","",""
"932","e","choice","left","e","practice","74","92645","0.0-4.0-8.8","true","9","4.65","","",""
"732","i","choice","right","i","practice","82","95721","0.0-4.0-8.9","true","10","4.65","","",""
"1072","e","choice","left","e","practice","90","99161","0.0-4.0-8.10","true","11","4.45","","",""
"36","i","choice","right","i","practice","98","101536","0.0-4.0-8.11","true","12","4.45","","",""
"1729","i","choice","right","i","practice","106","105591","0.0-4.0-8.12","true","13","4.3500000000000005","","",""
"796","e","choice","left","e","practice","114","108769","0.0-4.0-8.13","true","14","4.3500000000000005","","",""
"530","e","choice","left","e","practice","122","111641","0.0-4.0-8.14","true","15","4.250000000000001","","",""
"531","i","choice","right","i","practice","130","114538","0.0-4.0-8.15","true","16","4.250000000000001","","",""
"235","e","choice","left","e","practice","138","117133","0.0-4.0-8.16","true","17","4.150000000000001","","",""
"131","i","choice","right","i","practice","146","119645","0.0-4.0-8.17","true","18","4.150000000000001","","",""
"446","e","choice","left","e","practice","154","122435","0.0-4.0-8.18","true","19","4.050000000000002","","",""
"142","i","choice","right","i","practice","162","124958","0.0-4.0-8.19","true","20","4.050000000000002","","",""
"598","e","choice","left","e","practice","170","127900","0.0-4.0-8.20","true","21","3.9500000000000015","","",""
"156","i","choice","right","i","practice","178","130372","0.0-4.0-8.21","true","22","3.9500000000000015","","",""
"1052","e","choice","left","e","practice","186","133771","0.0-4.0-8.22","true","23","3.8500000000000014","","",""
"1239","i","choice","right","i","practice","194","137334","0.0-4.0-8.23","true","24","3.8500000000000014","","",""
"1378","e","choice","right","i","practice","202","141072","0.0-4.0-8.24","false","25","3.7500000000000013","","",""
"684","e","choice","left","e","practice","210","144100","0.0-4.0-8.25","true","26","3.8500000000000014","","",""
"1001","e","choice","left","e","experimental","221","187103","0.0-4.0-8.26","true","27","3.8500000000000014","","",""
"5883","4","confid","","","html-slider-response","223","193500","0.0-4.0-10.26-0.26","","","","Rate your confidence","1",""
"1098","i","choice","right","i","experimental","230","196449","0.0-4.0-8.27","true","28","3.7500000000000013","","",""
"3135","4","confid","","","html-slider-response","232","200094","0.0-4.0-10.27-0.27","","","","Rate your confidence","1",""
"716","e","choice","left","e","experimental","239","202661","0.0-4.0-8.28","true","29","3.7500000000000013","","",""
"3411","4","confid","","","html-slider-response","241","206588","0.0-4.0-10.28-0.28","","","","Rate your confidence","1",""
"682","i","choice","right","i","experimental","248","209121","0.0-4.0-8.29","true","30","3.6500000000000012","","",""
"3224","5","confid","","","html-slider-response","250","212855","0.0-4.0-10.29-0.29","","","","Rate your confidence","1",""
"1097","e","choice","left","e","experimental","257","215814","0.0-4.0-8.30","true","31","3.6500000000000012","","",""
"2728","4","confid","","","html-slider-response","259","219046","0.0-4.0-10.30-0.30","","","","Rate your confidence","1",""
"1076","i","choice","right","i","experimental","266","221974","0.0-4.0-8.31","true","32","3.550000000000001","","",""
"2357","4","confid","","","html-slider-response","268","224844","0.0-4.0-10.31-0.31","","","","Rate your confidence","1",""
"835","i","choice","right","i","experimental","275","227526","0.0-4.0-8.32","true","33","3.550000000000001","","",""
"5468","3","confid","","","html-slider-response","277","233498","0.0-4.0-10.32-0.32","","","","Rate your confidence","1",""
"908","e","choice","left","e","experimental","284","236227","0.0-4.0-8.33","true","34","3.450000000000001","","",""
"2898","5","confid","","","html-slider-response","286","239635","0.0-4.0-10.33-0.33","","","","Rate your confidence","1",""
"863","i","choice","right","i","experimental","293","242350","0.0-4.0-8.34","true","35","3.450000000000001","","",""
"2921","5","confid","","","html-slider-response","295","245782","0.0-4.0-10.34-0.34","","","","Rate your confidence","1",""
"867","e","choice","left","e","experimental","302","248487","0.0-4.0-8.35","true","36","3.350000000000001","","",""
"6082","5","confid","","","html-slider-response","304","255086","0.0-4.0-10.35-0.35","","","","Rate your confidence","1",""
"751","e","choice","left","e","experimental","311","257684","0.0-4.0-8.36","true","37","3.350000000000001","","",""
"3197","5","confid","","","html-slider-response","313","261398","0.0-4.0-10.36-0.36","","","","Rate your confidence","1",""
"1740","i","choice","right","i","experimental","320","265008","0.0-4.0-8.37","true","38","3.250000000000001","","",""
"5074","5","confid","","","html-slider-response","322","270586","0.0-4.0-10.37-0.37","","","","Rate your confidence","1",""
"1387","e","choice","right","i","experimental","329","273819","0.0-4.0-8.38","false","39","3.250000000000001","","",""
"3132","4","confid","","","html-slider-response","331","277468","0.0-4.0-10.38-0.38","","","","Rate your confidence","1",""
"882","e","choice","left","e","experimental","338","280202","0.0-4.0-8.39","true","40","3.350000000000001","","",""
"2860","4","confid","","","html-slider-response","340","283566","0.0-4.0-10.39-0.39","","","","Rate your confidence","1",""
"526","i","choice","left","e","experimental","347","285919","0.0-4.0-8.40","false","41","3.350000000000001","","",""
"1938","4","confid","","","html-slider-response","349","288361","0.0-4.0-10.40-0.40","","","","Rate your confidence","1",""
"905","e","choice","right","i","experimental","356","291107","0.0-4.0-8.41","false","42","3.450000000000001","","",""
"1972","5","confid","","","html-slider-response","358","293582","0.0-4.0-10.41-0.41","","","","Rate your confidence","1",""
"1879","i","choice","right","i","experimental","365","297286","0.0-4.0-8.42","true","43","3.550000000000001","","",""
"2114","3","confid","","","html-slider-response","367","299907","0.0-4.0-10.42-0.42","","","","Rate your confidence","1",""
"610","e","choice","left","e","experimental","374","302363","0.0-4.0-8.43","true","44","3.550000000000001","","",""
"8577","4","confid","","","html-slider-response","376","311456","0.0-4.0-10.43-0.43","","","","Rate your confidence","1",""
"895","e","choice","left","e","experimental","383","314205","0.0-4.0-8.44","true","45","3.450000000000001","","",""
"3108","4","confid","","","html-slider-response","385","317830","0.0-4.0-10.44-0.44","","","","Rate your confidence","1",""
"720","i","choice","right","i","experimental","392","320373","0.0-4.0-8.45","true","46","3.450000000000001","","",""
"2432","4","confid","","","html-slider-response","394","323316","0.0-4.0-10.45-0.45","","","","Rate your confidence","1",""
"477","i","choice","right","i","experimental","401","325620","0.0-4.0-8.46","true","47","3.350000000000001","","",""
"2204","4","confid","","","html-slider-response","403","328340","0.0-4.0-10.46-0.46","","","","Rate your confidence","1",""
"421","e","choice","left","e","experimental","410","330618","0.0-4.0-8.47","true","48","3.350000000000001","","",""
"2321","5","confid","","","html-slider-response","412","333447","0.0-4.0-10.47-0.47","","","","Rate your confidence","1",""
"807","e","choice","right","i","experimental","419","336121","0.0-4.0-8.48","false","49","3.250000000000001","","",""
"3084","5","confid","","","html-slider-response","421","339709","0.0-4.0-10.48-0.48","","","","Rate your confidence","1",""
"545","e","choice","left","e","experimental","428","342113","0.0-4.0-8.49","true","50","3.350000000000001","","",""
"2055","5","confid","","","html-slider-response","430","344679","0.0-4.0-10.49-0.49","","","","Rate your confidence","1",""
"1094","i","choice","right","i","experimental","437","347607","0.0-4.0-8.50","true","51","3.350000000000001","","",""
"2151","3","confid","","","html-slider-response","439","350262","0.0-4.0-10.50-0.50","","","","Rate your confidence","1",""
"716","e","choice","left","e","experimental","446","352822","0.0-4.0-8.51","true","52","3.250000000000001","","",""
"1817","5","confid","","","html-slider-response","448","355157","0.0-4.0-10.51-0.51","","","","Rate your confidence","1",""
"864","e","choice","left","e","experimental","455","357833","0.0-4.0-8.52","true","53","3.250000000000001","","",""
"3243","5","confid","","","html-slider-response","457","361580","0.0-4.0-10.52-0.52","","","","Rate your confidence","1",""
"2058","e","choice","right","i","experimental","464","365481","0.0-4.0-8.53","false","54","3.150000000000001","","",""
"2843","4","confid","","","html-slider-response","466","368836","0.0-4.0-10.53-0.53","","","","Rate your confidence","1",""
"532","e","choice","left","e","experimental","473","371244","0.0-4.0-8.54","true","55","3.250000000000001","","",""
"2498","4","confid","","","html-slider-response","475","374249","0.0-4.0-10.54-0.54","","","","Rate your confidence","1",""
"376","e","choice","right","i","experimental","482","376468","0.0-4.0-8.55","false","56","3.250000000000001","","",""
"6305","3","confid","","","html-slider-response","484","383282","0.0-4.0-10.55-0.55","","","","Rate your confidence","1",""
"1230","i","choice","left","e","experimental","491","386330","0.0-4.0-8.56","false","57","3.350000000000001","","",""
"1882","3","confid","","","html-slider-response","493","388723","0.0-4.0-10.56-0.56","","","","Rate your confidence","1",""
"2826","i","choice","right","i","experimental","500","393370","0.0-4.0-8.57","true","58","3.450000000000001","","",""
"2325","4","confid","","","html-slider-response","502","396212","0.0-4.0-10.57-0.57","","","","Rate your confidence","1",""
"842","e","choice","right","i","experimental","509","398895","0.0-4.0-8.58","false","59","3.450000000000001","","",""
"2510","3","confid","","","html-slider-response","511","401909","0.0-4.0-10.58-0.58","","","","Rate your confidence","1",""
"946","e","choice","left","e","experimental","518","404648","0.0-4.0-8.59","true","60","3.550000000000001","","",""
"3564","4","confid","","","html-slider-response","520","408732","0.0-4.0-10.59-0.59","","","","Rate your confidence","1",""
"1435","i","choice","right","i","experimental","527","412016","0.0-4.0-8.60","true","61","3.550000000000001","","",""
"2092","4","confid","","","html-slider-response","529","414621","0.0-4.0-10.60-0.60","","","","Rate your confidence","1",""
"729","e","choice","left","e","experimental","536","417171","0.0-4.0-8.61","true","62","3.450000000000001","","",""
"1785","3","confid","","","html-slider-response","538","419472","0.0-4.0-10.61-0.61","","","","Rate your confidence","1",""
"1971","e","choice","left","e","experimental","545","423316","0.0-4.0-8.62","true","63","3.450000000000001","","",""
"2742","3","confid","","","html-slider-response","547","426569","0.0-4.0-10.62-0.62","","","","Rate your confidence","1",""
"417","i","choice","right","i","experimental","554","428839","0.0-4.0-8.63","true","64","3.350000000000001","","",""
"1693","3","confid","","","html-slider-response","556","431049","0.0-4.0-10.63-0.63","","","","Rate your confidence","1",""
"554","i","choice","left","e","experimental","563","433401","0.0-4.0-8.64","false","65","3.350000000000001","","",""
"1913","4","confid","","","html-slider-response","565","435824","0.0-4.0-10.64-0.64","","","","Rate your confidence","1",""
"1041","i","choice","right","i","experimental","572","438653","0.0-4.0-8.65","true","66","3.450000000000001","","",""
"2030","3","confid","","","html-slider-response","574","441194","0.0-4.0-10.65-0.65","","","","Rate your confidence","1",""
"629","i","choice","right","i","experimental","581","443656","0.0-4.0-8.66","true","67","3.450000000000001","","",""
"2076","4","confid","","","html-slider-response","583","446243","0.0-4.0-10.66-0.66","","","","Rate your confidence","1",""
"1144","e","choice","left","e","experimental","590","449255","0.0-4.0-8.67","true","68","3.350000000000001","","",""
"1890","4","confid","","","html-slider-response","592","451656","0.0-4.0-10.67-0.67","","","","Rate your confidence","1",""
"1122","e","choice","left","e","experimental","600","523205","0.0-4.0-8.68","true","69","3.350000000000001","","",""
"2087","4","confid","","","html-slider-response","602","525807","0.0-4.0-10.68-0.68","","","","Rate your confidence","1",""
"989","e","choice","right","i","experimental","609","528632","0.0-4.0-8.69","false","70","3.250000000000001","","",""
"1877","3","confid","","","html-slider-response","611","531015","0.0-4.0-10.69-0.69","","","","Rate your confidence","1",""
"1316","i","choice","left","e","experimental","618","534200","0.0-4.0-8.70","false","71","3.350000000000001","","",""
"2060","3","confid","","","html-slider-response","620","536768","0.0-4.0-10.70-0.70","","","","Rate your confidence","1",""
"867","e","choice","right","i","experimental","627","539507","0.0-4.0-8.71","false","72","3.450000000000001","","",""
"1883","3","confid","","","html-slider-response","629","541896","0.0-4.0-10.71-0.71","","","","Rate your confidence","1",""
"505","e","choice","left","e","experimental","636","544239","0.0-4.0-8.72","true","73","3.550000000000001","","",""
"2029","3","confid","","","html-slider-response","638","546775","0.0-4.0-10.72-0.72","","","","Rate your confidence","1",""
"515","i","choice","right","i","experimental","645","549139","0.0-4.0-8.73","true","74","3.550000000000001","","",""
"1902","4","confid","","","html-slider-response","647","551549","0.0-4.0-10.73-0.73","","","","Rate your confidence","1",""
"641","i","choice","right","i","experimental","654","554028","0.0-4.0-8.74","true","75","3.450000000000001","","",""
"2381","3","confid","","","html-slider-response","656","556918","0.0-4.0-10.74-0.74","","","","Rate your confidence","1",""
"680","e","choice","left","e","experimental","663","559433","0.0-4.0-8.75","true","76","3.450000000000001","","",""
"2430","3","confid","","","html-slider-response","665","562377","0.0-4.0-10.75-0.75","","","","Rate your confidence","1",""
"690","i","choice","right","i","experimental","672","564905","0.0-4.0-8.76","true","77","3.350000000000001","","",""
"2275","3","confid","","","html-slider-response","674","567686","0.0-4.0-10.76-0.76","","","","Rate your confidence","1",""
"732","e","choice","left","e","experimental","681","570262","0.0-4.0-8.77","true","78","3.350000000000001","","",""
"2507","3","confid","","","html-slider-response","683","573283","0.0-4.0-10.77-0.77","","","","Rate your confidence","1",""
"814","e","choice","left","e","experimental","690","575939","0.0-4.0-8.78","true","79","3.250000000000001","","",""
"1889","4","confid","","","html-slider-response","692","578341","0.0-4.0-10.78-0.78","","","","Rate your confidence","1",""
"1002","e","choice","right","i","experimental","699","581175","0.0-4.0-8.79","false","80","3.250000000000001","","",""
"1889","4","confid","","","html-slider-response","701","583570","0.0-4.0-10.79-0.79","","","","Rate your confidence","1",""
"672","e","choice","left","e","experimental","708","586074","0.0-4.0-8.80","true","81","3.350000000000001","","",""
"1812","4","confid","","","html-slider-response","710","588393","0.0-4.0-10.80-0.80","","","","Rate your confidence","1",""
"1052","e","choice","right","i","experimental","717","591286","0.0-4.0-8.81","false","82","3.350000000000001","","",""
"2908","4","confid","","","html-slider-response","719","594701","0.0-4.0-10.81-0.81","","","","Rate your confidence","1",""
"1126","e","choice","left","e","experimental","726","597694","0.0-4.0-8.82","true","83","3.450000000000001","","",""
"2022","4","confid","","","html-slider-response","728","600229","0.0-4.0-10.82-0.82","","","","Rate your confidence","1",""
"850","i","choice","right","i","experimental","735","602952","0.0-4.0-8.83","true","84","3.450000000000001","","",""
"2127","4","confid","","","html-slider-response","737","605585","0.0-4.0-10.83-0.83","","","","Rate your confidence","1",""
"841","e","choice","right","i","experimental","744","608264","0.0-4.0-8.84","false","85","3.350000000000001","","",""
"1489","4","confid","","","html-slider-response","746","610271","0.0-4.0-10.84-0.84","","","","Rate your confidence","1",""
"571","i","choice","left","e","experimental","753","612669","0.0-4.0-8.85","false","86","3.450000000000001","","",""
"2740","3","confid","","","html-slider-response","755","615927","0.0-4.0-10.85-0.85","","","","Rate your confidence","1",""
"732","i","choice","right","i","experimental","762","618523","0.0-4.0-8.86","true","87","3.550000000000001","","",""
"2317","5","confid","","","html-slider-response","764","621353","0.0-4.0-10.86-0.86","","","","Rate your confidence","1",""
"1209","e","choice","left","e","experimental","771","624401","0.0-4.0-8.87","true","88","3.550000000000001","","",""
"1839","5","confid","","","html-slider-response","773","626742","0.0-4.0-10.87-0.87","","","","Rate your confidence","1",""
"881","e","choice","left","e","experimental","780","629450","0.0-4.0-8.88","true","89","3.450000000000001","","",""
"1395","4","confid","","","html-slider-response","782","631352","0.0-4.0-10.88-0.88","","","","Rate your confidence","1",""
"737","i","choice","right","i","experimental","789","633919","0.0-4.0-8.89","true","90","3.450000000000001","","",""
"1572","4","confid","","","html-slider-response","791","636004","0.0-4.0-10.89-0.89","","","","Rate your confidence","1",""
"799","i","choice","right","i","experimental","798","638662","0.0-4.0-8.90","true","91","3.350000000000001","","",""
"2096","3","confid","","","html-slider-response","800","641268","0.0-4.0-10.90-0.90","","","","Rate your confidence","1",""
"1225","i","choice","left","e","experimental","807","644362","0.0-4.0-8.91","false","92","3.350000000000001","","",""
"2475","4","confid","","","html-slider-response","809","647355","0.0-4.0-10.91-0.91","","","","Rate your confidence","1",""
"1078","e","choice","right","i","experimental","816","650272","0.0-4.0-8.92","false","93","3.450000000000001","","",""
"1528","5","confid","","","html-slider-response","818","652313","0.0-4.0-10.92-0.92","","","","Rate your confidence","1",""
"836","e","choice","left","e","experimental","825","654994","0.0-4.0-8.93","true","94","3.550000000000001","","",""
"1667","4","confid","","","html-slider-response","827","657164","0.0-4.0-10.93-0.93","","","","Rate your confidence","1",""
"801","i","choice","right","i","experimental","834","659830","0.0-4.0-8.94","true","95","3.550000000000001","","",""
"3150","4","confid","","","html-slider-response","836","663486","0.0-4.0-10.94-0.94","","","","Rate your confidence","1",""
"1004","e","choice","left","e","experimental","843","666346","0.0-4.0-8.95","true","96","3.450000000000001","","",""
"2331","3","confid","","","html-slider-response","845","669186","0.0-4.0-10.95-0.95","","","","Rate your confidence","1",""
"962","i","choice","right","i","experimental","852","671981","0.0-4.0-8.96","true","97","3.450000000000001","","",""
"2124","4","confid","","","html-slider-response","854","674610","0.0-4.0-10.96-0.96","","","","Rate your confidence","1",""
"686","e","choice","left","e","experimental","861","677142","0.0-4.0-8.97","true","98","3.350000000000001","","",""
"2372","3","confid","","","html-slider-response","863","680026","0.0-4.0-10.97-0.97","","","","Rate your confidence","1",""
"589","i","choice","right","i","experimental","870","682482","0.0-4.0-8.98","true","99","3.350000000000001","","",""
"2908","4","confid","","","html-slider-response","872","685906","0.0-4.0-10.98-0.98","","","","Rate your confidence","1",""
"781","e","choice","left","e","experimental","879","688534","0.0-4.0-8.99","true","100","3.250000000000001","","",""
"2349","3","confid","","","html-slider-response","881","691397","0.0-4.0-10.99-0.99","","","","Rate your confidence","1",""
"504","i","choice","right","i","experimental","888","693737","0.0-4.0-8.100","true","101","3.250000000000001","","",""
"3202","4","confid","","","html-slider-response","890","697447","0.0-4.0-10.100-0.100","","","","Rate your confidence","1",""
"650","e","choice","left","e","experimental","897","699967","0.0-4.0-8.101","true","102","3.150000000000001","","",""
"3468","4","confid","","","html-slider-response","899","703953","0.0-4.0-10.101-0.101","","","","Rate your confidence","1",""
"647","i","choice","right","i","experimental","906","706441","0.0-4.0-8.102","true","103","3.150000000000001","","",""
"2605","4","confid","","","html-slider-response","908","709549","0.0-4.0-10.102-0.102","","","","Rate your confidence","1",""
"528","i","choice","left","e","experimental","915","711916","0.0-4.0-8.103","false","104","3.0500000000000007","","",""
"3338","4","confid","","","html-slider-response","917","715758","0.0-4.0-10.103-0.103","","","","Rate your confidence","1",""
"949","e","choice","right","i","experimental","924","718531","0.0-4.0-8.104","false","105","3.150000000000001","","",""
"2083","4","confid","","","html-slider-response","926","721127","0.0-4.0-10.104-0.104","","","","Rate your confidence","1",""
"672","e","choice","left","e","experimental","933","723664","0.0-4.0-8.105","true","106","3.250000000000001","","",""
"6009","4","confid","","","html-slider-response","935","730187","0.0-4.0-10.105-0.105","","","","Rate your confidence","1",""
"868","i","choice","right","i","experimental","942","732919","0.0-4.0-8.106","true","107","3.250000000000001","","",""
"2081","4","confid","","","html-slider-response","944","735517","0.0-4.0-10.106-0.106","","","","Rate your confidence","1",""
"900","e","choice","left","e","experimental","951","738260","0.0-4.0-8.107","true","108","3.150000000000001","","",""
"1710","4","confid","","","html-slider-response","953","740488","0.0-4.0-10.107-0.107","","","","Rate your confidence","1",""
"1041","e","choice","right","i","experimental","960","743365","0.0-4.0-8.108","false","109","3.150000000000001","","",""
"2760","4","confid","","","html-slider-response","962","746638","0.0-4.0-10.108-0.108","","","","Rate your confidence","1",""
"579","e","choice","left","e","experimental","969","749017","0.0-4.0-8.109","true","110","3.250000000000001","","",""
"2225","4","confid","","","html-slider-response","971","751754","0.0-4.0-10.109-0.109","","","","Rate your confidence","1",""
"597","i","choice","left","e","experimental","979","777794","0.0-4.0-8.110","false","111","3.250000000000001","","",""
"2465","4","confid","","","html-slider-response","981","780766","0.0-4.0-10.110-0.110","","","","Rate your confidence","1",""
"822","i","choice","right","i","experimental","988","783452","0.0-4.0-8.111","true","112","3.350000000000001","","",""
"2172","4","confid","","","html-slider-response","990","786140","0.0-4.0-10.111-0.111","","","","Rate your confidence","1",""
"409","e","choice","left","e","experimental","997","788410","0.0-4.0-8.112","true","113","3.350000000000001","","",""
"1849","4","confid","","","html-slider-response","999","790770","0.0-4.0-10.112-0.112","","","","Rate your confidence","1",""
"385","i","choice","right","i","experimental","1006","792979","0.0-4.0-8.113","true","114","3.250000000000001","","",""
"2093","4","confid","","","html-slider-response","1008","795585","0.0-4.0-10.113-0.113","","","","Rate your confidence","1",""
"570","i","choice","right","i","experimental","1015","797989","0.0-4.0-8.114","true","115","3.250000000000001","","",""
"2407","4","confid","","","html-slider-response","1017","800912","0.0-4.0-10.114-0.114","","","","Rate your confidence","1",""
"769","i","choice","left","e","experimental","1024","803515","0.0-4.0-8.115","false","116","3.150000000000001","","",""
"2397","4","confid","","","html-slider-response","1026","806418","0.0-4.0-10.115-0.115","","","","Rate your confidence","1",""
"635","i","choice","right","i","experimental","1033","808885","0.0-4.0-8.116","true","117","3.250000000000001","","",""
"1479","4","confid","","","html-slider-response","1035","810878","0.0-4.0-10.116-0.116","","","","Rate your confidence","1",""
"743","e","choice","left","e","experimental","1042","813447","0.0-4.0-8.117","true","118","3.250000000000001","","",""
"2159","4","confid","","","html-slider-response","1044","816110","0.0-4.0-10.117-0.117","","","","Rate your confidence","1",""
"1084","e","choice","left","e","experimental","1051","819031","0.0-4.0-8.118","true","119","3.150000000000001","","",""
"3450","4","confid","","","html-slider-response","1053","822997","0.0-4.0-10.118-0.118","","","","Rate your confidence","1",""
"732","i","choice","right","i","experimental","1060","825596","0.0-4.0-8.119","true","120","3.150000000000001","","",""
"2246","5","confid","","","html-slider-response","1062","828350","0.0-4.0-10.119-0.119","","","","Rate your confidence","1",""
"520","e","choice","left","e","experimental","1069","830737","0.0-4.0-8.120","true","121","3.0500000000000007","","",""
"2334","5","confid","","","html-slider-response","1071","833589","0.0-4.0-10.120-0.120","","","","Rate your confidence","1",""
"858","i","choice","right","i","experimental","1078","836268","0.0-4.0-8.121","true","122","3.0500000000000007","","",""
"2057","5","confid","","","html-slider-response","1080","838834","0.0-4.0-10.121-0.121","","","","Rate your confidence","1",""
"487","e","choice","left","e","experimental","1087","841173","0.0-4.0-8.122","true","123","2.9500000000000006","","",""
"2023","4","confid","","","html-slider-response","1089","843703","0.0-4.0-10.122-0.122","","","","Rate your confidence","1",""
"829","i","choice","right","i","experimental","1096","846397","0.0-4.0-8.123","true","124","2.9500000000000006","","",""
"2324","4","confid","","","html-slider-response","1098","849230","0.0-4.0-10.123-0.123","","","","Rate your confidence","1",""
"513","e","choice","left","e","experimental","1105","851612","0.0-4.0-8.124","true","125","2.8500000000000005","","",""
"4664","5","confid","","","html-slider-response","1107","856786","0.0-4.0-10.124-0.124","","","","Rate your confidence","1",""
"452","e","choice","right","i","experimental","1114","859088","0.0-4.0-8.125","false","126","2.8500000000000005","","",""
"3050","5","confid","","","html-slider-response","1116","862655","0.0-4.0-10.125-0.125","","","","Rate your confidence","1",""
"505","e","choice","left","e","experimental","1123","865003","0.0-4.0-8.126","true","127","2.9500000000000006","","",""
"3148","4","confid","","","html-slider-response","1125","868659","0.0-4.0-10.126-0.126","","","","Rate your confidence","1",""
"833","e","choice","right","i","experimental","1132","871306","0.0-4.0-8.127","false","128","2.9500000000000006","","",""
"2097","4","confid","","","html-slider-response","1134","873908","0.0-4.0-10.127-0.127","","","","Rate your confidence","1",""
"762","e","choice","left","e","experimental","1141","876507","0.0-4.0-8.128","true","129","3.0500000000000007","","",""
"1805","4","confid","","","html-slider-response","1143","878822","0.0-4.0-10.128-0.128","","","","Rate your confidence","1",""
"740","i","choice","right","i","experimental","1150","881395","0.0-4.0-8.129","true","130","3.0500000000000007","","",""
"1572","4","confid","","","html-slider-response","1152","883473","0.0-4.0-10.129-0.129","","","","Rate your confidence","1",""
"365","e","choice","left","e","experimental","1159","885669","0.0-4.0-8.130","true","131","2.9500000000000006","","",""
"2499","5","confid","","","html-slider-response","1161","888673","0.0-4.0-10.130-0.130","","","","Rate your confidence","1",""
"631","i","choice","right","i","experimental","1168","891115","0.0-4.0-8.131","true","132","2.9500000000000006","","",""
"1398","4","confid","","","html-slider-response","1170","893027","0.0-4.0-10.131-0.131","","","","Rate your confidence","1",""
"486","i","choice","right","i","experimental","1177","895351","0.0-4.0-8.132","true","133","2.8500000000000005","","",""
"1364","5","confid","","","html-slider-response","1179","897224","0.0-4.0-10.132-0.132","","","","Rate your confidence","1",""
"420","i","choice","left","e","experimental","1186","899516","0.0-4.0-8.133","false","134","2.8500000000000005","","",""
"1597","5","confid","","","html-slider-response","1188","901628","0.0-4.0-10.133-0.133","","","","Rate your confidence","1",""
"482","i","choice","right","i","experimental","1195","903961","0.0-4.0-8.134","true","135","2.9500000000000006","","",""
"1253","4","confid","","","html-slider-response","1197","905725","0.0-4.0-10.134-0.134","","","","Rate your confidence","1",""
"695","e","choice","left","e","experimental","1204","908288","0.0-4.0-8.135","true","136","2.9500000000000006","","",""
"1902","3","confid","","","html-slider-response","1206","910696","0.0-4.0-10.135-0.135","","","","Rate your confidence","1",""
"512","i","choice","right","i","experimental","1213","913055","0.0-4.0-8.136","true","137","2.8500000000000005","","",""
"2043","4","confid","","","html-slider-response","1215","915612","0.0-4.0-10.136-0.136","","","","Rate your confidence","1",""
"401","i","choice","left","e","experimental","1222","917862","0.0-4.0-8.137","false","138","2.8500000000000005","","",""
"2531","4","confid","","","html-slider-response","1224","920897","0.0-4.0-10.137-0.137","","","","Rate your confidence","1",""
"583","i","choice","right","i","experimental","1231","923330","0.0-4.0-8.138","true","139","2.9500000000000006","","",""
"1955","4","confid","","","html-slider-response","1233","925791","0.0-4.0-10.138-0.138","","","","Rate your confidence","1",""
"691","i","choice","left","e","experimental","1240","928315","0.0-4.0-8.139","false","140","2.9500000000000006","","",""
"1449","4","confid","","","html-slider-response","1242","930272","0.0-4.0-10.139-0.139","","","","Rate your confidence","1",""
"1481","i","choice","right","i","experimental","1249","933583","0.0-4.0-8.140","true","141","3.0500000000000007","","",""
"1255","4","confid","","","html-slider-response","1251","935352","0.0-4.0-10.140-0.140","","","","Rate your confidence","1",""
"881","i","choice","left","e","experimental","1258","938092","0.0-4.0-8.141","false","142","3.0500000000000007","","",""
"1864","4","confid","","","html-slider-response","1260","940466","0.0-4.0-10.141-0.141","","","","Rate your confidence","1",""
"961","e","choice","left","e","experimental","1267","943266","0.0-4.0-8.142","true","143","3.150000000000001","","",""
"1492","4","confid","","","html-slider-response","1269","945276","0.0-4.0-10.142-0.142","","","","Rate your confidence","1",""
"347","i","choice","right","i","experimental","1276","947475","0.0-4.0-8.143","true","144","3.150000000000001","","",""
"3124","4","confid","","","html-slider-response","1278","951104","0.0-4.0-10.143-0.143","","","","Rate your confidence","1",""
"533","e","choice","right","i","experimental","1285","953478","0.0-4.0-8.144","false","145","3.0500000000000007","","",""
"1665","4","confid","","","html-slider-response","1287","955651","0.0-4.0-10.144-0.144","","","","Rate your confidence","1",""
"376","e","choice","left","e","experimental","1294","957862","0.0-4.0-8.145","true","146","3.150000000000001","","",""
"1399","4","confid","","","html-slider-response","1296","959771","0.0-4.0-10.145-0.145","","","","Rate your confidence","1",""
"196","i","choice","right","i","experimental","1303","961819","0.0-4.0-8.146","true","147","3.150000000000001","","",""
"1399","4","confid","","","html-slider-response","1305","963727","0.0-4.0-10.146-0.146","","","","Rate your confidence","1",""
"324","e","choice","left","e","experimental","1312","965902","0.0-4.0-8.147","true","148","3.0500000000000007","","",""
"1422","4","confid","","","html-slider-response","1314","967840","0.0-4.0-10.147-0.147","","","","Rate your confidence","1",""
"368","e","choice","left","e","experimental","1321","970045","0.0-4.0-8.148","true","149","3.0500000000000007","","",""
"2018","4","confid","","","html-slider-response","1323","972572","0.0-4.0-10.148-0.148","","","","Rate your confidence","1",""
"1930","i","choice","right","i","experimental","1330","976337","0.0-4.0-8.149","true","150","2.9500000000000006","","",""
"1997","4","confid","","","html-slider-response","1332","978845","0.0-4.0-10.149-0.149","","","","Rate your confidence","1",""
"478","i","choice","right","i","experimental","1339","981123","0.0-4.0-8.150","true","151","2.9500000000000006","","",""
"2537","4","confid","","","html-slider-response","1341","984177","0.0-4.0-10.150-0.150","","","","Rate your confidence","1",""
"1455","i","choice","left","e","experimental","1348","987497","0.0-4.0-8.151","false","152","2.8500000000000005","","",""
"3235","3","confid","","","html-slider-response","1350","991237","0.0-4.0-10.151-0.151","","","","Rate your confidence","1",""
"755","i","choice","right","i","experimental","1358","1003479","0.0-4.0-8.152","true","153","2.9500000000000006","","",""
"2358","4","confid","","","html-slider-response","1360","1006344","0.0-4.0-10.152-0.152","","","","Rate your confidence","1",""
"322","i","choice","left","e","experimental","1367","1008490","0.0-4.0-8.153","false","154","2.9500000000000006","","",""
"1577","4","confid","","","html-slider-response","1369","1010584","0.0-4.0-10.153-0.153","","","","Rate your confidence","1",""
"346","i","choice","right","i","experimental","1376","1012743","0.0-4.0-8.154","true","155","3.0500000000000007","","",""
"1309","4","confid","","","html-slider-response","1378","1014561","0.0-4.0-10.154-0.154","","","","Rate your confidence","1",""
"339","i","choice","left","e","experimental","1385","1016727","0.0-4.0-8.155","false","156","3.0500000000000007","","",""
"1486","4","confid","","","html-slider-response","1387","1018715","0.0-4.0-10.155-0.155","","","","Rate your confidence","1",""
"358","i","choice","left","e","experimental","1394","1020920","0.0-4.0-8.156","false","157","3.150000000000001","","",""
"1312","4","confid","","","html-slider-response","1396","1022741","0.0-4.0-10.156-0.156","","","","Rate your confidence","1",""
"464","e","choice","right","i","experimental","1403","1025038","0.0-4.0-8.157","false","158","3.250000000000001","","",""
"1508","4","confid","","","html-slider-response","1405","1027061","0.0-4.0-10.157-0.157","","","","Rate your confidence","1",""
"267","i","choice","right","i","experimental","1412","1029137","0.0-4.0-8.158","true","159","3.350000000000001","","",""
"2037","4","confid","","","html-slider-response","1414","1031683","0.0-4.0-10.158-0.158","","","","Rate your confidence","1",""
"317","i","choice","left","e","experimental","1421","1033830","0.0-4.0-8.159","false","160","3.350000000000001","","",""
"1442","4","confid","","","html-slider-response","1423","1035780","0.0-4.0-10.159-0.159","","","","Rate your confidence","1",""
"652","i","choice","right","i","experimental","1430","1038249","0.0-4.0-8.160","true","161","3.450000000000001","","",""
"2432","5","confid","","","html-slider-response","1432","1041194","0.0-4.0-10.160-0.160","","","","Rate your confidence","1",""
"1173","e","choice","left","e","experimental","1439","1044221","0.0-4.0-8.161","true","162","3.450000000000001","","",""
"1742","5","confid","","","html-slider-response","1441","1046472","0.0-4.0-10.161-0.161","","","","Rate your confidence","1",""
"656","i","choice","right","i","experimental","1448","1048940","0.0-4.0-8.162","true","163","3.350000000000001","","",""
"3469","5","confid","","","html-slider-response","1450","1052916","0.0-4.0-10.162-0.162","","","","Rate your confidence","1",""
"332","e","choice","left","e","experimental","1457","1055070","0.0-4.0-8.163","true","164","3.350000000000001","","",""
"1993","5","confid","","","html-slider-response","1459","1057569","0.0-4.0-10.163-0.163","","","","Rate your confidence","1",""
"1463","e","choice","right","i","experimental","1466","1060896","0.0-4.0-8.164","false","165","3.250000000000001","","",""
"1601","5","confid","","","html-slider-response","1468","1063018","0.0-4.0-10.164-0.164","","","","Rate your confidence","1",""
"208","e","choice","left","e","experimental","1475","1065077","0.0-4.0-8.165","true","166","3.350000000000001","","",""
"1584","5","confid","","","html-slider-response","1477","1067171","0.0-4.0-10.165-0.165","","","","Rate your confidence","1",""
"702","i","choice","right","i","experimental","1484","1069727","0.0-4.0-8.166","true","167","3.350000000000001","","",""
"2262","5","confid","","","html-slider-response","1486","1072500","0.0-4.0-10.166-0.166","","","","Rate your confidence","1",""
"815","e","choice","left","e","experimental","1493","1075177","0.0-4.0-8.167","true","168","3.250000000000001","","",""
"1648","5","confid","","","html-slider-response","1495","1077329","0.0-4.0-10.167-0.167","","","","Rate your confidence","1",""
"227","i","choice","right","i","experimental","1502","1079397","0.0-4.0-8.168","true","169","3.250000000000001","","",""
"1553","5","confid","","","html-slider-response","1504","1081456","0.0-4.0-10.168-0.168","","","","Rate your confidence","1",""
"192","i","choice","left","e","experimental","1511","1083517","0.0-4.0-8.169","false","170","3.150000000000001","","",""
"2142","5","confid","","","html-slider-response","1513","1086172","0.0-4.0-10.169-0.169","","","","Rate your confidence","1",""
"831","e","choice","left","e","experimental","1520","1088860","0.0-4.0-8.170","true","171","3.250000000000001","","",""
"2533","5","confid","","","html-slider-response","1522","1091896","0.0-4.0-10.170-0.170","","","","Rate your confidence","1",""
"364","i","choice","right","i","experimental","1529","1094130","0.0-4.0-8.171","true","172","3.250000000000001","","",""
"1437","4","confid","","","html-slider-response","1531","1096073","0.0-4.0-10.171-0.171","","","","Rate your confidence","1",""
"259","i","choice","left","e","experimental","1538","1098181","0.0-4.0-8.172","false","173","3.150000000000001","","",""
"1686","5","confid","","","html-slider-response","1540","1100382","0.0-4.0-10.172-0.172","","","","Rate your confidence","1",""
"1324","i","choice","right","i","experimental","1547","1103519","0.0-4.0-8.173","true","174","3.250000000000001","","",""
"1598","5","confid","","","html-slider-response","1549","1105633","0.0-4.0-10.173-0.173","","","","Rate your confidence","1",""
"739","i","choice","left","e","experimental","1556","1108227","0.0-4.0-8.174","false","175","3.250000000000001","","",""
"1505","4","confid","","","html-slider-response","1558","1110244","0.0-4.0-10.174-0.174","","","","Rate your confidence","1",""
"333","i","choice","right","i","experimental","1565","1112430","0.0-4.0-8.175","true","176","3.350000000000001","","",""
"1747","5","confid","","","html-slider-response","1567","1114689","0.0-4.0-10.175-0.175","","","","Rate your confidence","1",""
"329","i","choice","left","e","experimental","1574","1116879","0.0-4.0-8.176","false","177","3.350000000000001","","",""
"1395","4","confid","","","html-slider-response","1576","1118787","0.0-4.0-10.176-0.176","","","","Rate your confidence","1",""
"378","i","choice","right","i","experimental","1583","1121039","0.0-4.0-8.177","true","178","3.450000000000001","","",""
"1885","5","confid","","","html-slider-response","1585","1123430","0.0-4.0-10.177-0.177","","","","Rate your confidence","1",""
"188","i","choice","right","i","experimental","1592","1125485","0.0-4.0-8.178","true","179","3.450000000000001","","",""
"1369","5","confid","","","html-slider-response","1594","1127365","0.0-4.0-10.178-0.178","","","","Rate your confidence","1",""
"168","i","choice","left","e","experimental","1601","1129383","0.0-4.0-8.179","false","180","3.350000000000001","","",""
"1336","5","confid","","","html-slider-response","1603","1131234","0.0-4.0-10.179-0.179","","","","Rate your confidence","1",""
"630","i","choice","right","i","experimental","1610","1133732","0.0-4.0-8.180","true","181","3.450000000000001","","",""
"1973","2","confid","","","html-slider-response","1612","1136207","0.0-4.0-10.180-0.180","","","","Rate your confidence","1",""
"787","e","choice","left","e","experimental","1619","1138868","0.0-4.0-8.181","true","182","3.450000000000001","","",""
"1921","5","confid","","","html-slider-response","1621","1141307","0.0-4.0-10.181-0.181","","","","Rate your confidence","1",""
"446","i","choice","right","i","experimental","1628","1143609","0.0-4.0-8.182","true","183","3.350000000000001","","",""
"1852","5","confid","","","html-slider-response","1630","1145966","0.0-4.0-10.182-0.182","","","","Rate your confidence","1",""
"965","e","choice","left","e","experimental","1637","1148763","0.0-4.0-8.183","true","184","3.350000000000001","","",""
"1873","5","confid","","","html-slider-response","1639","1151150","0.0-4.0-10.183-0.183","","","","Rate your confidence","1",""
"703","i","choice","right","i","experimental","1646","1153670","0.0-4.0-8.184","true","185","3.250000000000001","","",""
"1416","3","confid","","","html-slider-response","1648","1155597","0.0-4.0-10.184-0.184","","","","Rate your confidence","1",""
"760","e","choice","left","e","experimental","1655","1158213","0.0-4.0-8.185","true","186","3.250000000000001","","",""
"1431","5","confid","","","html-slider-response","1657","1160164","0.0-4.0-10.185-0.185","","","","Rate your confidence","1",""
"1343","i","choice","right","i","experimental","1664","1163371","0.0-4.0-8.186","true","187","3.150000000000001","","",""
"1383","5","confid","","","html-slider-response","1666","1165264","0.0-4.0-10.186-0.186","","","","Rate your confidence","1",""
"760","e","choice","left","e","experimental","1673","1167888","0.0-4.0-8.187","true","188","3.150000000000001","","",""
"4096","4","confid","","","html-slider-response","1675","1172498","0.0-4.0-10.187-0.187","","","","Rate your confidence","1",""
"1033","i","choice","right","i","experimental","1682","1175398","0.0-4.0-8.188","true","189","3.0500000000000007","","",""
"2147","4","confid","","","html-slider-response","1684","1178055","0.0-4.0-10.188-0.188","","","","Rate your confidence","1",""
"1435","e","choice","left","e","experimental","1691","1181355","0.0-4.0-8.189","true","190","3.0500000000000007","","",""
"1438","4","confid","","","html-slider-response","1693","1183304","0.0-4.0-10.189-0.189","","","","Rate your confidence","1",""
"958","e","choice","left","e","experimental","1700","1186112","0.0-4.0-8.190","true","191","2.9500000000000006","","",""
"1722","4","confid","","","html-slider-response","1702","1188347","0.0-4.0-10.190-0.190","","","","Rate your confidence","1",""
"1131","i","choice","right","i","experimental","1709","1191338","0.0-4.0-8.191","true","192","2.9500000000000006","","",""
"1360","4","confid","","","html-slider-response","1711","1193212","0.0-4.0-10.191-0.191","","","","Rate your confidence","1",""
"983","e","choice","left","e","experimental","1718","1196053","0.0-4.0-8.192","true","193","2.8500000000000005","","",""
"2353","4","confid","","","html-slider-response","1720","1198918","0.0-4.0-10.192-0.192","","","","Rate your confidence","1",""
"884","e","choice","right","i","experimental","1727","1201661","0.0-4.0-8.193","false","194","2.8500000000000005","","",""
"3548","4","confid","","","html-slider-response","1729","1205712","0.0-4.0-10.193-0.193","","","","Rate your confidence","1","28204"
