"rt","response","task","target_side","correct_response","trial_type","trial_index","time_elapsed","internal_node_id","correct","trial_number","n_dots","stimulus","slider_start","participant"
"1233","e","choice","right","i","practice","10","31611","0.0-4.0-8.0","false","1","4.25","","",""
"636","e","choice","left","e","practice","18","34527","0.0-4.0-8.1","true","2","4.65","","",""
"611.9999999999854","i","choice","right","i","practice","26","37413","0.0-4.0-8.2","true","3","4.65","","",""
"588.9999999999854","e","choice","left","e","practice","34","40276","0.0-4.0-8.3","true","4","4.25","","",""
"263.00000000001455","i","choice","right","i","practice","42","42812","0.0-4.0-8.4","true","5","4.25","","",""
"465","e","choice","left","e","practice","50","45551","0.0-4.0-8.5","true","6","3.85","","",""
"799","i","choice","left","e","practice","58","48622","0.0-4.0-8.6","false","7","3.85","","",""
"482","i","choice","right","i","practice","66","51377","0.0-4.0-8.7","true","8","4.05","","",""
"184","i","choice","right","i","practice","74","53833","0.0-4.0-8.8","true","9","4.05","","",""
"243","e","choice","left","e","practice","82","56350","0.0-4.0-8.9","true","10","3.8499999999999996","","",""
"490","e","choice","left","e","practice","90","59116","0.0-4.0-8.10","true","11","3.8499999999999996","","",""
"348","i","choice","right","i","practice","98","61741","0.0-4.0-8.11","true","12","3.7499999999999996","","",""
"477","e","choice","left","e","practice","106","64494","0.0-4.0-8.12","true","13","3.7499999999999996","","",""
"538","i","choice","right","i","practice","114","67303","0.0-4.0-8.13","true","14","3.6499999999999995","","",""
"191","e","choice","left","e","practice","122","69765","0.0-4.0-8.14","true","15","3.6499999999999995","","",""
"323.99999999998545","i","choice","right","i","practice","130","72367","0.0-4.0-8.15","true","16","3.5499999999999994","","",""
"401","e","choice","left","e","practice","138","75044","0.0-4.0-8.16","true","17","3.5499999999999994","","",""
"210.00000000001455","i","choice","right","i","practice","146","77528","0.0-4.0-8.17","true","18","3.4499999999999993","","",""
"535","i","choice","right","i","practice","154","80338","0.0-4.0-8.18","true","19","3.4499999999999993","","",""
"9","e","choice","left","e","practice","162","82629","0.0-4.0-8.19","true","20","3.349999999999999","","",""
"386","e","choice","right","i","practice","170","85291","0.0-4.0-8.20","false","21","3.349999999999999","","",""
"50","e","choice","left","e","practice","178","87615","0.0-4.0-8.21","true","22","3.4499999999999993","","",""
"346.9999999999709","i","choice","right","i","practice","186","90238","0.0-4.0-8.22","true","23","3.4499999999999993","","",""
"469","e","choice","left","e","practice","194","92982","0.0-4.0-8.23","true","24","3.349999999999999","","",""
"206","i","choice","right","i","practice","202","95463","0.0-4.0-8.24","true","25","3.349999999999999","","",""
"938","e","choice","left","e","practice","210","98677","0.0-4.0-8.25","true","26","3.249999999999999","","",""
"417","i","choice","right","i","experimental","221","133325","0.0-4.0-8.26","true","27","3.249999999999999","","",""
"3841","3","confid","","","html-slider-response","223","137671","0.0-4.0-10.26-0.26","","","","Rate your confidence","1",""
"1797","e","choice","left","e","experimental","230","141240","0.0-4.0-8.27","true","28","3.149999999999999","","",""
"5630.000000000029","4","confid","","","html-slider-response","232","147372","0.0-4.0-10.27-0.27","","","","Rate your confidence","1",""
"513.9999999999709","i","choice","right","i","experimental","239","149655","0.0-4.0-8.28","true","29","3.149999999999999","","",""
"5815","5","confid","","","html-slider-response","241","155973","0.0-4.0-10.28-0.28","","","","Rate your confidence","1",""
"976","e","choice","left","e","experimental","248","158724","0.0-4.0-8.29","true","30","3.049999999999999","","",""
"2728","3","confid","","","html-slider-response","250","161957","0.0-4.0-10.29-0.29","","","","Rate your confidence","1",""
"450","e","choice","right","i","experimental","257","164176","0.0-4.0-8.30","false","31","3.049999999999999","","",""
"2994","3","confid","","","html-slider-response","259","167674","0.0-4.0-10.30-0.30","","","","Rate your confidence","1",""
"613.9999999999709","e","choice","left","e","experimental","266","170060","0.0-4.0-8.31","true","32","3.149999999999999","","",""
"2393.999999999971","3","confid","","","html-slider-response","268","172958","0.0-4.0-10.31-0.31","","","","Rate your confidence","1",""
"688.0000000000291","i","choice","left","e","experimental","275","175421","0.0-4.0-8.32","false","33","3.149999999999999","","",""
"2833","2","confid","","","html-slider-response","277","178758","0.0-4.0-10.32-0.32","","","","Rate your confidence","1",""
"498.0000000000291","e","choice","right","i","experimental","284","181029","0.0-4.0-8.33","false","34","3.249999999999999","","",""
"3193","3","confid","","","html-slider-response","286","184726","0.0-4.0-10.33-0.33","","","","Rate your confidence","1",""
"460","i","choice","right","i","experimental","293","186961","0.0-4.0-8.34","true","35","3.349999999999999","","",""
"2527","3","confid","","","html-slider-response","295","189993","0.0-4.0-10.34-0.34","","","","Rate your confidence","1",""
"1021","e","choice","left","e","experimental","302","192785","0.0-4.0-8.35","true","36","3.349999999999999","","",""
"3287.000000000029","1","confid","","","html-slider-response","304","196576","0.0-4.0-10.35-0.35","","","","Rate your confidence","1",""
"536","i","choice","right","i","experimental","311","198885","0.0-4.0-8.36","true","37","3.249999999999999","","",""
"1987","5","confid","","","html-slider-response","313","201377","0.0-4.0-10.36-0.36","","","","Rate your confidence","1",""
"80.0000000000291","e","choice","left","e","experimental","320","203234","0.0-4.0-8.37","true","38","3.249999999999999","","",""
"2470","5","confid","","","html-slider-response","322","206210","0.0-4.0-10.37-0.37","","","","Rate your confidence","1",""
"664","i","choice","left","e","experimental","329","208648","0.0-4.0-8.38","false","39","3.149999999999999","","",""
"3043","4","confid","","","html-slider-response","331","212195","0.0-4.0-10.38-0.38","","","","Rate your confidence","1",""
"493.9999999999418","i","choice","right","i","experimental","338","214455","0.0-4.0-8.39","true","40","3.249999999999999","","",""
"2552","3","confid","","","html-slider-response","340","217512","0.0-4.0-10.39-0.39","","","","Rate your confidence","1",""
"438","e","choice","left","e","experimental","347","219715","0.0-4.0-8.40","true","41","3.249999999999999","","",""
"2809","3","confid","","","html-slider-response","349","223028","0.0-4.0-10.40-0.40","","","","Rate your confidence","1",""
"161","e","choice","right","i","experimental","356","224965","0.0-4.0-8.41","false","42","3.149999999999999","","",""
"2009","3","confid","","","html-slider-response","358","227479","0.0-4.0-10.41-0.41","","","","Rate your confidence","1",""
"957","i","choice","right","i","experimental","365","230210","0.0-4.0-8.42","true","43","3.249999999999999","","",""
"2150","1","confid","","","html-slider-response","367","232863","0.0-4.0-10.42-0.42","","","","Rate your confidence","1",""
"205","e","choice","left","e","experimental","374","234837","0.0-4.0-8.43","true","44","3.249999999999999","","",""
"2739","2","confid","","","html-slider-response","376","238080","0.0-4.0-10.43-0.43","","","","Rate your confidence","1",""
"282","e","choice","left","e","experimental","383","240132","0.0-4.0-8.44","true","45","3.149999999999999","","",""
"2107.999999999942","2","confid","","","html-slider-response","385","242746","0.0-4.0-10.44-0.44","","","","Rate your confidence","1",""
"848","i","choice","right","i","experimental","392","245370","0.0-4.0-8.45","true","46","3.149999999999999","","",""
"27525","3","confid","","","html-slider-response","394","273399","0.0-4.0-10.45-0.45","","","","Rate your confidence","1",""
"5424","e","choice","left","e","experimental","401","280592","0.0-4.0-8.46","true","47","3.049999999999999","","",""
"30339","1","confid","","","html-slider-response","403","311435","0.0-4.0-10.46-0.46","","","","Rate your confidence","1",""
"665.0000000000582","i","choice","right","i","experimental","410","313873","0.0-4.0-8.47","true","48","3.049999999999999","","",""
"2140","2","confid","","","html-slider-response","412","316519","0.0-4.0-10.47-0.47","","","","Rate your confidence","1",""
"389","e","choice","left","e","experimental","419","318682","0.0-4.0-8.48","true","49","2.949999999999999","","",""
"1684","4","confid","","","html-slider-response","421","320869","0.0-4.0-10.48-0.48","","","","Rate your confidence","1",""
"586","i","choice","right","i","experimental","428","323228","0.0-4.0-8.49","true","50","2.949999999999999","","",""
"1872","3","confid","","","html-slider-response","430","325604","0.0-4.0-10.49-0.49","","","","Rate your confidence","1",""
"417","e","choice","right","i","experimental","437","327792","0.0-4.0-8.50","false","51","2.8499999999999988","","",""
"2271","1","confid","","","html-slider-response","439","330571","0.0-4.0-10.50-0.50","","","","Rate your confidence","1",""
"94","e","choice","left","e","experimental","446","332451","0.0-4.0-8.51","true","52","2.949999999999999","","",""
"3066","6","confid","","","html-slider-response","448","336020","0.0-4.0-10.51-0.51","","","","Rate your confidence","1",""
"879","i","choice","right","i","experimental","455","338673","0.0-4.0-8.52","true","53","2.949999999999999","","",""
"3894.999999999942","2","confid","","","html-slider-response","457","343071","0.0-4.0-10.52-0.52","","","","Rate your confidence","1",""
"10","e","choice","left","e","experimental","464","344851","0.0-4.0-8.53","true","54","2.8499999999999988","","",""
"2683","2","confid","","","html-slider-response","466","348038","0.0-4.0-10.53-0.53","","","","Rate your confidence","1",""
"904","i","choice","right","i","experimental","473","350714","0.0-4.0-8.54","true","55","2.8499999999999988","","",""
"2521","4","confid","","","html-slider-response","475","353739","0.0-4.0-10.54-0.54","","","","Rate your confidence","1",""
"342","e","choice","left","e","experimental","482","355854","0.0-4.0-8.55","true","56","2.7499999999999987","","",""
"2696","4","confid","","","html-slider-response","484","359056","0.0-4.0-10.55-0.55","","","","Rate your confidence","1",""
"280","i","choice","right","i","experimental","491","361106","0.0-4.0-8.56","true","57","2.7499999999999987","","",""
"4729","4","confid","","","html-slider-response","493","366340","0.0-4.0-10.56-0.56","","","","Rate your confidence","1",""
"220","e","choice","left","e","experimental","500","368334","0.0-4.0-8.57","true","58","2.6499999999999986","","",""
"2553","4","confid","","","html-slider-response","502","371391","0.0-4.0-10.57-0.57","","","","Rate your confidence","1",""
"182","i","choice","right","i","experimental","509","373344","0.0-4.0-8.58","true","59","2.6499999999999986","","",""
"2189","4","confid","","","html-slider-response","511","376041","0.0-4.0-10.58-0.58","","","","Rate your confidence","1",""
"277","e","choice","left","e","experimental","518","378090","0.0-4.0-8.59","true","60","2.5499999999999985","","",""
"1782","2","confid","","","html-slider-response","520","380375","0.0-4.0-10.59-0.59","","","","Rate your confidence","1",""
"597","i","choice","left","e","experimental","527","382743","0.0-4.0-8.60","false","61","2.5499999999999985","","",""
"1911","2","confid","","","html-slider-response","529","385158","0.0-4.0-10.60-0.60","","","","Rate your confidence","1",""
"114","i","choice","right","i","experimental","536","387043","0.0-4.0-8.61","true","62","2.6499999999999986","","",""
"3877","5","confid","","","html-slider-response","538","391426","0.0-4.0-10.61-0.61","","","","Rate your confidence","1",""
"932","e","choice","left","e","experimental","545","394132","0.0-4.0-8.62","true","63","2.6499999999999986","","",""
"2506","2","confid","","","html-slider-response","547","397143","0.0-4.0-10.62-0.62","","","","Rate your confidence","1",""
"1933","i","choice","right","i","experimental","554","400845","0.0-4.0-8.63","true","64","2.5499999999999985","","",""
"2276.999999999942","3","confid","","","html-slider-response","556","403626","0.0-4.0-10.63-0.63","","","","Rate your confidence","1",""
"1267.9999999999418","i","choice","left","e","experimental","563","406666","0.0-4.0-8.64","false","65","2.5499999999999985","","",""
"2374","2","confid","","","html-slider-response","565","409544","0.0-4.0-10.64-0.64","","","","Rate your confidence","1",""
"744","i","choice","right","i","experimental","572","412061","0.0-4.0-8.65","true","66","2.6499999999999986","","",""
"2046","5","confid","","","html-slider-response","574","414611","0.0-4.0-10.65-0.65","","","","Rate your confidence","1",""
"314","i","choice","right","i","experimental","581","416695","0.0-4.0-8.66","true","67","2.6499999999999986","","",""
"3080.000000000058","5","confid","","","html-slider-response","583","420278","0.0-4.0-10.66-0.66","","","","Rate your confidence","1",""
"340.9999999999418","e","choice","left","e","experimental","590","422393","0.0-4.0-8.67","true","68","2.5499999999999985","","",""
"2062.999999999942","1","confid","","","html-slider-response","592","424961","0.0-4.0-10.67-0.67","","","","Rate your confidence","1",""
"598","i","choice","right","i","experimental","600","433010","0.0-4.0-8.68","true","69","2.5499999999999985","","",""
"2348.000000000058","2","confid","","","html-slider-response","602","435862","0.0-4.0-10.68-0.68","","","","Rate your confidence","1",""
"770","i","choice","left","e","experimental","609","438405","0.0-4.0-8.69","false","70","2.4499999999999984","","",""
"2485.999999999942","3","confid","","","html-slider-response","611","441396","0.0-4.0-10.69-0.69","","","","Rate your confidence","1",""
"403","e","choice","left","e","experimental","618","443572","0.0-4.0-8.70","true","71","2.5499999999999985","","",""
"4637","3","confid","","","html-slider-response","620","448714","0.0-4.0-10.70-0.70","","","","Rate your confidence","1",""
"373","e","choice","right","i","experimental","627","450860","0.0-4.0-8.71","false","72","2.5499999999999985","","",""
"2249","3","confid","","","html-slider-response","629","453614","0.0-4.0-10.71-0.71","","","","Rate your confidence","1",""
"58","i","choice","right","i","experimental","636","455443","0.0-4.0-8.72","true","73","2.6499999999999986","","",""
"3866.000000000058","3","confid","","","html-slider-response","638","459814","0.0-4.0-10.72-0.72","","","","Rate your confidence","1",""
"181.9999999999418","i","choice","left","e","experimental","645","461766","0.0-4.0-8.73","false","74","2.6499999999999986","","",""
"3560","1","confid","","","html-slider-response","647","465832","0.0-4.0-10.73-0.73","","","","Rate your confidence","1",""
"175.0000000000582","i","choice","left","e","experimental","654","467778","0.0-4.0-8.74","false","75","2.7499999999999987","","",""
"3466","2","confid","","","html-slider-response","656","471749","0.0-4.0-10.74-0.74","","","","Rate your confidence","1",""
"394.0000000000582","i","choice","right","i","experimental","663","473916","0.0-4.0-8.75","true","76","2.8499999999999988","","",""
"4696","3","confid","","","html-slider-response","665","479116","0.0-4.0-10.75-0.75","","","","Rate your confidence","1",""
"635.0000000001164","e","choice","left","e","experimental","672","481523","0.0-4.0-8.76","true","77","2.8499999999999988","","",""
"3489","4","confid","","","html-slider-response","674","485516","0.0-4.0-10.76-0.76","","","","Rate your confidence","1",""
"388","e","choice","right","i","experimental","681","487676","0.0-4.0-8.77","false","78","2.7499999999999987","","",""
"2204","3","confid","","","html-slider-response","683","490383","0.0-4.0-10.77-0.77","","","","Rate your confidence","1",""
"312.0000000001164","e","choice","left","e","experimental","690","492470","0.0-4.0-8.78","true","79","2.8499999999999988","","",""
"2661","3","confid","","","html-slider-response","692","495634","0.0-4.0-10.78-0.78","","","","Rate your confidence","1",""
"932","i","choice","right","i","experimental","699","498335","0.0-4.0-8.79","true","80","2.8499999999999988","","",""
"4229","4","confid","","","html-slider-response","701","503068","0.0-4.0-10.79-0.79","","","","Rate your confidence","1",""
"791.9999999998836","i","choice","left","e","experimental","708","505632","0.0-4.0-8.80","false","81","2.7499999999999987","","",""
"2200","4","confid","","","html-slider-response","710","508335","0.0-4.0-10.80-0.80","","","","Rate your confidence","1",""
"466","i","choice","right","i","experimental","717","510572","0.0-4.0-8.81","true","82","2.8499999999999988","","",""
"2177","4","confid","","","html-slider-response","719","513252","0.0-4.0-10.81-0.81","","","","Rate your confidence","1",""
"1301","i","choice","right","i","experimental","726","516323","0.0-4.0-8.82","true","83","2.8499999999999988","","",""
"1990","3","confid","","","html-slider-response","728","518819","0.0-4.0-10.82-0.82","","","","Rate your confidence","1",""
"1710","e","choice","left","e","experimental","735","522300","0.0-4.0-8.83","true","84","2.7499999999999987","","",""
"2333","3","confid","","","html-slider-response","737","525136","0.0-4.0-10.83-0.83","","","","Rate your confidence","1",""
"903","e","choice","left","e","experimental","744","527812","0.0-4.0-8.84","true","85","2.7499999999999987","","",""
"2786.9999999998836","3","confid","","","html-slider-response","746","531104","0.0-4.0-10.84-0.84","","","","Rate your confidence","1",""
"752","i","choice","right","i","experimental","753","533625","0.0-4.0-8.85","true","86","2.6499999999999986","","",""
"2327","4","confid","","","html-slider-response","755","536454","0.0-4.0-10.85-0.85","","","","Rate your confidence","1",""
"713","e","choice","right","i","experimental","762","538936","0.0-4.0-8.86","false","87","2.6499999999999986","","",""
"1998","3","confid","","","html-slider-response","764","541438","0.0-4.0-10.86-0.86","","","","Rate your confidence","1",""
"1131","i","choice","left","e","experimental","771","544337","0.0-4.0-8.87","false","88","2.7499999999999987","","",""
"2713.9999999998836","4","confid","","","html-slider-response","773","547555","0.0-4.0-10.87-0.87","","","","Rate your confidence","1",""
"865","e","choice","left","e","experimental","780","550189","0.0-4.0-8.88","true","89","2.8499999999999988","","",""
"4561","2","confid","","","html-slider-response","782","555255","0.0-4.0-10.88-0.88","","","","Rate your confidence","1",""
"831","i","choice","right","i","experimental","789","557854","0.0-4.0-8.89","true","90","2.8499999999999988","","",""
"2131","2","confid","","","html-slider-response","791","560489","0.0-4.0-10.89-0.89","","","","Rate your confidence","1",""
"182","i","choice","right","i","experimental","798","562444","0.0-4.0-8.90","true","91","2.7499999999999987","","",""
"1925","4","confid","","","html-slider-response","800","564873","0.0-4.0-10.90-0.90","","","","Rate your confidence","1",""
"684.9999999998836","i","choice","left","e","experimental","807","567324","0.0-4.0-8.91","false","92","2.7499999999999987","","",""
"1830","4","confid","","","html-slider-response","809","569657","0.0-4.0-10.91-0.91","","","","Rate your confidence","1",""
"319","i","choice","left","e","experimental","816","571751","0.0-4.0-8.92","false","93","2.8499999999999988","","",""
"2770.0000000001164","5","confid","","","html-slider-response","818","575024","0.0-4.0-10.92-0.92","","","","Rate your confidence","1",""
"1595","e","choice","right","i","experimental","825","578391","0.0-4.0-8.93","false","94","2.949999999999999","","",""
"2779.9999999998836","2","confid","","","html-slider-response","827","581674","0.0-4.0-10.93-0.93","","","","Rate your confidence","1",""
"966","i","choice","right","i","experimental","834","584412","0.0-4.0-8.94","true","95","3.049999999999999","","",""
"2457","3","confid","","","html-slider-response","836","587374","0.0-4.0-10.94-0.94","","","","Rate your confidence","1",""
"478","i","choice","left","e","experimental","843","589624","0.0-4.0-8.95","false","96","3.049999999999999","","",""
"2312","2","confid","","","html-slider-response","845","592441","0.0-4.0-10.95-0.95","","","","Rate your confidence","1",""
"382","i","choice","left","e","experimental","852","594593","0.0-4.0-8.96","false","97","3.149999999999999","","",""
"2045","2","confid","","","html-slider-response","854","597142","0.0-4.0-10.96-0.96","","","","Rate your confidence","1",""
"762","i","choice","right","i","experimental","861","599675","0.0-4.0-8.97","true","98","3.249999999999999","","",""
"2348","6","confid","","","html-slider-response","863","602526","0.0-4.0-10.97-0.97","","","","Rate your confidence","1",""
"107","i","choice","right","i","experimental","870","604411","0.0-4.0-8.98","true","99","3.249999999999999","","",""
"2144","5","confid","","","html-slider-response","872","607059","0.0-4.0-10.98-0.98","","","","Rate your confidence","1",""
"1373","i","choice","left","e","experimental","879","610203","0.0-4.0-8.99","false","100","3.149999999999999","","",""
"2220","1","confid","","","html-slider-response","881","612927","0.0-4.0-10.99-0.99","","","","Rate your confidence","1",""
"924","i","choice","left","e","experimental","888","615619","0.0-4.0-8.100","false","101","3.249999999999999","","",""
"2766","1","confid","","","html-slider-response","890","618894","0.0-4.0-10.100-0.100","","","","Rate your confidence","1",""
"590","i","choice","right","i","experimental","897","621254","0.0-4.0-8.101","true","102","3.349999999999999","","",""
"2537","2","confid","","","html-slider-response","899","624294","0.0-4.0-10.101-0.101","","","","Rate your confidence","1",""
"1372","e","choice","left","e","experimental","906","627441","0.0-4.0-8.102","true","103","3.349999999999999","","",""
"2051.0000000001164","3","confid","","","html-slider-response","908","629995","0.0-4.0-10.102-0.102","","","","Rate your confidence","1",""
"665","i","choice","right","i","experimental","915","632429","0.0-4.0-8.103","true","104","3.249999999999999","","",""
"2729","5","confid","","","html-slider-response","917","635662","0.0-4.0-10.103-0.103","","","","Rate your confidence","1",""
"2381","e","choice","left","e","experimental","924","639816","0.0-4.0-8.104","true","105","3.249999999999999","","",""
"2559","2","confid","","","html-slider-response","926","642879","0.0-4.0-10.104-0.104","","","","Rate your confidence","1",""
"980","e","choice","right","i","experimental","933","645632","0.0-4.0-8.105","false","106","3.149999999999999","","",""
"2626","1","confid","","","html-slider-response","935","648763","0.0-4.0-10.105-0.105","","","","Rate your confidence","1",""
"230","e","choice","right","i","experimental","942","650763","0.0-4.0-8.106","false","107","3.249999999999999","","",""
"2763","1","confid","","","html-slider-response","944","654030","0.0-4.0-10.106-0.106","","","","Rate your confidence","1",""
"2136","e","choice","left","e","experimental","951","657934","0.0-4.0-8.107","true","108","3.349999999999999","","",""
"3077","2","confid","","","html-slider-response","953","661515","0.0-4.0-10.107-0.107","","","","Rate your confidence","1",""
"1283","e","choice","left","e","experimental","960","664570","0.0-4.0-8.108","true","109","3.349999999999999","","",""
"1924","4","confid","","","html-slider-response","962","666998","0.0-4.0-10.108-0.108","","","","Rate your confidence","1",""
"939.9999999998836","e","choice","right","i","experimental","969","669711","0.0-4.0-8.109","false","110","3.249999999999999","","",""
"3100","3","confid","","","html-slider-response","971","673315","0.0-4.0-10.109-0.109","","","","Rate your confidence","1",""
"793","e","choice","left","e","experimental","979","677600","0.0-4.0-8.110","true","111","3.349999999999999","","",""
"2695.0000000001164","3","confid","","","html-slider-response","981","680799","0.0-4.0-10.110-0.110","","","","Rate your confidence","1",""
"2101","e","choice","right","i","experimental","988","684668","0.0-4.0-8.111","false","112","3.349999999999999","","",""
"2044","1","confid","","","html-slider-response","990","687216","0.0-4.0-10.111-0.111","","","","Rate your confidence","1",""
"994","e","choice","left","e","experimental","997","689977","0.0-4.0-8.112","true","113","3.4499999999999993","","",""
"2286","1","confid","","","html-slider-response","999","692767","0.0-4.0-10.112-0.112","","","","Rate your confidence","1",""
"1043","i","choice","right","i","experimental","1006","695581","0.0-4.0-8.113","true","114","3.4499999999999993","","",""
"2599","4","confid","","","html-slider-response","1008","698684","0.0-4.0-10.113-0.113","","","","Rate your confidence","1",""
"3357","i","choice","right","i","experimental","1015","703810","0.0-4.0-8.114","true","115","3.349999999999999","","",""
"2605","4","confid","","","html-slider-response","1017","706918","0.0-4.0-10.114-0.114","","","","Rate your confidence","1",""
"4079","i","choice","left","e","experimental","1024","712764","0.0-4.0-8.115","false","116","3.349999999999999","","",""
"2100","4","confid","","","html-slider-response","1026","715369","0.0-4.0-10.115-0.115","","","","Rate your confidence","1",""
"1881.9999999998836","e","choice","right","i","experimental","1033","719023","0.0-4.0-8.116","false","117","3.4499999999999993","","",""
"1942","1","confid","","","html-slider-response","1035","721469","0.0-4.0-10.116-0.116","","","","Rate your confidence","1",""
"142","e","choice","left","e","experimental","1042","723380","0.0-4.0-8.117","true","118","3.5499999999999994","","",""
"2234","1","confid","","","html-slider-response","1044","726119","0.0-4.0-10.117-0.117","","","","Rate your confidence","1",""
"276.0000000001164","i","choice","left","e","experimental","1051","728165","0.0-4.0-8.118","false","119","3.5499999999999994","","",""
"2134","1","confid","","","html-slider-response","1053","730803","0.0-4.0-10.118-0.118","","","","Rate your confidence","1",""
"567","e","choice","right","i","experimental","1060","733140","0.0-4.0-8.119","false","120","3.6499999999999995","","",""
"3410","3","confid","","","html-slider-response","1062","737054","0.0-4.0-10.119-0.119","","","","Rate your confidence","1",""
"1537","e","choice","left","e","experimental","1069","740359","0.0-4.0-8.120","true","121","3.7499999999999996","","",""
"2041.9999999998836","2","confid","","","html-slider-response","1071","742904","0.0-4.0-10.120-0.120","","","","Rate your confidence","1",""
"606","e","choice","right","i","experimental","1078","745280","0.0-4.0-8.121","false","122","3.7499999999999996","","",""
"2036","3","confid","","","html-slider-response","1080","747821","0.0-4.0-10.121-0.121","","","","Rate your confidence","1",""
"72","e","choice","left","e","experimental","1087","749661","0.0-4.0-8.122","true","123","3.8499999999999996","","",""
"1955","2","confid","","","html-slider-response","1089","752121","0.0-4.0-10.122-0.122","","","","Rate your confidence","1",""
"834","e","choice","right","i","experimental","1096","754728","0.0-4.0-8.123","false","124","3.8499999999999996","","",""
"1956","1","confid","","","html-slider-response","1098","757189","0.0-4.0-10.123-0.123","","","","Rate your confidence","1",""
"517","e","choice","right","i","experimental","1105","759477","0.0-4.0-8.124","false","125","3.9499999999999997","","",""
"2108.0000000001164","5","confid","","","html-slider-response","1107","762089","0.0-4.0-10.124-0.124","","","","Rate your confidence","1",""
"589","e","choice","left","e","experimental","1114","764452","0.0-4.0-8.125","true","126","4.05","","",""
"3117","6","confid","","","html-slider-response","1116","768073","0.0-4.0-10.125-0.125","","","","Rate your confidence","1",""
"717","i","choice","right","i","experimental","1123","770564","0.0-4.0-8.126","true","127","4.05","","",""
"2222","5","confid","","","html-slider-response","1125","773290","0.0-4.0-10.126-0.126","","","","Rate your confidence","1",""
"335","e","choice","left","e","experimental","1132","775395","0.0-4.0-8.127","true","128","3.9499999999999997","","",""
"2842","5","confid","","","html-slider-response","1134","778741","0.0-4.0-10.127-0.127","","","","Rate your confidence","1",""
"481","i","choice","right","i","experimental","1141","780999","0.0-4.0-8.128","true","129","3.9499999999999997","","",""
"1822","5","confid","","","html-slider-response","1143","783323","0.0-4.0-10.128-0.128","","","","Rate your confidence","1",""
"229.00000000011642","e","choice","left","e","experimental","1150","785326","0.0-4.0-8.129","true","130","3.8499999999999996","","",""
"2359","4","confid","","","html-slider-response","1152","788191","0.0-4.0-10.129-0.129","","","","Rate your confidence","1",""
"77","e","choice","left","e","experimental","1159","790047","0.0-4.0-8.130","true","131","3.8499999999999996","","",""
"2405","4","confid","","","html-slider-response","1161","792958","0.0-4.0-10.130-0.130","","","","Rate your confidence","1",""
"491","i","choice","right","i","experimental","1168","795221","0.0-4.0-8.131","true","132","3.7499999999999996","","",""
"1884.9999999998836","5","confid","","","html-slider-response","1170","797608","0.0-4.0-10.131-0.131","","","","Rate your confidence","1",""
"767","e","choice","left","e","experimental","1177","800150","0.0-4.0-8.132","true","133","3.7499999999999996","","",""
"2939","4","confid","","","html-slider-response","1179","803593","0.0-4.0-10.132-0.132","","","","Rate your confidence","1",""
"442.9999999998836","i","choice","right","i","experimental","1186","805806","0.0-4.0-8.133","true","134","3.6499999999999995","","",""
"2184.0000000001164","6","confid","","","html-slider-response","1188","808493","0.0-4.0-10.133-0.133","","","","Rate your confidence","1",""
"673","i","choice","right","i","experimental","1195","810933","0.0-4.0-8.134","true","135","3.6499999999999995","","",""
"2023","6","confid","","","html-slider-response","1197","813460","0.0-4.0-10.134-0.134","","","","Rate your confidence","1",""
"381","e","choice","left","e","experimental","1204","815608","0.0-4.0-8.135","true","136","3.5499999999999994","","",""
"1897","5","confid","","","html-slider-response","1206","818009","0.0-4.0-10.135-0.135","","","","Rate your confidence","1",""
"431","e","choice","left","e","experimental","1213","820212","0.0-4.0-8.136","true","137","3.5499999999999994","","",""
"3477","4","confid","","","html-slider-response","1215","824194","0.0-4.0-10.136-0.136","","","","Rate your confidence","1",""
"790","i","choice","right","i","experimental","1222","826756","0.0-4.0-8.137","true","138","3.4499999999999993","","",""
"2150.0000000001164","1","confid","","","html-slider-response","1224","829411","0.0-4.0-10.137-0.137","","","","Rate your confidence","1",""
"679","e","choice","left","e","experimental","1231","831862","0.0-4.0-8.138","true","139","3.4499999999999993","","",""
"1846","4","confid","","","html-slider-response","1233","834212","0.0-4.0-10.138-0.138","","","","Rate your confidence","1",""
"707","i","choice","right","i","experimental","1240","836689","0.0-4.0-8.139","true","140","3.349999999999999","","",""
"1951","5","confid","","","html-slider-response","1242","839145","0.0-4.0-10.139-0.139","","","","Rate your confidence","1",""
"1313","e","choice","left","e","experimental","1249","842231","0.0-4.0-8.140","true","141","3.349999999999999","","",""
"2012","5","confid","","","html-slider-response","1251","844746","0.0-4.0-10.140-0.140","","","","Rate your confidence","1",""
"558","i","choice","right","i","experimental","1258","847077","0.0-4.0-8.141","true","142","3.249999999999999","","",""
"1997","5","confid","","","html-slider-response","1260","849579","0.0-4.0-10.141-0.141","","","","Rate your confidence","1",""
"643.0000000001164","i","choice","right","i","experimental","1267","851995","0.0-4.0-8.142","true","143","3.249999999999999","","",""
"2697.9999999998836","5","confid","","","html-slider-response","1269","855196","0.0-4.0-10.142-0.142","","","","Rate your confidence","1",""
"336","e","choice","left","e","experimental","1276","857302","0.0-4.0-8.143","true","144","3.149999999999999","","",""
"4756","4","confid","","","html-slider-response","1278","862564","0.0-4.0-10.143-0.143","","","","Rate your confidence","1",""
"1087","e","choice","left","e","experimental","1285","865426","0.0-4.0-8.144","true","145","3.149999999999999","","",""
"3085","3","confid","","","html-slider-response","1287","869014","0.0-4.0-10.144-0.144","","","","Rate your confidence","1",""
"1073","e","choice","right","i","experimental","1294","871858","0.0-4.0-8.145","false","146","3.049999999999999","","",""
"2185","4","confid","","","html-slider-response","1296","874547","0.0-4.0-10.145-0.145","","","","Rate your confidence","1",""
"907.9999999998836","i","choice","right","i","experimental","1303","877229","0.0-4.0-8.146","true","147","3.149999999999999","","",""
"2199","5","confid","","","html-slider-response","1305","879935","0.0-4.0-10.146-0.146","","","","Rate your confidence","1",""
"546","e","choice","left","e","experimental","1312","882253","0.0-4.0-8.147","true","148","3.149999999999999","","",""
"2242.0000000001164","5","confid","","","html-slider-response","1314","884999","0.0-4.0-10.147-0.147","","","","Rate your confidence","1",""
"1225","e","choice","right","i","experimental","1321","887997","0.0-4.0-8.148","false","149","3.049999999999999","","",""
"1597","5","confid","","","html-slider-response","1323","890099","0.0-4.0-10.148-0.148","","","","Rate your confidence","1",""
"356","e","choice","left","e","experimental","1330","892233","0.0-4.0-8.149","true","150","3.149999999999999","","",""
"1780","5","confid","","","html-slider-response","1332","894516","0.0-4.0-10.149-0.149","","","","Rate your confidence","1",""
"110","e","choice","right","i","experimental","1339","896400","0.0-4.0-8.150","false","151","3.149999999999999","","",""
"2077","1","confid","","","html-slider-response","1341","898983","0.0-4.0-10.150-0.150","","","","Rate your confidence","1",""
"538","e","choice","left","e","experimental","1348","901295","0.0-4.0-8.151","true","152","3.249999999999999","","",""
"1834","1","confid","","","html-slider-response","1350","903633","0.0-4.0-10.151-0.151","","","","Rate your confidence","1",""
"775.9999999998836","e","choice","left","e","experimental","1358","907439","0.0-4.0-8.152","true","153","3.249999999999999","","",""
"3374","4","confid","","","html-slider-response","1360","911317","0.0-4.0-10.152-0.152","","","","Rate your confidence","1",""
"1450","e","choice","right","i","experimental","1367","914542","0.0-4.0-8.153","false","154","3.149999999999999","","",""
"2106","1","confid","","","html-slider-response","1369","917151","0.0-4.0-10.153-0.153","","","","Rate your confidence","1",""
"1133","i","choice","right","i","experimental","1376","920049","0.0-4.0-8.154","true","155","3.249999999999999","","",""
"1599.9999999998836","4","confid","","","html-slider-response","1378","922152","0.0-4.0-10.154-0.154","","","","Rate your confidence","1",""
"752","i","choice","left","e","experimental","1385","924675","0.0-4.0-8.155","false","156","3.249999999999999","","",""
"1986","3","confid","","","html-slider-response","1387","927169","0.0-4.0-10.155-0.155","","","","Rate your confidence","1",""
"492","e","choice","left","e","experimental","1394","929430","0.0-4.0-8.156","true","157","3.349999999999999","","",""
"2651","5","confid","","","html-slider-response","1396","932584","0.0-4.0-10.156-0.156","","","","Rate your confidence","1",""
"769.0000000001164","i","choice","right","i","experimental","1403","935125","0.0-4.0-8.157","true","158","3.349999999999999","","",""
"4390","4","confid","","","html-slider-response","1405","940020","0.0-4.0-10.157-0.157","","","","Rate your confidence","1",""
"327","e","choice","left","e","experimental","1412","942121","0.0-4.0-8.158","true","159","3.249999999999999","","",""
"1795.9999999998836","1","confid","","","html-slider-response","1414","944420","0.0-4.0-10.158-0.158","","","","Rate your confidence","1",""
"619.0000000001164","i","choice","right","i","experimental","1421","946812","0.0-4.0-8.159","true","160","3.249999999999999","","",""
"2203.9999999998836","1","confid","","","html-slider-response","1423","949521","0.0-4.0-10.159-0.159","","","","Rate your confidence","1",""
"405.0000000001164","i","choice","right","i","experimental","1430","951697","0.0-4.0-8.160","true","161","3.149999999999999","","",""
"1852","5","confid","","","html-slider-response","1432","954055","0.0-4.0-10.160-0.160","","","","Rate your confidence","1",""
"381","e","choice","left","e","experimental","1439","956206","0.0-4.0-8.161","true","162","3.149999999999999","","",""
"2443","5","confid","","","html-slider-response","1441","959155","0.0-4.0-10.161-0.161","","","","Rate your confidence","1",""
"340","i","choice","right","i","experimental","1448","961266","0.0-4.0-8.162","true","163","3.049999999999999","","",""
"2269.9999999998836","5","confid","","","html-slider-response","1450","964039","0.0-4.0-10.162-0.162","","","","Rate your confidence","1",""
"495.9999999998836","e","choice","left","e","experimental","1457","966309","0.0-4.0-8.163","true","164","3.049999999999999","","",""
"1976.9999999998836","6","confid","","","html-slider-response","1459","968789","0.0-4.0-10.163-0.163","","","","Rate your confidence","1",""
"773.0000000001164","e","choice","left","e","experimental","1466","971335","0.0-4.0-8.164","true","165","2.949999999999999","","",""
"2801","2","confid","","","html-slider-response","1468","974640","0.0-4.0-10.164-0.164","","","","Rate your confidence","1",""
"569.0000000002328","i","choice","right","i","experimental","1475","976984","0.0-4.0-8.165","true","166","2.949999999999999","","",""
"1602.0000000001164","5","confid","","","html-slider-response","1477","979090","0.0-4.0-10.165-0.165","","","","Rate your confidence","1",""
"646","e","choice","left","e","experimental","1484","981510","0.0-4.0-8.166","true","167","2.8499999999999988","","",""
"1944.9999999998836","1","confid","","","html-slider-response","1486","983957","0.0-4.0-10.166-0.166","","","","Rate your confidence","1",""
"1992","e","choice","right","i","experimental","1493","987720","0.0-4.0-8.167","false","168","2.8499999999999988","","",""
"2464.9999999998836","1","confid","","","html-slider-response","1495","990690","0.0-4.0-10.167-0.167","","","","Rate your confidence","1",""
"433","i","choice","right","i","experimental","1502","992896","0.0-4.0-8.168","true","169","2.949999999999999","","",""
"1758.0000000001164","6","confid","","","html-slider-response","1504","995158","0.0-4.0-10.168-0.168","","","","Rate your confidence","1",""
"298","e","choice","left","e","experimental","1511","997231","0.0-4.0-8.169","true","170","2.949999999999999","","",""
"2340.9999999998836","2","confid","","","html-slider-response","1513","1000075","0.0-4.0-10.169-0.169","","","","Rate your confidence","1",""
"769","i","choice","left","e","experimental","1520","1002618","0.0-4.0-8.170","false","171","2.8499999999999988","","",""
"1819","1","confid","","","html-slider-response","1522","1004942","0.0-4.0-10.170-0.170","","","","Rate your confidence","1",""
"620","i","choice","right","i","experimental","1529","1007331","0.0-4.0-8.171","true","172","2.949999999999999","","",""
"2774","5","confid","","","html-slider-response","1531","1010609","0.0-4.0-10.171-0.171","","","","Rate your confidence","1",""
"1177","e","choice","left","e","experimental","1538","1013558","0.0-4.0-8.172","true","173","2.949999999999999","","",""
"1832","1","confid","","","html-slider-response","1540","1015893","0.0-4.0-10.172-0.172","","","","Rate your confidence","1",""
"781","i","choice","right","i","experimental","1547","1018446","0.0-4.0-8.173","true","174","2.8499999999999988","","",""
"2644","2","confid","","","html-slider-response","1549","1021593","0.0-4.0-10.173-0.173","","","","Rate your confidence","1",""
"711","i","choice","left","e","experimental","1556","1024074","0.0-4.0-8.174","false","175","2.8499999999999988","","",""
"2150","4","confid","","","html-slider-response","1558","1026727","0.0-4.0-10.174-0.174","","","","Rate your confidence","1",""
"729","i","choice","right","i","experimental","1565","1029225","0.0-4.0-8.175","true","176","2.949999999999999","","",""
"1780","5","confid","","","html-slider-response","1567","1031511","0.0-4.0-10.175-0.175","","","","Rate your confidence","1",""
"809.9999999997672","i","choice","right","i","experimental","1574","1034091","0.0-4.0-8.176","true","177","2.949999999999999","","",""
"7716","3","confid","","","html-slider-response","1576","1042311","0.0-4.0-10.176-0.176","","","","Rate your confidence","1",""
"652","e","choice","left","e","experimental","1583","1044738","0.0-4.0-8.177","true","178","2.8499999999999988","","",""
"2054","5","confid","","","html-slider-response","1585","1047295","0.0-4.0-10.177-0.177","","","","Rate your confidence","1",""
"78.99999999976717","e","choice","left","e","experimental","1592","1049153","0.0-4.0-8.178","true","179","2.8499999999999988","","",""
"2870","5","confid","","","html-slider-response","1594","1052529","0.0-4.0-10.178-0.178","","","","Rate your confidence","1",""
"289","e","choice","right","i","experimental","1601","1054594","0.0-4.0-8.179","false","180","2.7499999999999987","","",""
"1729.0000000002328","5","confid","","","html-slider-response","1603","1056829","0.0-4.0-10.179-0.179","","","","Rate your confidence","1",""
"727.0000000002328","e","choice","right","i","experimental","1610","1059330","0.0-4.0-8.180","false","181","2.8499999999999988","","",""
"2378","5","confid","","","html-slider-response","1612","1062213","0.0-4.0-10.180-0.180","","","","Rate your confidence","1",""
"550","e","choice","left","e","experimental","1619","1064531","0.0-4.0-8.181","true","182","2.949999999999999","","",""
"2746","5","confid","","","html-slider-response","1621","1067781","0.0-4.0-10.181-0.181","","","","Rate your confidence","1",""
"598","e","choice","left","e","experimental","1628","1070152","0.0-4.0-8.182","true","183","2.949999999999999","","",""
"1806.9999999997672","5","confid","","","html-slider-response","1630","1072464","0.0-4.0-10.182-0.182","","","","Rate your confidence","1",""
"586","i","choice","right","i","experimental","1637","1074823","0.0-4.0-8.183","true","184","2.8499999999999988","","",""
"1688","4","confid","","","html-slider-response","1639","1077014","0.0-4.0-10.183-0.183","","","","Rate your confidence","1",""
"1000.9999999997672","e","choice","left","e","experimental","1646","1079784","0.0-4.0-8.184","true","185","2.8499999999999988","","",""
"2010","6","confid","","","html-slider-response","1648","1082298","0.0-4.0-10.184-0.184","","","","Rate your confidence","1",""
"490","i","choice","right","i","experimental","1655","1084560","0.0-4.0-8.185","true","186","2.7499999999999987","","",""
"1785.0000000002328","5","confid","","","html-slider-response","1657","1086849","0.0-4.0-10.185-0.185","","","","Rate your confidence","1",""
"800","e","choice","left","e","experimental","1664","1089420","0.0-4.0-8.186","true","187","2.7499999999999987","","",""
"1894","5","confid","","","html-slider-response","1666","1091817","0.0-4.0-10.186-0.186","","","","Rate your confidence","1",""
"646","i","choice","right","i","experimental","1673","1094232","0.0-4.0-8.187","true","188","2.6499999999999986","","",""
"3396","5","confid","","","html-slider-response","1675","1098133","0.0-4.0-10.187-0.187","","","","Rate your confidence","1",""
"989","i","choice","right","i","experimental","1682","1100896","0.0-4.0-8.188","true","189","2.6499999999999986","","",""
"3168","5","confid","","","html-slider-response","1684","1104570","0.0-4.0-10.188-0.188","","","","Rate your confidence","1",""
"542","e","choice","left","e","experimental","1691","1106887","0.0-4.0-8.189","true","190","2.5499999999999985","","",""
"2861","5","confid","","","html-slider-response","1693","1110250","0.0-4.0-10.189-0.189","","","","Rate your confidence","1",""
"4776.999999999767","e","choice","right","i","experimental","1700","1116800","0.0-4.0-8.190","false","191","2.5499999999999985","","",""
"3095","4","confid","","","html-slider-response","1702","1120402","0.0-4.0-10.190-0.190","","","","Rate your confidence","1",""
"6458","e","choice","left","e","experimental","1709","1128630","0.0-4.0-8.191","true","192","2.6499999999999986","","",""
"2967","1","confid","","","html-slider-response","1711","1132102","0.0-4.0-10.191-0.191","","","","Rate your confidence","1",""
"944","i","choice","right","i","experimental","1718","1134822","0.0-4.0-8.192","true","193","2.6499999999999986","","",""
"2262","6","confid","","","html-slider-response","1720","1137586","0.0-4.0-10.192-0.192","","","","Rate your confidence","1",""
"1345","e","choice","left","e","experimental","1727","1140699","0.0-4.0-8.193","true","194","2.5499999999999985","","",""
"1849","5","confid","","","html-slider-response","1729","1143053","0.0-4.0-10.193-0.193","","","","Rate your confidence","1","14251"
