"rt","response","task","target_side","correct_response","trial_type","trial_index","time_elapsed","internal_node_id","correct","trial_number","n_dots","stimulus","slider_start","participant"
"336.70000000001164","e","choice","left","e","practice","10","55336","0.0-4.0-8.0","true","1","4.25","","",""
"471.20000000001164","i","choice","right","i","practice","18","58104","0.0-4.0-8.1","true","2","4.25","","",""
"261.5","e","choice","left","e","practice","26","60657","0.0-4.0-8.2","true","3","3.85","","",""
"265.79999999998836","i","choice","right","i","practice","34","63210","0.0-4.0-8.3","true","4","3.85","","",""
"340.8999999999942","e","choice","left","e","practice","42","65825","0.0-4.0-8.4","true","5","3.45","","",""
"261.3999999999942","i","choice","right","i","practice","50","68381","0.0-4.0-8.5","true","6","3.45","","",""
"90.89999999999418","i","choice","right","i","practice","58","70764","0.0-4.0-8.6","true","7","3.25","","",""
"498.6000000000058","e","choice","left","e","practice","66","73557","0.0-4.0-8.7","true","8","3.25","","",""
"273.30000000004657","i","choice","right","i","practice","74","76103","0.0-4.0-8.8","true","9","3.05","","",""
"225.5","i","choice","left","e","practice","82","78623","0.0-4.0-8.9","false","10","3.05","","",""
"49.5","i","choice","left","e","practice","90","80959","0.0-4.0-8.10","false","11","3.25","","",""
"133.59999999997672","e","choice","right","i","practice","98","83367","0.0-4.0-8.11","false","12","3.35","","",""
"33.300000000046566","e","choice","left","e","practice","106","85691","0.0-4.0-8.12","true","13","3.45","","",""
"0.5999999999767169","i","choice","right","i","practice","114","87967","0.0-4.0-8.13","true","14","3.45","","",""
"286.9000000000233","e","choice","left","e","practice","122","90529","0.0-4.0-8.14","true","15","3.35","","",""
"95.90000000002328","i","choice","right","i","practice","130","92900","0.0-4.0-8.15","true","16","3.35","","",""
"315.80000000004657","e","choice","left","e","practice","138","95510","0.0-4.0-8.16","true","17","3.25","","",""
"297.9000000000233","i","choice","right","i","practice","146","98099","0.0-4.0-8.17","true","18","3.25","","",""
"287","e","choice","left","e","practice","154","100660","0.0-4.0-8.18","true","19","3.15","","",""
"454.5999999999767","i","choice","right","i","practice","162","103402","0.0-4.0-8.19","true","20","3.15","","",""
"495.5","i","choice","right","i","practice","170","106186","0.0-4.0-8.20","true","21","3.05","","",""
"134.20000000001164","e","choice","left","e","practice","178","108593","0.0-4.0-8.21","true","22","3.05","","",""
"337.0999999999767","i","choice","right","i","practice","186","111219","0.0-4.0-8.22","true","23","2.9499999999999997","","",""
"87.20000000001164","e","choice","left","e","practice","194","113598","0.0-4.0-8.23","true","24","2.9499999999999997","","",""
"283.20000000001164","e","choice","left","e","practice","202","116172","0.0-4.0-8.24","true","25","2.8499999999999996","","",""
"168.70000000001164","e","choice","right","i","practice","210","118631","0.0-4.0-8.25","false","26","2.8499999999999996","","",""
"360.70000000001164","e","choice","left","e","experimental","221","139418","0.0-4.0-8.26","true","27","2.9499999999999997","","",""
"2481.2000000000116","3","confid","","","html-slider-response","223","142421","0.0-4.0-10.26-0.26","","","","Rate your confidence","1",""
"1284.7999999999884","i","choice","right","i","experimental","230","145480","0.0-4.0-8.27","true","28","2.9499999999999997","","",""
"2188.7999999999884","4","confid","","","html-slider-response","232","148172","0.0-4.0-10.27-0.27","","","","Rate your confidence","1",""
"876.2000000000116","i","choice","right","i","experimental","239","150840","0.0-4.0-8.28","true","29","2.8499999999999996","","",""
"2428","4","confid","","","html-slider-response","241","153774","0.0-4.0-10.28-0.28","","","","Rate your confidence","1",""
"0.5","e","choice","left","e","experimental","248","155550","0.0-4.0-8.29","true","30","2.8499999999999996","","",""
"2134.7999999999884","4","confid","","","html-slider-response","250","158188","0.0-4.0-10.29-0.29","","","","Rate your confidence","1",""
"1034.7999999999884","i","choice","right","i","experimental","257","160997","0.0-4.0-8.30","true","31","2.7499999999999996","","",""
"1824.5","4","confid","","","html-slider-response","259","163325","0.0-4.0-10.30-0.30","","","","Rate your confidence","1",""
"345.70000000001164","e","choice","left","e","experimental","266","165446","0.0-4.0-8.31","true","32","2.7499999999999996","","",""
"2327","5","confid","","","html-slider-response","268","168277","0.0-4.0-10.31-0.31","","","","Rate your confidence","1",""
"339.5999999999767","e","choice","left","e","experimental","275","170390","0.0-4.0-8.32","true","33","2.6499999999999995","","",""
"2910.5","5","confid","","","html-slider-response","277","173804","0.0-4.0-10.32-0.32","","","","Rate your confidence","1",""
"506.9000000000233","e","choice","right","i","experimental","284","176103","0.0-4.0-8.33","false","34","2.6499999999999995","","",""
"1630.100000000035","4","confid","","","html-slider-response","286","178236","0.0-4.0-10.33-0.33","","","","Rate your confidence","1",""
"1074.2000000000116","e","choice","left","e","experimental","293","181084","0.0-4.0-8.34","true","35","2.7499999999999996","","",""
"4840.599999999977","3","confid","","","html-slider-response","295","186429","0.0-4.0-10.34-0.34","","","","Rate your confidence","1",""
"395.1000000000349","e","choice","right","i","experimental","302","188600","0.0-4.0-8.35","false","36","2.7499999999999996","","",""
"1501.2000000000116","3","confid","","","html-slider-response","304","190605","0.0-4.0-10.35-0.35","","","","Rate your confidence","1",""
"781.2000000000116","i","choice","left","e","experimental","311","193163","0.0-4.0-8.36","false","37","2.8499999999999996","","",""
"2360.7999999999884","3","confid","","","html-slider-response","313","196028","0.0-4.0-10.36-0.36","","","","Rate your confidence","1",""
"412.6000000000349","e","choice","right","i","experimental","320","198233","0.0-4.0-8.37","false","38","2.9499999999999997","","",""
"2291.2999999999884","3","confid","","","html-slider-response","322","201029","0.0-4.0-10.37-0.37","","","","Rate your confidence","1",""
"530.7999999999884","i","choice","right","i","experimental","329","203334","0.0-4.0-8.38","true","39","3.05","","",""
"1685.899999999965","4","confid","","","html-slider-response","331","205524","0.0-4.0-10.38-0.38","","","","Rate your confidence","1",""
"414.20000000001164","e","choice","left","e","experimental","338","207731","0.0-4.0-8.39","true","40","3.05","","",""
"1825.7999999999884","4","confid","","","html-slider-response","340","210061","0.0-4.0-10.39-0.39","","","","Rate your confidence","1",""
"639","i","choice","right","i","experimental","347","212473","0.0-4.0-8.40","true","41","2.9499999999999997","","",""
"1484.399999999965","4","confid","","","html-slider-response","349","214461","0.0-4.0-10.40-0.40","","","","Rate your confidence","1",""
"236.79999999998836","e","choice","left","e","experimental","356","216473","0.0-4.0-8.41","true","42","2.9499999999999997","","",""
"1499.4000000000233","4","confid","","","html-slider-response","358","218476","0.0-4.0-10.41-0.41","","","","Rate your confidence","1",""
"380.80000000004657","e","choice","left","e","experimental","365","220631","0.0-4.0-8.42","true","43","2.8499999999999996","","",""
"2052.9000000000233","4","confid","","","html-slider-response","367","223188","0.0-4.0-10.42-0.42","","","","Rate your confidence","1",""
"541.5999999999767","i","choice","right","i","experimental","374","225523","0.0-4.0-8.43","true","44","2.8499999999999996","","",""
"1601.1999999999534","4","confid","","","html-slider-response","376","227628","0.0-4.0-10.43-0.43","","","","Rate your confidence","1",""
"762.3000000000466","i","choice","right","i","experimental","383","230167","0.0-4.0-8.44","true","45","2.7499999999999996","","",""
"1821.2999999999884","4","confid","","","html-slider-response","385","232492","0.0-4.0-10.44-0.44","","","","Rate your confidence","1",""
"635.0999999999767","i","choice","left","e","experimental","392","234902","0.0-4.0-8.45","false","46","2.7499999999999996","","",""
"1558.600000000035","4","confid","","","html-slider-response","394","236964","0.0-4.0-10.45-0.45","","","","Rate your confidence","1",""
"239.30000000004657","e","choice","right","i","experimental","401","238979","0.0-4.0-8.46","false","47","2.8499999999999996","","",""
"1434.100000000035","3","confid","","","html-slider-response","403","240917","0.0-4.0-10.46-0.46","","","","Rate your confidence","1",""
"750","e","choice","left","e","experimental","410","243461","0.0-4.0-8.47","true","48","2.9499999999999997","","",""
"1527.5999999999767","3","confid","","","html-slider-response","412","245493","0.0-4.0-10.47-0.47","","","","Rate your confidence","1",""
"1053.7000000000116","i","choice","left","e","experimental","419","248337","0.0-4.0-8.48","false","49","2.9499999999999997","","",""
"2292.100000000035","3","confid","","","html-slider-response","421","251133","0.0-4.0-10.48-0.48","","","","Rate your confidence","1",""
"793.5","i","choice","right","i","experimental","428","253717","0.0-4.0-8.49","true","50","3.05","","",""
"2048","3","confid","","","html-slider-response","430","256269","0.0-4.0-10.49-0.49","","","","Rate your confidence","1",""
"352","e","choice","left","e","experimental","437","258396","0.0-4.0-8.50","true","51","3.05","","",""
"2343.100000000035","3","confid","","","html-slider-response","439","261244","0.0-4.0-10.50-0.50","","","","Rate your confidence","1",""
"694.7999999999884","i","choice","right","i","experimental","446","263714","0.0-4.0-8.51","true","52","2.9499999999999997","","",""
"1626.0999999999767","4","confid","","","html-slider-response","448","265844","0.0-4.0-10.51-0.51","","","","Rate your confidence","1",""
"661.1999999999534","i","choice","right","i","experimental","455","268281","0.0-4.0-8.52","true","53","2.9499999999999997","","",""
"1564","4","confid","","","html-slider-response","457","270349","0.0-4.0-10.52-0.52","","","","Rate your confidence","1",""
"329.8999999999651","e","choice","left","e","experimental","464","272455","0.0-4.0-8.53","true","54","2.8499999999999996","","",""
"1877.5","3","confid","","","html-slider-response","466","274836","0.0-4.0-10.53-0.53","","","","Rate your confidence","1",""
"681.7000000000116","i","choice","left","e","experimental","473","277308","0.0-4.0-8.54","false","55","2.8499999999999996","","",""
"1752","4","confid","","","html-slider-response","475","279564","0.0-4.0-10.54-0.54","","","","Rate your confidence","1",""
"491.3999999999651","e","choice","right","i","experimental","482","281847","0.0-4.0-8.55","false","56","2.9499999999999997","","",""
"1773","3","confid","","","html-slider-response","484","284124","0.0-4.0-10.55-0.55","","","","Rate your confidence","1",""
"453.9000000000233","e","choice","left","e","experimental","491","286353","0.0-4.0-8.56","true","57","3.05","","",""
"1772","4","confid","","","html-slider-response","493","288629","0.0-4.0-10.56-0.56","","","","Rate your confidence","1",""
"638.7000000000116","i","choice","right","i","experimental","500","291042","0.0-4.0-8.57","true","58","3.05","","",""
"1746.2000000000116","4","confid","","","html-slider-response","502","293292","0.0-4.0-10.57-0.57","","","","Rate your confidence","1",""
"295.70000000001164","e","choice","left","e","experimental","509","295379","0.0-4.0-8.58","true","59","2.9499999999999997","","",""
"1865.7000000000116","3","confid","","","html-slider-response","511","297748","0.0-4.0-10.58-0.58","","","","Rate your confidence","1",""
"1091.5","e","choice","right","i","experimental","518","300621","0.0-4.0-8.59","false","60","2.9499999999999997","","",""
"2591","3","confid","","","html-slider-response","520","303716","0.0-4.0-10.59-0.59","","","","Rate your confidence","1",""
"643","i","choice","right","i","experimental","527","306153","0.0-4.0-8.60","true","61","3.05","","",""
"1268","4","confid","","","html-slider-response","529","307924","0.0-4.0-10.60-0.60","","","","Rate your confidence","1",""
"492.9000000000233","e","choice","left","e","experimental","536","310210","0.0-4.0-8.61","true","62","3.05","","",""
"1362.7999999999884","4","confid","","","html-slider-response","538","312076","0.0-4.0-10.61-0.61","","","","Rate your confidence","1",""
"672.5","i","choice","right","i","experimental","545","314526","0.0-4.0-8.62","true","63","2.9499999999999997","","",""
"1604.600000000035","4","confid","","","html-slider-response","547","316652","0.0-4.0-10.62-0.62","","","","Rate your confidence","1",""
"492.5","e","choice","left","e","experimental","554","318918","0.0-4.0-8.63","true","64","2.9499999999999997","","",""
"2007","3","confid","","","html-slider-response","556","321428","0.0-4.0-10.63-0.63","","","","Rate your confidence","1",""
"1052.2000000000116","i","choice","right","i","experimental","563","324273","0.0-4.0-8.64","true","65","2.8499999999999996","","",""
"2987.100000000035","4","confid","","","html-slider-response","565","327764","0.0-4.0-10.64-0.64","","","","Rate your confidence","1",""
"276.8999999999651","e","choice","left","e","experimental","572","329822","0.0-4.0-8.65","true","66","2.8499999999999996","","",""
"2302.7999999999884","4","confid","","","html-slider-response","574","332629","0.0-4.0-10.65-0.65","","","","Rate your confidence","1",""
"714.5999999999767","i","choice","right","i","experimental","581","335133","0.0-4.0-8.66","true","67","2.7499999999999996","","",""
"2319.7000000000116","4","confid","","","html-slider-response","583","337956","0.0-4.0-10.66-0.66","","","","Rate your confidence","1",""
"627.0999999999767","i","choice","left","e","experimental","590","340359","0.0-4.0-8.67","false","68","2.7499999999999996","","",""
"2653.5","4","confid","","","html-slider-response","592","343517","0.0-4.0-10.67-0.67","","","","Rate your confidence","1",""
"355.69999999995343","i","choice","left","e","experimental","600","403529","0.0-4.0-8.68","false","69","2.8499999999999996","","",""
"2667","3","confid","","","html-slider-response","602","406700","0.0-4.0-10.68-0.68","","","","Rate your confidence","1",""
"1109.2999999999302","e","choice","right","i","experimental","609","409585","0.0-4.0-8.69","false","70","2.9499999999999997","","",""
"2267.4000000000233","3","confid","","","html-slider-response","611","412357","0.0-4.0-10.69-0.69","","","","Rate your confidence","1",""
"454.9000000000233","i","choice","left","e","experimental","618","414605","0.0-4.0-8.70","false","71","3.05","","",""
"1775.5","3","confid","","","html-slider-response","620","416885","0.0-4.0-10.70-0.70","","","","Rate your confidence","1",""
"297.5","i","choice","right","i","experimental","627","418957","0.0-4.0-8.71","true","72","3.15","","",""
"1440","4","confid","","","html-slider-response","629","420900","0.0-4.0-10.71-0.71","","","","Rate your confidence","1",""
"894.5","e","choice","right","i","experimental","636","423569","0.0-4.0-8.72","false","73","3.15","","",""
"1121.4000000000233","4","confid","","","html-slider-response","638","425213","0.0-4.0-10.72-0.72","","","","Rate your confidence","1",""
"415.4000000000233","e","choice","left","e","experimental","645","427403","0.0-4.0-8.73","true","74","3.25","","",""
"1825.7000000000698","4","confid","","","html-slider-response","647","429732","0.0-4.0-10.73-0.73","","","","Rate your confidence","1",""
"125.19999999995343","e","choice","right","i","experimental","654","431632","0.0-4.0-8.74","false","75","3.25","","",""
"1316.5","4","confid","","","html-slider-response","656","433453","0.0-4.0-10.74-0.74","","","","Rate your confidence","1",""
"591.8000000000466","i","choice","left","e","experimental","663","435840","0.0-4.0-8.75","false","76","3.35","","",""
"1572.5","4","confid","","","html-slider-response","665","437917","0.0-4.0-10.75-0.75","","","","Rate your confidence","1",""
"288.70000000006985","e","choice","left","e","experimental","672","439996","0.0-4.0-8.76","true","77","3.45","","",""
"1375.8999999999069","3","confid","","","html-slider-response","674","441877","0.0-4.0-10.76-0.76","","","","Rate your confidence","1",""
"837.9000000000233","i","choice","right","i","experimental","681","444507","0.0-4.0-8.77","true","78","3.45","","",""
"1512.4000000000233","4","confid","","","html-slider-response","683","446524","0.0-4.0-10.77-0.77","","","","Rate your confidence","1",""
"729.8000000000466","i","choice","right","i","experimental","690","449029","0.0-4.0-8.78","true","79","3.35","","",""
"1606.9000000000233","4","confid","","","html-slider-response","692","451140","0.0-4.0-10.78-0.78","","","","Rate your confidence","1",""
"409.19999999995343","e","choice","left","e","experimental","699","453324","0.0-4.0-8.79","true","80","3.35","","",""
"1863.9000000000233","4","confid","","","html-slider-response","701","455693","0.0-4.0-10.79-0.79","","","","Rate your confidence","1",""
"405.9000000000233","e","choice","right","i","experimental","708","457891","0.0-4.0-8.80","false","81","3.25","","",""
"1681.2999999999302","4","confid","","","html-slider-response","710","460076","0.0-4.0-10.80-0.80","","","","Rate your confidence","1",""
"830.2999999999302","i","choice","left","e","experimental","717","462700","0.0-4.0-8.81","false","82","3.35","","",""
"1776.0999999999767","4","confid","","","html-slider-response","719","464981","0.0-4.0-10.81-0.81","","","","Rate your confidence","1",""
"357.0999999999767","i","choice","right","i","experimental","726","467118","0.0-4.0-8.82","true","83","3.45","","",""
"1613.1999999999534","4","confid","","","html-slider-response","728","469252","0.0-4.0-10.82-0.82","","","","Rate your confidence","1",""
"345.5","e","choice","left","e","experimental","735","471372","0.0-4.0-8.83","true","84","3.45","","",""
"1815.3000000000466","5","confid","","","html-slider-response","737","473692","0.0-4.0-10.83-0.83","","","","Rate your confidence","1",""
"936.4000000000233","i","choice","right","i","experimental","744","476421","0.0-4.0-8.84","true","85","3.35","","",""
"1743.7000000000698","4","confid","","","html-slider-response","746","478668","0.0-4.0-10.84-0.84","","","","Rate your confidence","1",""
"70.09999999997672","e","choice","left","e","experimental","753","480534","0.0-4.0-8.85","true","86","3.35","","",""
"1534.6000000000931","5","confid","","","html-slider-response","755","482572","0.0-4.0-10.85-0.85","","","","Rate your confidence","1",""
"484.80000000004657","i","choice","right","i","experimental","762","484832","0.0-4.0-8.86","true","87","3.25","","",""
"1460.7000000000698","5","confid","","","html-slider-response","764","486796","0.0-4.0-10.86-0.86","","","","Rate your confidence","1",""
"319.0999999999767","e","choice","left","e","experimental","771","488892","0.0-4.0-8.87","true","88","3.25","","",""
"1999.2999999999302","4","confid","","","html-slider-response","773","491396","0.0-4.0-10.87-0.87","","","","Rate your confidence","1",""
"131","e","choice","left","e","experimental","780","493302","0.0-4.0-8.88","true","89","3.15","","",""
"1830.2999999999302","4","confid","","","html-slider-response","782","495636","0.0-4.0-10.88-0.88","","","","Rate your confidence","1",""
"542.2000000000698","i","choice","right","i","experimental","789","497952","0.0-4.0-8.89","true","90","3.15","","",""
"1572.3000000000466","4","confid","","","html-slider-response","791","500028","0.0-4.0-10.89-0.89","","","","Rate your confidence","1",""
"471.0999999999767","i","choice","right","i","experimental","798","502273","0.0-4.0-8.90","true","91","3.05","","",""
"1418.7000000000698","4","confid","","","html-slider-response","800","504196","0.0-4.0-10.90-0.90","","","","Rate your confidence","1",""
"750.8000000000466","i","choice","left","e","experimental","807","506740","0.0-4.0-8.91","false","92","3.05","","",""
"1344.6999999999534","3","confid","","","html-slider-response","809","508589","0.0-4.0-10.91-0.91","","","","Rate your confidence","1",""
"755.6000000000931","i","choice","right","i","experimental","816","511119","0.0-4.0-8.92","true","93","3.15","","",""
"1188.3999999998487","4","confid","","","html-slider-response","818","512812","0.0-4.0-10.92-0.92","","","","Rate your confidence","1",""
"590.7999999998137","e","choice","left","e","experimental","825","515177","0.0-4.0-8.93","true","94","3.15","","",""
"2435.6999999999534","4","confid","","","html-slider-response","827","518116","0.0-4.0-10.93-0.93","","","","Rate your confidence","1",""
"205.30000000004657","e","choice","right","i","experimental","834","520096","0.0-4.0-8.94","false","95","3.05","","",""
"1892.3000000000466","4","confid","","","html-slider-response","836","522492","0.0-4.0-10.94-0.94","","","","Rate your confidence","1",""
"330.19999999995343","e","choice","left","e","experimental","843","524609","0.0-4.0-8.95","true","96","3.15","","",""
"1242.6999999999534","4","confid","","","html-slider-response","845","526356","0.0-4.0-10.95-0.95","","","","Rate your confidence","1",""
"259.30000000004657","e","choice","left","e","experimental","852","528408","0.0-4.0-8.96","true","97","3.15","","",""
"1684.8000000000466","4","confid","","","html-slider-response","854","530597","0.0-4.0-10.96-0.96","","","","Rate your confidence","1",""
"587.3000000000466","i","choice","right","i","experimental","861","532978","0.0-4.0-8.97","true","98","3.05","","",""
"1890.1000000000931","4","confid","","","html-slider-response","863","535372","0.0-4.0-10.97-0.97","","","","Rate your confidence","1",""
"380.80000000004657","e","choice","left","e","experimental","870","537538","0.0-4.0-8.98","true","99","3.05","","",""
"2826.1999999999534","5","confid","","","html-slider-response","872","540868","0.0-4.0-10.98-0.98","","","","Rate your confidence","1",""
"388.30000000004657","i","choice","right","i","experimental","879","543029","0.0-4.0-8.99","true","100","2.9499999999999997","","",""
"2070.899999999907","4","confid","","","html-slider-response","881","545604","0.0-4.0-10.99-0.99","","","","Rate your confidence","1",""
"192","e","choice","left","e","experimental","888","547570","0.0-4.0-8.100","true","101","2.9499999999999997","","",""
"1809.8000000000466","4","confid","","","html-slider-response","890","549884","0.0-4.0-10.100-0.100","","","","Rate your confidence","1",""
"434.60000000009313","i","choice","right","i","experimental","897","552110","0.0-4.0-8.101","true","102","2.8499999999999996","","",""
"2446.5","4","confid","","","html-slider-response","899","555060","0.0-4.0-10.101-0.101","","","","Rate your confidence","1",""
"298.30000000004657","e","choice","left","e","experimental","906","557162","0.0-4.0-8.102","true","103","2.8499999999999996","","",""
"1826.3000000000466","4","confid","","","html-slider-response","908","559492","0.0-4.0-10.102-0.102","","","","Rate your confidence","1",""
"302.89999999990687","i","choice","right","i","experimental","915","561570","0.0-4.0-8.103","true","104","2.7499999999999996","","",""
"1458.5","4","confid","","","html-slider-response","917","563532","0.0-4.0-10.103-0.103","","","","Rate your confidence","1",""
"300.10000000009313","e","choice","right","i","experimental","924","565607","0.0-4.0-8.104","false","105","2.7499999999999996","","",""
"1909.1999999999534","4","confid","","","html-slider-response","926","568020","0.0-4.0-10.104-0.104","","","","Rate your confidence","1",""
"892.1999999999534","e","choice","left","e","experimental","933","570683","0.0-4.0-8.105","true","106","2.8499999999999996","","",""
"3169.1999999999534","3","confid","","","html-slider-response","935","574356","0.0-4.0-10.105-0.105","","","","Rate your confidence","1",""
"1816","e","choice","right","i","experimental","942","577962","0.0-4.0-8.106","false","107","2.8499999999999996","","",""
"3528.5","3","confid","","","html-slider-response","944","581996","0.0-4.0-10.106-0.106","","","","Rate your confidence","1",""
"1657.1999999999534","e","choice","left","e","experimental","951","585427","0.0-4.0-8.107","true","108","2.9499999999999997","","",""
"2408.0999999998603","4","confid","","","html-slider-response","953","588339","0.0-4.0-10.107-0.107","","","","Rate your confidence","1",""
"444.60000000009313","i","choice","right","i","experimental","960","590572","0.0-4.0-8.108","true","109","2.9499999999999997","","",""
"1512.6000000000931","3","confid","","","html-slider-response","962","592588","0.0-4.0-10.108-0.108","","","","Rate your confidence","1",""
"1145.5","e","choice","left","e","experimental","969","595510","0.0-4.0-8.109","true","110","2.8499999999999996","","",""
"1654.3000000000466","3","confid","","","html-slider-response","971","597668","0.0-4.0-10.109-0.109","","","","Rate your confidence","1",""
"479.10000000009313","i","choice","right","i","experimental","979","603207","0.0-4.0-8.110","true","111","2.8499999999999996","","",""
"1709.5","4","confid","","","html-slider-response","981","605421","0.0-4.0-10.110-0.110","","","","Rate your confidence","1",""
"442.5999999998603","e","choice","left","e","experimental","988","607640","0.0-4.0-8.111","true","112","2.7499999999999996","","",""
"4196.699999999953","4","confid","","","html-slider-response","990","612341","0.0-4.0-10.111-0.111","","","","Rate your confidence","1",""
"741.1999999999534","i","choice","right","i","experimental","997","614877","0.0-4.0-8.112","true","113","2.7499999999999996","","",""
"2719.1999999999534","4","confid","","","html-slider-response","999","618101","0.0-4.0-10.112-0.112","","","","Rate your confidence","1",""
"301.39999999990687","e","choice","left","e","experimental","1006","620197","0.0-4.0-8.113","true","114","2.6499999999999995","","",""
"1583.1000000000931","4","confid","","","html-slider-response","1008","622284","0.0-4.0-10.113-0.113","","","","Rate your confidence","1",""
"579.6999999999534","i","choice","left","e","experimental","1015","624640","0.0-4.0-8.114","false","115","2.6499999999999995","","",""
"1299.7000000001863","4","confid","","","html-slider-response","1017","626444","0.0-4.0-10.114-0.114","","","","Rate your confidence","1",""
"34.89999999990687","e","choice","right","i","experimental","1024","628255","0.0-4.0-8.115","false","116","2.7499999999999996","","",""
"1397.1000000000931","3","confid","","","html-slider-response","1026","630156","0.0-4.0-10.115-0.115","","","","Rate your confidence","1",""
"527.6000000000931","e","choice","left","e","experimental","1033","632460","0.0-4.0-8.116","true","117","2.8499999999999996","","",""
"2927.5","3","confid","","","html-slider-response","1035","635892","0.0-4.0-10.116-0.116","","","","Rate your confidence","1",""
"600.5999999998603","i","choice","right","i","experimental","1042","638283","0.0-4.0-8.117","true","118","2.8499999999999996","","",""
"1672.6999999999534","4","confid","","","html-slider-response","1044","640461","0.0-4.0-10.117-0.117","","","","Rate your confidence","1",""
"955","e","choice","left","e","experimental","1051","643215","0.0-4.0-8.118","true","119","2.7499999999999996","","",""
"2085.600000000093","4","confid","","","html-slider-response","1053","645804","0.0-4.0-10.118-0.118","","","","Rate your confidence","1",""
"785.3000000000466","i","choice","right","i","experimental","1060","648385","0.0-4.0-8.119","true","120","2.7499999999999996","","",""
"2658.899999999907","4","confid","","","html-slider-response","1062","651548","0.0-4.0-10.119-0.119","","","","Rate your confidence","1",""
"881.2999999998137","e","choice","left","e","experimental","1069","654205","0.0-4.0-8.120","true","121","2.6499999999999995","","",""
"2463.2000000001863","4","confid","","","html-slider-response","1071","657172","0.0-4.0-10.120-0.120","","","","Rate your confidence","1",""
"768.6999999999534","e","choice","right","i","experimental","1078","659717","0.0-4.0-8.121","false","122","2.6499999999999995","","",""
"2582.600000000093","4","confid","","","html-slider-response","1080","662805","0.0-4.0-10.121-0.121","","","","Rate your confidence","1",""
"1293.1999999999534","i","choice","right","i","experimental","1087","665890","0.0-4.0-8.122","true","123","2.7499999999999996","","",""
"2497.9000000001397","4","confid","","","html-slider-response","1089","668893","0.0-4.0-10.122-0.122","","","","Rate your confidence","1",""
"848.8999999999069","e","choice","left","e","experimental","1096","671518","0.0-4.0-8.123","true","124","2.7499999999999996","","",""
"2533.0999999998603","4","confid","","","html-slider-response","1098","674556","0.0-4.0-10.123-0.123","","","","Rate your confidence","1",""
"1060","e","choice","left","e","experimental","1105","677392","0.0-4.0-8.124","true","125","2.6499999999999995","","",""
"2861.2999999998137","4","confid","","","html-slider-response","1107","680773","0.0-4.0-10.124-0.124","","","","Rate your confidence","1",""
"791.6000000000931","e","choice","right","i","experimental","1114","683341","0.0-4.0-8.125","false","126","2.6499999999999995","","",""
"1847.9000000001397","3","confid","","","html-slider-response","1116","685693","0.0-4.0-10.125-0.125","","","","Rate your confidence","1",""
"935.0999999998603","i","choice","left","e","experimental","1123","688405","0.0-4.0-8.126","false","127","2.7499999999999996","","",""
"1887","4","confid","","","html-slider-response","1125","690797","0.0-4.0-10.126-0.126","","","","Rate your confidence","1",""
"931.6999999999534","i","choice","right","i","experimental","1132","693506","0.0-4.0-8.127","true","128","2.8499999999999996","","",""
"2202.6999999999534","4","confid","","","html-slider-response","1134","696212","0.0-4.0-10.127-0.127","","","","Rate your confidence","1",""
"1058.2999999998137","e","choice","left","e","experimental","1141","699069","0.0-4.0-8.128","true","129","2.8499999999999996","","",""
"6197.799999999814","3","confid","","","html-slider-response","1143","705773","0.0-4.0-10.128-0.128","","","","Rate your confidence","1",""
"655.1999999999534","i","choice","right","i","experimental","1150","708207","0.0-4.0-8.129","true","130","2.7499999999999996","","",""
"1948.0999999998603","4","confid","","","html-slider-response","1152","710660","0.0-4.0-10.129-0.129","","","","Rate your confidence","1",""
"910.8000000000466","e","choice","left","e","experimental","1159","713352","0.0-4.0-8.130","true","131","2.7499999999999996","","",""
"3011.6999999999534","3","confid","","","html-slider-response","1161","716868","0.0-4.0-10.130-0.130","","","","Rate your confidence","1",""
"874.6000000000931","i","choice","right","i","experimental","1168","719556","0.0-4.0-8.131","true","132","2.6499999999999995","","",""
"1551.8999999999069","3","confid","","","html-slider-response","1170","721612","0.0-4.0-10.131-0.131","","","","Rate your confidence","1",""
"259.80000000004657","i","choice","right","i","experimental","1177","723649","0.0-4.0-8.132","true","133","2.6499999999999995","","",""
"1739.4000000001397","3","confid","","","html-slider-response","1179","725892","0.0-4.0-10.132-0.132","","","","Rate your confidence","1",""
"979.6000000000931","e","choice","left","e","experimental","1186","728651","0.0-4.0-8.133","true","134","2.5499999999999994","","",""
"1993","3","confid","","","html-slider-response","1188","731149","0.0-4.0-10.133-0.133","","","","Rate your confidence","1",""
"754.6000000000931","e","choice","left","e","experimental","1195","733680","0.0-4.0-8.134","true","135","2.5499999999999994","","",""
"2195.8000000000466","3","confid","","","html-slider-response","1197","736381","0.0-4.0-10.134-0.134","","","","Rate your confidence","1",""
"534.5999999998603","i","choice","right","i","experimental","1204","738691","0.0-4.0-8.135","true","136","2.4499999999999993","","",""
"1527.0999999998603","3","confid","","","html-slider-response","1206","740724","0.0-4.0-10.135-0.135","","","","Rate your confidence","1",""
"258","e","choice","right","i","experimental","1213","742759","0.0-4.0-8.136","false","137","2.4499999999999993","","",""
"1597.5","3","confid","","","html-slider-response","1215","744861","0.0-4.0-10.136-0.136","","","","Rate your confidence","1",""
"149.5999999998603","e","choice","left","e","experimental","1222","746786","0.0-4.0-8.137","true","138","2.5499999999999994","","",""
"1201.7999999998137","3","confid","","","html-slider-response","1224","748492","0.0-4.0-10.137-0.137","","","","Rate your confidence","1",""
"302.20000000018626","e","choice","right","i","experimental","1231","750590","0.0-4.0-8.138","false","139","2.5499999999999994","","",""
"2214","3","confid","","","html-slider-response","1233","753308","0.0-4.0-10.138-0.138","","","","Rate your confidence","1",""
"390.4000000001397","e","choice","left","e","experimental","1240","755476","0.0-4.0-8.139","true","140","2.6499999999999995","","",""
"1959.8000000000466","2","confid","","","html-slider-response","1242","757941","0.0-4.0-10.139-0.139","","","","Rate your confidence","1",""
"74.9000000001397","e","choice","left","e","experimental","1249","759791","0.0-4.0-8.140","true","141","2.6499999999999995","","",""
"1677.3000000000466","4","confid","","","html-slider-response","1251","761973","0.0-4.0-10.140-0.140","","","","Rate your confidence","1",""
"715","i","choice","right","i","experimental","1258","764464","0.0-4.0-8.141","true","142","2.5499999999999994","","",""
"1756.1000000000931","4","confid","","","html-slider-response","1260","766724","0.0-4.0-10.141-0.141","","","","Rate your confidence","1",""
"396.69999999995343","e","choice","left","e","experimental","1267","768897","0.0-4.0-8.142","true","143","2.5499999999999994","","",""
"4163","4","confid","","","html-slider-response","1269","773565","0.0-4.0-10.142-0.142","","","","Rate your confidence","1",""
"521.3000000000466","i","choice","right","i","experimental","1276","775883","0.0-4.0-8.143","true","144","2.4499999999999993","","",""
"1609.3000000000466","4","confid","","","html-slider-response","1278","777996","0.0-4.0-10.143-0.143","","","","Rate your confidence","1",""
"1289.8999999999069","e","choice","left","e","experimental","1285","781062","0.0-4.0-8.144","true","145","2.4499999999999993","","",""
"2110.899999999907","3","confid","","","html-slider-response","1287","783676","0.0-4.0-10.144-0.144","","","","Rate your confidence","1",""
"973.6999999999534","i","choice","right","i","experimental","1294","786425","0.0-4.0-8.145","true","146","2.349999999999999","","",""
"4034","4","confid","","","html-slider-response","1296","790964","0.0-4.0-10.145-0.145","","","","Rate your confidence","1",""
"962.9000000001397","e","choice","left","e","experimental","1303","793702","0.0-4.0-8.146","true","147","2.349999999999999","","",""
"2861.8000000000466","5","confid","","","html-slider-response","1305","797069","0.0-4.0-10.146-0.146","","","","Rate your confidence","1",""
"1047","i","choice","right","i","experimental","1312","799894","0.0-4.0-8.147","true","148","2.249999999999999","","",""
"1908.8000000000466","4","confid","","","html-slider-response","1314","802308","0.0-4.0-10.147-0.147","","","","Rate your confidence","1",""
"1263.3000000000466","e","choice","left","e","experimental","1321","805365","0.0-4.0-8.148","true","149","2.249999999999999","","",""
"2551.600000000093","4","confid","","","html-slider-response","1323","808421","0.0-4.0-10.148-0.148","","","","Rate your confidence","1",""
"1041.6999999999534","i","choice","right","i","experimental","1330","811239","0.0-4.0-8.149","true","150","2.149999999999999","","",""
"3068.2999999998137","4","confid","","","html-slider-response","1332","814812","0.0-4.0-10.149-0.149","","","","Rate your confidence","1",""
"1063.6000000000931","e","choice","right","i","experimental","1339","817654","0.0-4.0-8.150","false","151","2.149999999999999","","",""
"1582.6000000000931","4","confid","","","html-slider-response","1341","819741","0.0-4.0-10.150-0.150","","","","Rate your confidence","1",""
"936.1999999999534","i","choice","left","e","experimental","1348","822453","0.0-4.0-8.151","false","152","2.249999999999999","","",""
"2763.6999999999534","4","confid","","","html-slider-response","1350","825741","0.0-4.0-10.151-0.151","","","","Rate your confidence","1",""
"911","e","choice","right","i","experimental","1358","830694","0.0-4.0-8.152","false","153","2.349999999999999","","",""
"1846.8999999999069","3","confid","","","html-slider-response","1360","833045","0.0-4.0-10.152-0.152","","","","Rate your confidence","1",""
"789.3000000000466","i","choice","left","e","experimental","1367","835628","0.0-4.0-8.153","false","154","2.4499999999999993","","",""
"2111.0999999998603","3","confid","","","html-slider-response","1369","838244","0.0-4.0-10.153-0.153","","","","Rate your confidence","1",""
"1560.1999999999534","i","choice","right","i","experimental","1376","841581","0.0-4.0-8.154","true","155","2.5499999999999994","","",""
"1758.9000000001397","3","confid","","","html-slider-response","1378","843845","0.0-4.0-10.154-0.154","","","","Rate your confidence","1",""
"551.3000000000466","i","choice","left","e","experimental","1385","846194","0.0-4.0-8.155","false","156","2.5499999999999994","","",""
"1608.3000000000466","3","confid","","","html-slider-response","1387","848308","0.0-4.0-10.155-0.155","","","","Rate your confidence","1",""
"448.19999999995343","e","choice","left","e","experimental","1394","850532","0.0-4.0-8.156","true","157","2.6499999999999995","","",""
"1951.8999999999069","4","confid","","","html-slider-response","1396","852988","0.0-4.0-10.156-0.156","","","","Rate your confidence","1",""
"493.69999999995343","i","choice","right","i","experimental","1403","855259","0.0-4.0-8.157","true","158","2.6499999999999995","","",""
"1976.5","4","confid","","","html-slider-response","1405","857740","0.0-4.0-10.157-0.157","","","","Rate your confidence","1",""
"217.69999999995343","e","choice","right","i","experimental","1412","859736","0.0-4.0-8.158","false","159","2.5499999999999994","","",""
"1475","4","confid","","","html-slider-response","1414","861717","0.0-4.0-10.158-0.158","","","","Rate your confidence","1",""
"4.900000000139698","e","choice","left","e","experimental","1421","863497","0.0-4.0-8.159","true","160","2.6499999999999995","","",""
"1307","4","confid","","","html-slider-response","1423","865309","0.0-4.0-10.159-0.159","","","","Rate your confidence","1",""
"112.79999999981374","e","choice","right","i","experimental","1430","867220","0.0-4.0-8.160","false","161","2.6499999999999995","","",""
"1351.3000000000466","4","confid","","","html-slider-response","1432","869077","0.0-4.0-10.160-0.160","","","","Rate your confidence","1",""
"586.8000000000466","e","choice","left","e","experimental","1439","871465","0.0-4.0-8.161","true","162","2.7499999999999996","","",""
"2754.399999999907","3","confid","","","html-slider-response","1441","874724","0.0-4.0-10.161-0.161","","","","Rate your confidence","1",""
"741.4000000001397","i","choice","right","i","experimental","1448","877245","0.0-4.0-8.162","true","163","2.7499999999999996","","",""
"2246.6999999999534","4","confid","","","html-slider-response","1450","879997","0.0-4.0-10.162-0.162","","","","Rate your confidence","1",""
"653.1000000000931","i","choice","left","e","experimental","1457","882427","0.0-4.0-8.163","false","164","2.6499999999999995","","",""
"1592.6999999999534","4","confid","","","html-slider-response","1459","884524","0.0-4.0-10.163-0.163","","","","Rate your confidence","1",""
"855.6999999999534","e","choice","left","e","experimental","1466","887157","0.0-4.0-8.164","true","165","2.7499999999999996","","",""
"2094.100000000093","3","confid","","","html-slider-response","1468","889756","0.0-4.0-10.164-0.164","","","","Rate your confidence","1",""
"422.80000000004657","i","choice","right","i","experimental","1475","891980","0.0-4.0-8.165","true","166","2.7499999999999996","","",""
"2296.8000000000466","3","confid","","","html-slider-response","1477","894781","0.0-4.0-10.165-0.165","","","","Rate your confidence","1",""
"1327.3999999999069","e","choice","left","e","experimental","1484","897905","0.0-4.0-8.166","true","167","2.6499999999999995","","",""
"2458.6999999999534","3","confid","","","html-slider-response","1486","900868","0.0-4.0-10.166-0.166","","","","Rate your confidence","1",""
"997.3000000000466","e","choice","right","i","experimental","1493","903642","0.0-4.0-8.167","false","168","2.6499999999999995","","",""
"2513","3","confid","","","html-slider-response","1495","906660","0.0-4.0-10.167-0.167","","","","Rate your confidence","1",""
"1166.0999999998603","e","choice","left","e","experimental","1502","909625","0.0-4.0-8.168","true","169","2.7499999999999996","","",""
"3747","3","confid","","","html-slider-response","1504","913877","0.0-4.0-10.168-0.168","","","","Rate your confidence","1",""
"677","i","choice","right","i","experimental","1511","916331","0.0-4.0-8.169","true","170","2.7499999999999996","","",""
"2536.4000000001397","4","confid","","","html-slider-response","1513","919373","0.0-4.0-10.169-0.169","","","","Rate your confidence","1",""
"639.1999999999534","i","choice","left","e","experimental","1520","921789","0.0-4.0-8.170","false","171","2.6499999999999995","","",""
"2758.600000000093","2","confid","","","html-slider-response","1522","925052","0.0-4.0-10.170-0.170","","","","Rate your confidence","1",""
"719.0999999998603","i","choice","right","i","experimental","1529","927549","0.0-4.0-8.171","true","172","2.7499999999999996","","",""
"2470.4000000001397","2","confid","","","html-slider-response","1531","930524","0.0-4.0-10.171-0.171","","","","Rate your confidence","1",""
"657.8999999999069","i","choice","left","e","experimental","1538","932962","0.0-4.0-8.172","false","173","2.7499999999999996","","",""
"2433.399999999907","2","confid","","","html-slider-response","1540","935901","0.0-4.0-10.172-0.172","","","","Rate your confidence","1",""
"826.5","i","choice","right","i","experimental","1547","938506","0.0-4.0-8.173","true","174","2.8499999999999996","","",""
"2289.6999999999534","3","confid","","","html-slider-response","1549","941301","0.0-4.0-10.173-0.173","","","","Rate your confidence","1",""
"942.9000000001397","i","choice","right","i","experimental","1556","944021","0.0-4.0-8.174","true","175","2.8499999999999996","","",""
"2422.899999999907","3","confid","","","html-slider-response","1558","946949","0.0-4.0-10.174-0.174","","","","Rate your confidence","1",""
"870.8000000000466","e","choice","left","e","experimental","1565","949597","0.0-4.0-8.175","true","176","2.7499999999999996","","",""
"2596.399999999907","4","confid","","","html-slider-response","1567","952700","0.0-4.0-10.175-0.175","","","","Rate your confidence","1",""
"828.7999999998137","i","choice","right","i","experimental","1574","955325","0.0-4.0-8.176","true","177","2.7499999999999996","","",""
"2343.0999999998603","4","confid","","","html-slider-response","1576","958172","0.0-4.0-10.176-0.176","","","","Rate your confidence","1",""
"773.8999999999069","e","choice","left","e","experimental","1583","960747","0.0-4.0-8.177","true","178","2.6499999999999995","","",""
"1960.6000000000931","4","confid","","","html-slider-response","1585","963213","0.0-4.0-10.177-0.177","","","","Rate your confidence","1",""
"659.5999999998603","e","choice","left","e","experimental","1592","965650","0.0-4.0-8.178","true","179","2.6499999999999995","","",""
"1457.4000000001397","4","confid","","","html-slider-response","1594","967612","0.0-4.0-10.178-0.178","","","","Rate your confidence","1",""
"643","i","choice","right","i","experimental","1601","970032","0.0-4.0-8.179","true","180","2.5499999999999994","","",""
"1932","5","confid","","","html-slider-response","1603","972468","0.0-4.0-10.179-0.179","","","","Rate your confidence","1",""
"961.8000000000466","i","choice","left","e","experimental","1610","975207","0.0-4.0-8.180","false","181","2.5499999999999994","","",""
"1979.8999999999069","4","confid","","","html-slider-response","1612","977693","0.0-4.0-10.180-0.180","","","","Rate your confidence","1",""
"982.3000000000466","i","choice","right","i","experimental","1619","980473","0.0-4.0-8.181","true","182","2.6499999999999995","","",""
"2331.5","4","confid","","","html-slider-response","1621","983309","0.0-4.0-10.181-0.181","","","","Rate your confidence","1",""
"779.5","e","choice","right","i","experimental","1628","985886","0.0-4.0-8.182","false","183","2.6499999999999995","","",""
"2790.1999999999534","4","confid","","","html-slider-response","1630","989181","0.0-4.0-10.182-0.182","","","","Rate your confidence","1",""
"990.9000000001397","e","choice","left","e","experimental","1637","991972","0.0-4.0-8.183","true","184","2.7499999999999996","","",""
"1504.3000000000466","4","confid","","","html-slider-response","1639","993981","0.0-4.0-10.183-0.183","","","","Rate your confidence","1",""
"678.8000000000466","i","choice","right","i","experimental","1646","996437","0.0-4.0-8.184","true","185","2.7499999999999996","","",""
"1854.0999999998603","4","confid","","","html-slider-response","1648","998796","0.0-4.0-10.184-0.184","","","","Rate your confidence","1",""
"731.5","e","choice","left","e","experimental","1655","1001306","0.0-4.0-8.185","true","186","2.6499999999999995","","",""
"2481","4","confid","","","html-slider-response","1657","1004293","0.0-4.0-10.185-0.185","","","","Rate your confidence","1",""
"746.8000000000466","i","choice","right","i","experimental","1664","1006839","0.0-4.0-8.186","true","187","2.6499999999999995","","",""
"2004.5","4","confid","","","html-slider-response","1666","1009348","0.0-4.0-10.186-0.186","","","","Rate your confidence","1",""
"988.5","i","choice","left","e","experimental","1673","1012114","0.0-4.0-8.187","false","188","2.5499999999999994","","",""
"2937.6999999999534","4","confid","","","html-slider-response","1675","1015556","0.0-4.0-10.187-0.187","","","","Rate your confidence","1",""
"598.1000000000931","i","choice","right","i","experimental","1682","1017949","0.0-4.0-8.188","true","189","2.6499999999999995","","",""
"2222.1999999999534","4","confid","","","html-slider-response","1684","1020676","0.0-4.0-10.188-0.188","","","","Rate your confidence","1",""
"613.5","e","choice","left","e","experimental","1691","1023091","0.0-4.0-8.189","true","190","2.6499999999999995","","",""
"1536.4000000001397","4","confid","","","html-slider-response","1693","1025132","0.0-4.0-10.189-0.189","","","","Rate your confidence","1",""
"659.8999999999069","i","choice","left","e","experimental","1700","1027569","0.0-4.0-8.190","false","191","2.5499999999999994","","",""
"2003.3000000000466","2","confid","","","html-slider-response","1702","1030077","0.0-4.0-10.190-0.190","","","","Rate your confidence","1",""
"1051.9000000001397","i","choice","right","i","experimental","1709","1032907","0.0-4.0-8.191","true","192","2.6499999999999995","","",""
"2056.5","3","confid","","","html-slider-response","1711","1035469","0.0-4.0-10.191-0.191","","","","Rate your confidence","1",""
"614.5","i","choice","right","i","experimental","1718","1037881","0.0-4.0-8.192","true","193","2.6499999999999995","","",""
"2178.5","3","confid","","","html-slider-response","1720","1040565","0.0-4.0-10.192-0.192","","","","Rate your confidence","1",""
"1052.1000000000931","e","choice","left","e","experimental","1727","1043414","0.0-4.0-8.193","true","194","2.5499999999999994","","",""
"1589.4000000001397","3","confid","","","html-slider-response","1729","1045508","0.0-4.0-10.193-0.193","","","","Rate your confidence","1","11573"
