"rt","response","task","target_side","correct_response","trial_type","trial_index","time_elapsed","internal_node_id","correct","trial_number","n_dots","stimulus","slider_start","participant"
"578.6000000238419","e","choice","left","e","practice","10","154746","0.0-4.0-8.0","true","1","4.25","","",""
"472.89999997615814","i","choice","right","i","practice","18","157634","0.0-4.0-8.1","true","2","4.25","","",""
"383.10000002384186","e","choice","right","i","practice","26","160386","0.0-4.0-8.2","false","3","3.85","","",""
"493.5","e","choice","left","e","practice","34","163217","0.0-4.0-8.3","true","4","4.25","","",""
"705.8999999761581","i","choice","right","i","practice","42","166324","0.0-4.0-8.4","true","5","4.25","","",""
"2376.100000023842","e","choice","left","e","practice","50","171077","0.0-4.0-8.5","true","6","3.85","","",""
"517.3999999761581","i","choice","right","i","practice","58","173976","0.0-4.0-8.6","true","7","3.85","","",""
"455.10000002384186","e","choice","left","e","practice","66","176815","0.0-4.0-8.7","true","8","3.65","","",""
"422.3000000715256","i","choice","left","e","practice","74","179586","0.0-4.0-8.8","false","9","3.65","","",""
"235","i","choice","right","i","practice","82","182205","0.0-4.0-8.9","true","10","3.85","","",""
"245.89999997615814","e","choice","left","e","practice","90","184811","0.0-4.0-8.10","true","11","3.85","","",""
"368.39999997615814","i","choice","right","i","practice","98","187555","0.0-4.0-8.11","true","12","3.75","","",""
"132.5","e","choice","right","i","practice","106","190093","0.0-4.0-8.12","false","13","3.75","","",""
"92.39999997615814","i","choice","left","e","practice","114","192561","0.0-4.0-8.13","false","14","3.85","","",""
"167","i","choice","right","i","practice","122","195067","0.0-4.0-8.14","true","15","3.95","","",""
"531.5","e","choice","left","e","practice","130","197990","0.0-4.0-8.15","true","16","3.95","","",""
"615.2000000476837","e","choice","left","e","practice","138","200982","0.0-4.0-8.16","true","17","3.85","","",""
"325.89999997615814","i","choice","right","i","practice","146","203690","0.0-4.0-8.17","true","18","3.85","","",""
"769.2999999523163","e","choice","left","e","practice","154","206815","0.0-4.0-8.18","true","19","3.75","","",""
"715.7999999523163","i","choice","right","i","practice","162","209923","0.0-4.0-8.19","true","20","3.75","","",""
"366.39999997615814","e","choice","left","e","practice","170","212646","0.0-4.0-8.20","true","21","3.65","","",""
"318.60000002384186","e","choice","right","i","practice","178","215308","0.0-4.0-8.21","false","22","3.65","","",""
"388.39999997615814","i","choice","left","e","practice","186","218073","0.0-4.0-8.22","false","23","3.75","","",""
"396.10000002384186","i","choice","right","i","practice","194","220821","0.0-4.0-8.23","true","24","3.85","","",""
"300.89999997615814","i","choice","right","i","practice","202","223463","0.0-4.0-8.24","true","25","3.85","","",""
"441.7999999523163","e","choice","left","e","practice","210","226301","0.0-4.0-8.25","true","26","3.75","","",""
"431.2999999523163","e","choice","right","i","experimental","221","280000","0.0-4.0-8.26","false","27","3.75","","",""
"9623.799999952316","4","confid","","","html-slider-response","223","290141","0.0-4.0-10.26-0.26","","","","Rate your confidence","1",""
"983.6000000238419","e","choice","left","e","experimental","230","293004","0.0-4.0-8.27","true","28","3.85","","",""
"4343.399999976158","1","confid","","","html-slider-response","232","297865","0.0-4.0-10.27-0.27","","","","Rate your confidence","1",""
"519.1999999284744","i","choice","right","i","experimental","239","300256","0.0-4.0-8.28","true","29","3.85","","",""
"4849.399999976158","4","confid","","","html-slider-response","241","305616","0.0-4.0-10.28-0.28","","","","Rate your confidence","1",""
"1618.5","i","choice","left","e","experimental","248","309141","0.0-4.0-8.29","false","30","3.75","","",""
"6066","1","confid","","","html-slider-response","250","315715","0.0-4.0-10.29-0.29","","","","Rate your confidence","1",""
"597.6000000238419","e","choice","left","e","experimental","257","318153","0.0-4.0-8.30","true","31","3.85","","",""
"3410.6999999284744","6","confid","","","html-slider-response","259","322113","0.0-4.0-10.30-0.30","","","","Rate your confidence","1",""
"515.8999999761581","i","choice","right","i","experimental","266","324477","0.0-4.0-8.31","true","32","3.85","","",""
"4909.700000047684","6","confid","","","html-slider-response","268","329895","0.0-4.0-10.31-0.31","","","","Rate your confidence","1",""
"516.4000000953674","i","choice","right","i","experimental","275","332284","0.0-4.0-8.32","true","33","3.75","","",""
"2524.899999976158","5","confid","","","html-slider-response","277","335317","0.0-4.0-10.32-0.32","","","","Rate your confidence","1",""
"416","e","choice","left","e","experimental","284","337582","0.0-4.0-8.33","true","34","3.75","","",""
"3414.6999999284744","5","confid","","","html-slider-response","286","341505","0.0-4.0-10.33-0.33","","","","Rate your confidence","1",""
"1095.6000000238419","e","choice","right","i","experimental","293","344438","0.0-4.0-8.34","false","35","3.65","","",""
"4737.599999904633","2","confid","","","html-slider-response","295","349688","0.0-4.0-10.34-0.34","","","","Rate your confidence","1",""
"892.5","i","choice","left","e","experimental","302","352386","0.0-4.0-8.35","false","36","3.75","","",""
"3944.7000000476837","4","confid","","","html-slider-response","304","356840","0.0-4.0-10.35-0.35","","","","Rate your confidence","1",""
"1292.6000000238419","e","choice","right","i","experimental","311","359974","0.0-4.0-8.36","false","37","3.85","","",""
"3497.5","3","confid","","","html-slider-response","313","363989","0.0-4.0-10.36-0.36","","","","Rate your confidence","1",""
"414.8000000715256","e","choice","left","e","experimental","320","366238","0.0-4.0-8.37","true","38","3.95","","",""
"3066.1999999284744","6","confid","","","html-slider-response","322","369825","0.0-4.0-10.37-0.37","","","","Rate your confidence","1",""
"532.7000000476837","e","choice","left","e","experimental","329","372249","0.0-4.0-8.38","true","39","3.95","","",""
"2673.6999999284744","5","confid","","","html-slider-response","331","375430","0.0-4.0-10.38-0.38","","","","Rate your confidence","1",""
"579.9000000953674","i","choice","right","i","experimental","338","377908","0.0-4.0-8.39","true","40","3.85","","",""
"5488.5","6","confid","","","html-slider-response","340","383907","0.0-4.0-10.39-0.39","","","","Rate your confidence","1",""
"534.7999999523163","e","choice","left","e","experimental","347","386284","0.0-4.0-8.40","true","41","3.85","","",""
"4326.399999976158","5","confid","","","html-slider-response","349","391160","0.0-4.0-10.40-0.40","","","","Rate your confidence","1",""
"975.3999999761581","e","choice","right","i","experimental","356","393960","0.0-4.0-8.41","false","42","3.75","","",""
"3350.399999976158","2","confid","","","html-slider-response","358","397826","0.0-4.0-10.41-0.41","","","","Rate your confidence","1",""
"391.5","e","choice","left","e","experimental","365","400096","0.0-4.0-8.42","true","43","3.85","","",""
"4724.100000023842","4","confid","","","html-slider-response","367","405327","0.0-4.0-10.42-0.42","","","","Rate your confidence","1",""
"427.7000000476837","i","choice","right","i","experimental","374","407634","0.0-4.0-8.43","true","44","3.85","","",""
"4966.300000071526","5","confid","","","html-slider-response","376","413107","0.0-4.0-10.43-0.43","","","","Rate your confidence","1",""
"469.5","e","choice","left","e","experimental","383","415413","0.0-4.0-8.44","true","45","3.75","","",""
"4603","5","confid","","","html-slider-response","385","420526","0.0-4.0-10.44-0.44","","","","Rate your confidence","1",""
"1352","i","choice","right","i","experimental","392","423728","0.0-4.0-8.45","true","46","3.75","","",""
"2956.399999976158","3","confid","","","html-slider-response","394","427197","0.0-4.0-10.45-0.45","","","","Rate your confidence","1",""
"1162.6999999284744","e","choice","right","i","experimental","401","430348","0.0-4.0-8.46","false","47","3.65","","",""
"3066.100000023842","4","confid","","","html-slider-response","403","433925","0.0-4.0-10.46-0.46","","","","Rate your confidence","1",""
"501.8000000715256","e","choice","left","e","experimental","410","436319","0.0-4.0-8.47","true","48","3.75","","",""
"4484.199999928474","6","confid","","","html-slider-response","412","441319","0.0-4.0-10.47-0.47","","","","Rate your confidence","1",""
"486.60000002384186","i","choice","right","i","experimental","419","443649","0.0-4.0-8.48","true","49","3.75","","",""
"3217.7000000476837","6","confid","","","html-slider-response","421","447377","0.0-4.0-10.48-0.48","","","","Rate your confidence","1",""
"500.09999990463257","e","choice","left","e","experimental","428","449712","0.0-4.0-8.49","true","50","3.65","","",""
"6604.800000071526","5","confid","","","html-slider-response","430","456830","0.0-4.0-10.49-0.49","","","","Rate your confidence","1",""
"587.8999999761581","e","choice","left","e","experimental","437","459263","0.0-4.0-8.50","true","51","3.65","","",""
"2981.5999999046326","5","confid","","","html-slider-response","439","462757","0.0-4.0-10.50-0.50","","","","Rate your confidence","1",""
"1979","i","choice","right","i","experimental","446","466582","0.0-4.0-8.51","true","52","3.55","","",""
"3893.3000000715256","3","confid","","","html-slider-response","448","470982","0.0-4.0-10.51-0.51","","","","Rate your confidence","1",""
"1289.4000000953674","e","choice","right","i","experimental","455","474122","0.0-4.0-8.52","false","53","3.55","","",""
"4286.799999952316","2","confid","","","html-slider-response","457","478920","0.0-4.0-10.52-0.52","","","","Rate your confidence","1",""
"569.6999999284744","e","choice","left","e","experimental","464","481339","0.0-4.0-8.53","true","54","3.65","","",""
"5008.199999928474","3","confid","","","html-slider-response","466","486860","0.0-4.0-10.53-0.53","","","","Rate your confidence","1",""
"507.60000002384186","i","choice","right","i","experimental","473","489248","0.0-4.0-8.54","true","55","3.65","","",""
"2810.5","5","confid","","","html-slider-response","475","492569","0.0-4.0-10.54-0.54","","","","Rate your confidence","1",""
"730.7999999523163","e","choice","left","e","experimental","482","495137","0.0-4.0-8.55","true","56","3.55","","",""
"4653.400000095367","4","confid","","","html-slider-response","484","500354","0.0-4.0-10.55-0.55","","","","Rate your confidence","1",""
"516","i","choice","right","i","experimental","491","502717","0.0-4.0-8.56","true","57","3.55","","",""
"3964.2000000476837","5","confid","","","html-slider-response","493","507200","0.0-4.0-10.56-0.56","","","","Rate your confidence","1",""
"567.1999999284744","e","choice","left","e","experimental","500","509594","0.0-4.0-8.57","true","58","3.4499999999999997","","",""
"3234.600000023842","5","confid","","","html-slider-response","502","513340","0.0-4.0-10.57-0.57","","","","Rate your confidence","1",""
"2760.6999999284744","e","choice","right","i","experimental","509","517982","0.0-4.0-8.58","false","59","3.4499999999999997","","",""
"3620.100000023842","1","confid","","","html-slider-response","511","522115","0.0-4.0-10.58-0.58","","","","Rate your confidence","1",""
"767.1999999284744","i","choice","left","e","experimental","518","524719","0.0-4.0-8.59","false","60","3.55","","",""
"4310.699999928474","3","confid","","","html-slider-response","520","529541","0.0-4.0-10.59-0.59","","","","Rate your confidence","1",""
"366.5","e","choice","left","e","experimental","527","531758","0.0-4.0-8.60","true","61","3.65","","",""
"5726","5","confid","","","html-slider-response","529","538000","0.0-4.0-10.60-0.60","","","","Rate your confidence","1",""
"1157.8999999761581","i","choice","right","i","experimental","536","540995","0.0-4.0-8.61","true","62","3.65","","",""
"3268.899999976158","4","confid","","","html-slider-response","538","544776","0.0-4.0-10.61-0.61","","","","Rate your confidence","1",""
"779.8000000715256","e","choice","left","e","experimental","545","547400","0.0-4.0-8.62","true","63","3.55","","",""
"5629.099999904633","4","confid","","","html-slider-response","547","553544","0.0-4.0-10.62-0.62","","","","Rate your confidence","1",""
"570.0999999046326","i","choice","right","i","experimental","554","555998","0.0-4.0-8.63","true","64","3.55","","",""
"4149.899999976158","5","confid","","","html-slider-response","556","560656","0.0-4.0-10.63-0.63","","","","Rate your confidence","1",""
"787.2000000476837","e","choice","right","i","experimental","563","563311","0.0-4.0-8.64","false","65","3.4499999999999997","","",""
"5042.099999904633","2","confid","","","html-slider-response","565","568863","0.0-4.0-10.64-0.64","","","","Rate your confidence","1",""
"1181.1000000238419","e","choice","left","e","experimental","572","571884","0.0-4.0-8.65","true","66","3.55","","",""
"15047.5","4","confid","","","html-slider-response","574","587448","0.0-4.0-10.65-0.65","","","","Rate your confidence","1",""
"637.5","i","choice","right","i","experimental","581","589921","0.0-4.0-8.66","true","67","3.55","","",""
"7381.800000071526","6","confid","","","html-slider-response","583","597816","0.0-4.0-10.66-0.66","","","","Rate your confidence","1",""
"973","e","choice","left","e","experimental","590","600647","0.0-4.0-8.67","true","68","3.4499999999999997","","",""
"3652.3000000715256","3","confid","","","html-slider-response","592","604807","0.0-4.0-10.67-0.67","","","","Rate your confidence","1",""
"926.8999999761581","i","choice","left","e","experimental","600","653831","0.0-4.0-8.68","false","69","3.4499999999999997","","",""
"3529.600000023842","2","confid","","","html-slider-response","602","657875","0.0-4.0-10.68-0.68","","","","Rate your confidence","1",""
"1041.2999999523163","i","choice","right","i","experimental","609","660803","0.0-4.0-8.69","true","70","3.55","","",""
"4566.700000047684","3","confid","","","html-slider-response","611","665880","0.0-4.0-10.69-0.69","","","","Rate your confidence","1",""
"418.2000000476837","e","choice","left","e","experimental","618","668143","0.0-4.0-8.70","true","71","3.55","","",""
"2939.399999976158","3","confid","","","html-slider-response","620","671631","0.0-4.0-10.70-0.70","","","","Rate your confidence","1",""
"431.5","i","choice","right","i","experimental","627","673906","0.0-4.0-8.71","true","72","3.4499999999999997","","",""
"3207.899999976158","5","confid","","","html-slider-response","629","677624","0.0-4.0-10.71-0.71","","","","Rate your confidence","1",""
"369.60000002384186","e","choice","left","e","experimental","636","679815","0.0-4.0-8.72","true","73","3.4499999999999997","","",""
"2974.5","4","confid","","","html-slider-response","638","683303","0.0-4.0-10.72-0.72","","","","Rate your confidence","1",""
"1399.4000000953674","i","choice","right","i","experimental","645","686586","0.0-4.0-8.73","true","74","3.3499999999999996","","",""
"7108","3","confid","","","html-slider-response","647","694208","0.0-4.0-10.73-0.73","","","","Rate your confidence","1",""
"557.8999999761581","i","choice","right","i","experimental","654","696609","0.0-4.0-8.74","true","75","3.3499999999999996","","",""
"4055.399999976158","2","confid","","","html-slider-response","656","701172","0.0-4.0-10.74-0.74","","","","Rate your confidence","1",""
"1198","e","choice","left","e","experimental","663","704203","0.0-4.0-8.75","true","76","3.2499999999999996","","",""
"4657.900000095367","4","confid","","","html-slider-response","665","709367","0.0-4.0-10.75-0.75","","","","Rate your confidence","1",""
"657.7999999523163","e","choice","right","i","experimental","672","711864","0.0-4.0-8.76","false","77","3.2499999999999996","","",""
"3965.3000000715256","2","confid","","","html-slider-response","674","716340","0.0-4.0-10.76-0.76","","","","Rate your confidence","1",""
"1167.4000000953674","e","choice","left","e","experimental","681","719341","0.0-4.0-8.77","true","78","3.3499999999999996","","",""
"3221","2","confid","","","html-slider-response","683","723071","0.0-4.0-10.77-0.77","","","","Rate your confidence","1",""
"909.8000000715256","e","choice","left","e","experimental","690","725867","0.0-4.0-8.78","true","79","3.3499999999999996","","",""
"3642.899999976158","3","confid","","","html-slider-response","692","730024","0.0-4.0-10.78-0.78","","","","Rate your confidence","1",""
"1390.8999999761581","i","choice","right","i","experimental","699","733265","0.0-4.0-8.79","true","80","3.2499999999999996","","",""
"3594.2999999523163","1","confid","","","html-slider-response","701","737369","0.0-4.0-10.79-0.79","","","","Rate your confidence","1",""
"673.3000000715256","e","choice","left","e","experimental","708","739881","0.0-4.0-8.80","true","81","3.2499999999999996","","",""
"4132.299999952316","2","confid","","","html-slider-response","710","744522","0.0-4.0-10.80-0.80","","","","Rate your confidence","1",""
"421.89999997615814","i","choice","right","i","experimental","717","746811","0.0-4.0-8.81","true","82","3.1499999999999995","","",""
"6263.300000071526","2","confid","","","html-slider-response","719","753588","0.0-4.0-10.81-0.81","","","","Rate your confidence","1",""
"576.7999999523163","e","choice","right","i","experimental","726","756045","0.0-4.0-8.82","false","83","3.1499999999999995","","",""
"3712.2999999523163","2","confid","","","html-slider-response","728","760272","0.0-4.0-10.82-0.82","","","","Rate your confidence","1",""
"496.89999997615814","e","choice","left","e","experimental","735","762658","0.0-4.0-8.83","true","84","3.2499999999999996","","",""
"6938.5","1","confid","","","html-slider-response","737","770120","0.0-4.0-10.83-0.83","","","","Rate your confidence","1",""
"405.7000000476837","e","choice","left","e","experimental","744","772368","0.0-4.0-8.84","true","85","3.2499999999999996","","",""
"3458.5999999046326","4","confid","","","html-slider-response","746","776383","0.0-4.0-10.84-0.84","","","","Rate your confidence","1",""
"580.2999999523163","i","choice","right","i","experimental","753","778795","0.0-4.0-8.85","true","86","3.1499999999999995","","",""
"5135.100000023842","4","confid","","","html-slider-response","755","784447","0.0-4.0-10.85-0.85","","","","Rate your confidence","1",""
"396.5","e","choice","left","e","experimental","762","786739","0.0-4.0-8.86","true","87","3.1499999999999995","","",""
"3345.8000000715256","4","confid","","","html-slider-response","764","790601","0.0-4.0-10.86-0.86","","","","Rate your confidence","1",""
"1210.8999999761581","i","choice","right","i","experimental","771","793694","0.0-4.0-8.87","true","88","3.0499999999999994","","",""
"3185.399999976158","2","confid","","","html-slider-response","773","797395","0.0-4.0-10.87-0.87","","","","Rate your confidence","1",""
"475.39999997615814","e","choice","left","e","experimental","780","799753","0.0-4.0-8.88","true","89","3.0499999999999994","","",""
"5052.5","4","confid","","","html-slider-response","782","805322","0.0-4.0-10.88-0.88","","","","Rate your confidence","1",""
"1160.3999999761581","e","choice","right","i","experimental","789","808330","0.0-4.0-8.89","false","90","2.9499999999999993","","",""
"4580.200000047684","2","confid","","","html-slider-response","791","813422","0.0-4.0-10.89-0.89","","","","Rate your confidence","1",""
"440.60000002384186","e","choice","left","e","experimental","798","815710","0.0-4.0-8.90","true","91","3.0499999999999994","","",""
"3429.399999976158","5","confid","","","html-slider-response","800","819656","0.0-4.0-10.90-0.90","","","","Rate your confidence","1",""
"464.7000000476837","i","choice","right","i","experimental","807","821947","0.0-4.0-8.91","true","92","3.0499999999999994","","",""
"3360.899999976158","3","confid","","","html-slider-response","809","825822","0.0-4.0-10.91-0.91","","","","Rate your confidence","1",""
"592.1000000238419","e","choice","left","e","experimental","816","828263","0.0-4.0-8.92","true","93","2.9499999999999993","","",""
"4450.600000023842","2","confid","","","html-slider-response","818","833225","0.0-4.0-10.92-0.92","","","","Rate your confidence","1",""
"1438.3999999761581","i","choice","right","i","experimental","825","836532","0.0-4.0-8.93","true","94","2.9499999999999993","","",""
"5938.100000023842","3","confid","","","html-slider-response","827","842984","0.0-4.0-10.93-0.93","","","","Rate your confidence","1",""
"850","i","choice","right","i","experimental","834","845676","0.0-4.0-8.94","true","95","2.849999999999999","","",""
"3362.1999999284744","4","confid","","","html-slider-response","836","849564","0.0-4.0-10.94-0.94","","","","Rate your confidence","1",""
"416.39999997615814","e","choice","left","e","experimental","843","851814","0.0-4.0-8.95","true","96","2.849999999999999","","",""
"3331.600000023842","4","confid","","","html-slider-response","845","855654","0.0-4.0-10.95-0.95","","","","Rate your confidence","1",""
"1854.7999999523163","i","choice","left","e","experimental","852","859383","0.0-4.0-8.96","false","97","2.749999999999999","","",""
"5483","1","confid","","","html-slider-response","854","865388","0.0-4.0-10.96-0.96","","","","Rate your confidence","1",""
"576.7000000476837","i","choice","right","i","experimental","861","867852","0.0-4.0-8.97","true","98","2.849999999999999","","",""
"4172","3","confid","","","html-slider-response","863","872537","0.0-4.0-10.97-0.97","","","","Rate your confidence","1",""
"529.2000000476837","e","choice","right","i","experimental","870","874906","0.0-4.0-8.98","false","99","2.849999999999999","","",""
"5298.5","3","confid","","","html-slider-response","872","880712","0.0-4.0-10.98-0.98","","","","Rate your confidence","1",""
"672.5","e","choice","left","e","experimental","879","883268","0.0-4.0-8.99","true","100","2.9499999999999993","","",""
"4489.200000047684","3","confid","","","html-slider-response","881","888272","0.0-4.0-10.99-0.99","","","","Rate your confidence","1",""
"676.5","e","choice","left","e","experimental","888","890797","0.0-4.0-8.100","true","101","2.9499999999999993","","",""
"3760.8000000715256","1","confid","","","html-slider-response","890","895072","0.0-4.0-10.100-0.100","","","","Rate your confidence","1",""
"804.2000000476837","e","choice","right","i","experimental","897","897702","0.0-4.0-8.101","false","102","2.849999999999999","","",""
"4051.6999999284744","2","confid","","","html-slider-response","899","902264","0.0-4.0-10.101-0.101","","","","Rate your confidence","1",""
"1731.2999999523163","i","choice","right","i","experimental","906","905839","0.0-4.0-8.102","true","103","2.9499999999999993","","",""
"3435.3000000715256","1","confid","","","html-slider-response","908","909788","0.0-4.0-10.102-0.102","","","","Rate your confidence","1",""
"239","e","choice","left","e","experimental","915","911873","0.0-4.0-8.103","true","104","2.9499999999999993","","",""
"3318.7000000476837","3","confid","","","html-slider-response","917","915705","0.0-4.0-10.103-0.103","","","","Rate your confidence","1",""
"743","i","choice","right","i","experimental","924","918319","0.0-4.0-8.104","true","105","2.849999999999999","","",""
"2944.399999976158","2","confid","","","html-slider-response","926","921779","0.0-4.0-10.104-0.104","","","","Rate your confidence","1",""
"388.5","e","choice","left","e","experimental","933","924009","0.0-4.0-8.105","true","106","2.849999999999999","","",""
"4643.400000095367","3","confid","","","html-slider-response","935","929165","0.0-4.0-10.105-0.105","","","","Rate your confidence","1",""
"392.6999999284744","e","choice","right","i","experimental","942","931398","0.0-4.0-8.106","false","107","2.749999999999999","","",""
"2889","3","confid","","","html-slider-response","944","934796","0.0-4.0-10.106-0.106","","","","Rate your confidence","1",""
"606.1000000238419","e","choice","left","e","experimental","951","937251","0.0-4.0-8.107","true","108","2.849999999999999","","",""
"5109.700000047684","2","confid","","","html-slider-response","953","942873","0.0-4.0-10.107-0.107","","","","Rate your confidence","1",""
"488","e","choice","left","e","experimental","960","945213","0.0-4.0-8.108","true","109","2.849999999999999","","",""
"3080.899999976158","2","confid","","","html-slider-response","962","948802","0.0-4.0-10.108-0.108","","","","Rate your confidence","1",""
"460.7999999523163","i","choice","right","i","experimental","969","951105","0.0-4.0-8.109","true","110","2.749999999999999","","",""
"3396","2","confid","","","html-slider-response","971","955013","0.0-4.0-10.109-0.109","","","","Rate your confidence","1",""
"691.7000000476837","e","choice","left","e","experimental","979","984957","0.0-4.0-8.110","true","111","2.749999999999999","","",""
"4895.800000071526","2","confid","","","html-slider-response","981","990362","0.0-4.0-10.110-0.110","","","","Rate your confidence","1",""
"586.7999999523163","i","choice","right","i","experimental","988","992822","0.0-4.0-8.111","true","112","2.649999999999999","","",""
"3716.2000000476837","4","confid","","","html-slider-response","990","997052","0.0-4.0-10.111-0.111","","","","Rate your confidence","1",""
"1148.6999999284744","e","choice","left","e","experimental","997","1000098","0.0-4.0-8.112","true","113","2.649999999999999","","",""
"5944","2","confid","","","html-slider-response","999","1006554","0.0-4.0-10.112-0.112","","","","Rate your confidence","1",""
"1339.7000000476837","i","choice","right","i","experimental","1006","1009739","0.0-4.0-8.113","true","114","2.549999999999999","","",""
"6667","1","confid","","","html-slider-response","1008","1016937","0.0-4.0-10.113-0.113","","","","Rate your confidence","1",""
"517.5999999046326","e","choice","right","i","experimental","1015","1019304","0.0-4.0-8.114","false","115","2.549999999999999","","",""
"3195.1999999284744","2","confid","","","html-slider-response","1017","1023014","0.0-4.0-10.114-0.114","","","","Rate your confidence","1",""
"1023.5","e","choice","left","e","experimental","1024","1025878","0.0-4.0-8.115","true","116","2.649999999999999","","",""
"2734.399999976158","4","confid","","","html-slider-response","1026","1029123","0.0-4.0-10.115-0.115","","","","Rate your confidence","1",""
"842.2000000476837","i","choice","left","e","experimental","1033","1031854","0.0-4.0-8.116","false","117","2.649999999999999","","",""
"3146.2999999523163","2","confid","","","html-slider-response","1035","1035509","0.0-4.0-10.116-0.116","","","","Rate your confidence","1",""
"451.5","e","choice","right","i","experimental","1042","1037843","0.0-4.0-8.117","false","118","2.749999999999999","","",""
"4284.399999976158","4","confid","","","html-slider-response","1044","1042639","0.0-4.0-10.117-0.117","","","","Rate your confidence","1",""
"860.0999999046326","i","choice","left","e","experimental","1051","1045367","0.0-4.0-8.118","false","119","2.849999999999999","","",""
"2915.6999999284744","3","confid","","","html-slider-response","1053","1048792","0.0-4.0-10.118-0.118","","","","Rate your confidence","1",""
"771.1000000238419","e","choice","right","i","experimental","1060","1051409","0.0-4.0-8.119","false","120","2.9499999999999993","","",""
"4410.5","3","confid","","","html-slider-response","1062","1056332","0.0-4.0-10.119-0.119","","","","Rate your confidence","1",""
"914.5","i","choice","right","i","experimental","1069","1059121","0.0-4.0-8.120","true","121","3.0499999999999994","","",""
"3071.399999976158","2","confid","","","html-slider-response","1071","1062708","0.0-4.0-10.120-0.120","","","","Rate your confidence","1",""
"690.6999999284744","e","choice","left","e","experimental","1078","1065276","0.0-4.0-8.121","true","122","3.0499999999999994","","",""
"4285.5","4","confid","","","html-slider-response","1080","1070075","0.0-4.0-10.121-0.121","","","","Rate your confidence","1",""
"812","i","choice","right","i","experimental","1087","1072748","0.0-4.0-8.122","true","123","2.9499999999999993","","",""
"3727.5999999046326","5","confid","","","html-slider-response","1089","1076987","0.0-4.0-10.122-0.122","","","","Rate your confidence","1",""
"459.5","e","choice","left","e","experimental","1096","1079285","0.0-4.0-8.123","true","124","2.9499999999999993","","",""
"4009.600000023842","3","confid","","","html-slider-response","1098","1083849","0.0-4.0-10.123-0.123","","","","Rate your confidence","1",""
"688.6000000238419","i","choice","right","i","experimental","1105","1086382","0.0-4.0-8.124","true","125","2.849999999999999","","",""
"3946.600000023842","1","confid","","","html-slider-response","1107","1090833","0.0-4.0-10.124-0.124","","","","Rate your confidence","1",""
"421.39999997615814","e","choice","left","e","experimental","1114","1093088","0.0-4.0-8.125","true","126","2.849999999999999","","",""
"2896.399999976158","2","confid","","","html-slider-response","1116","1096495","0.0-4.0-10.125-0.125","","","","Rate your confidence","1",""
"913.5999999046326","i","choice","right","i","experimental","1123","1099288","0.0-4.0-8.126","true","127","2.749999999999999","","",""
"4740.199999928474","2","confid","","","html-slider-response","1125","1104538","0.0-4.0-10.126-0.126","","","","Rate your confidence","1",""
"532.3999999761581","i","choice","left","e","experimental","1132","1106952","0.0-4.0-8.127","false","128","2.749999999999999","","",""
"4053.399999976158","3","confid","","","html-slider-response","1134","1111515","0.0-4.0-10.127-0.127","","","","Rate your confidence","1",""
"536.3000000715256","e","choice","left","e","experimental","1141","1113933","0.0-4.0-8.128","true","129","2.849999999999999","","",""
"4188.599999904633","2","confid","","","html-slider-response","1143","1118631","0.0-4.0-10.128-0.128","","","","Rate your confidence","1",""
"890","i","choice","right","i","experimental","1150","1121407","0.0-4.0-8.129","true","130","2.849999999999999","","",""
"3455.100000023842","3","confid","","","html-slider-response","1152","1125376","0.0-4.0-10.129-0.129","","","","Rate your confidence","1",""
"1021.8999999761581","e","choice","left","e","experimental","1159","1128240","0.0-4.0-8.130","true","131","2.749999999999999","","",""
"5416.800000071526","2","confid","","","html-slider-response","1161","1134168","0.0-4.0-10.130-0.130","","","","Rate your confidence","1",""
"724.6999999284744","i","choice","right","i","experimental","1168","1136736","0.0-4.0-8.131","true","132","2.749999999999999","","",""
"3578.0999999046326","3","confid","","","html-slider-response","1170","1140833","0.0-4.0-10.131-0.131","","","","Rate your confidence","1",""
"516.3000000715256","e","choice","left","e","experimental","1177","1143214","0.0-4.0-8.132","true","133","2.649999999999999","","",""
"4871.300000071526","3","confid","","","html-slider-response","1179","1148600","0.0-4.0-10.132-0.132","","","","Rate your confidence","1",""
"1241.7999999523163","i","choice","right","i","experimental","1186","1151713","0.0-4.0-8.133","true","134","2.649999999999999","","",""
"2817.600000023842","2","confid","","","html-slider-response","1188","1155045","0.0-4.0-10.133-0.133","","","","Rate your confidence","1",""
"897","i","choice","left","e","experimental","1195","1157821","0.0-4.0-8.134","false","135","2.549999999999999","","",""
"4178.799999952316","2","confid","","","html-slider-response","1197","1162512","0.0-4.0-10.134-0.134","","","","Rate your confidence","1",""
"1148.2999999523163","e","choice","right","i","experimental","1204","1165482","0.0-4.0-8.135","false","136","2.649999999999999","","",""
"4931.899999976158","4","confid","","","html-slider-response","1206","1170967","0.0-4.0-10.135-0.135","","","","Rate your confidence","1",""
"431.8000000715256","i","choice","right","i","experimental","1213","1173231","0.0-4.0-8.136","true","137","2.749999999999999","","",""
"3350","3","confid","","","html-slider-response","1215","1177091","0.0-4.0-10.136-0.136","","","","Rate your confidence","1",""
"686.8999999761581","e","choice","left","e","experimental","1222","1179637","0.0-4.0-8.137","true","138","2.749999999999999","","",""
"5052.200000047684","3","confid","","","html-slider-response","1224","1185204","0.0-4.0-10.137-0.137","","","","Rate your confidence","1",""
"508.59999990463257","e","choice","left","e","experimental","1231","1187581","0.0-4.0-8.138","true","139","2.649999999999999","","",""
"3884.7000000476837","3","confid","","","html-slider-response","1233","1191982","0.0-4.0-10.138-0.138","","","","Rate your confidence","1",""
"1323.2999999523163","i","choice","right","i","experimental","1240","1195144","0.0-4.0-8.139","true","140","2.649999999999999","","",""
"4752","2","confid","","","html-slider-response","1242","1200408","0.0-4.0-10.139-0.139","","","","Rate your confidence","1",""
"1758.3000000715256","i","choice","right","i","experimental","1249","1204022","0.0-4.0-8.140","true","141","2.549999999999999","","",""
"3239.600000023842","2","confid","","","html-slider-response","1251","1207811","0.0-4.0-10.140-0.140","","","","Rate your confidence","1",""
"347.7000000476837","e","choice","left","e","experimental","1258","1209988","0.0-4.0-8.141","true","142","2.549999999999999","","",""
"4040.899999976158","4","confid","","","html-slider-response","1260","1214544","0.0-4.0-10.141-0.141","","","","Rate your confidence","1",""
"502.8000000715256","i","choice","right","i","experimental","1267","1216935","0.0-4.0-8.142","true","143","2.449999999999999","","",""
"3132.100000023842","3","confid","","","html-slider-response","1269","1220579","0.0-4.0-10.142-0.142","","","","Rate your confidence","1",""
"558.1999999284744","e","choice","left","e","experimental","1276","1223026","0.0-4.0-8.143","true","144","2.449999999999999","","",""
"3046","4","confid","","","html-slider-response","1278","1226581","0.0-4.0-10.143-0.143","","","","Rate your confidence","1",""
"1684","e","choice","right","i","experimental","1285","1230109","0.0-4.0-8.144","false","145","2.3499999999999988","","",""
"4236.600000023842","1","confid","","","html-slider-response","1287","1234859","0.0-4.0-10.144-0.144","","","","Rate your confidence","1",""
"669.1999999284744","e","choice","left","e","experimental","1294","1237366","0.0-4.0-8.145","true","146","2.449999999999999","","",""
"2969.2999999523163","2","confid","","","html-slider-response","1296","1240850","0.0-4.0-10.145-0.145","","","","Rate your confidence","1",""
"926.7000000476837","i","choice","left","e","experimental","1303","1243662","0.0-4.0-8.146","false","147","2.449999999999999","","",""
"5071.700000047684","2","confid","","","html-slider-response","1305","1249243","0.0-4.0-10.146-0.146","","","","Rate your confidence","1",""
"768.3000000715256","i","choice","right","i","experimental","1312","1251879","0.0-4.0-8.147","true","148","2.549999999999999","","",""
"4556.5","3","confid","","","html-slider-response","1314","1256943","0.0-4.0-10.147-0.147","","","","Rate your confidence","1",""
"1628.0999999046326","e","choice","right","i","experimental","1321","1260441","0.0-4.0-8.148","false","149","2.549999999999999","","",""
"5326.5","2","confid","","","html-slider-response","1323","1266281","0.0-4.0-10.148-0.148","","","","Rate your confidence","1",""
"1673.6999999284744","i","choice","left","e","experimental","1330","1269805","0.0-4.0-8.149","false","150","2.649999999999999","","",""
"3993.5999999046326","2","confid","","","html-slider-response","1332","1274314","0.0-4.0-10.149-0.149","","","","Rate your confidence","1",""
"457.89999997615814","e","choice","left","e","experimental","1339","1276604","0.0-4.0-8.150","true","151","2.749999999999999","","",""
"3247.1999999284744","4","confid","","","html-slider-response","1341","1280359","0.0-4.0-10.150-0.150","","","","Rate your confidence","1",""
"537.7999999523163","i","choice","right","i","experimental","1348","1282773","0.0-4.0-8.151","true","152","2.749999999999999","","",""
"3332.5","3","confid","","","html-slider-response","1350","1286619","0.0-4.0-10.151-0.151","","","","Rate your confidence","1",""
"546.3999999761581","i","choice","right","i","experimental","1358","1308614","0.0-4.0-8.152","true","153","2.649999999999999","","",""
"4165.699999928474","3","confid","","","html-slider-response","1360","1313293","0.0-4.0-10.152-0.152","","","","Rate your confidence","1",""
"586","e","choice","left","e","experimental","1367","1315705","0.0-4.0-8.153","true","154","2.649999999999999","","",""
"3819.399999976158","3","confid","","","html-slider-response","1369","1320072","0.0-4.0-10.153-0.153","","","","Rate your confidence","1",""
"617.3999999761581","e","choice","left","e","experimental","1376","1322533","0.0-4.0-8.154","true","155","2.549999999999999","","",""
"3381.6999999284744","2","confid","","","html-slider-response","1378","1326425","0.0-4.0-10.154-0.154","","","","Rate your confidence","1",""
"502.8000000715256","i","choice","right","i","experimental","1385","1328807","0.0-4.0-8.155","true","156","2.549999999999999","","",""
"3439.5","2","confid","","","html-slider-response","1387","1332754","0.0-4.0-10.155-0.155","","","","Rate your confidence","1",""
"630","i","choice","right","i","experimental","1394","1335258","0.0-4.0-8.156","true","157","2.449999999999999","","",""
"3368.7000000476837","1","confid","","","html-slider-response","1396","1339134","0.0-4.0-10.156-0.156","","","","Rate your confidence","1",""
"581.3000000715256","e","choice","left","e","experimental","1403","1341593","0.0-4.0-8.157","true","158","2.449999999999999","","",""
"3161.6999999284744","2","confid","","","html-slider-response","1405","1345264","0.0-4.0-10.157-0.157","","","","Rate your confidence","1",""
"331","i","choice","right","i","experimental","1412","1347435","0.0-4.0-8.158","true","159","2.3499999999999988","","",""
"3554","3","confid","","","html-slider-response","1414","1351548","0.0-4.0-10.158-0.158","","","","Rate your confidence","1",""
"1023.1000000238419","e","choice","left","e","experimental","1421","1354390","0.0-4.0-8.159","true","160","2.3499999999999988","","",""
"7011.200000047684","1","confid","","","html-slider-response","1423","1361913","0.0-4.0-10.159-0.159","","","","Rate your confidence","1",""
"633","e","choice","left","e","experimental","1430","1364387","0.0-4.0-8.160","true","161","2.2499999999999987","","",""
"4232.299999952316","2","confid","","","html-slider-response","1432","1369131","0.0-4.0-10.160-0.160","","","","Rate your confidence","1",""
"511.10000002384186","i","choice","right","i","experimental","1439","1371480","0.0-4.0-8.161","true","162","2.2499999999999987","","",""
"4865.600000023842","2","confid","","","html-slider-response","1441","1376856","0.0-4.0-10.161-0.161","","","","Rate your confidence","1",""
"441.8000000715256","i","choice","right","i","experimental","1448","1379136","0.0-4.0-8.162","true","163","2.1499999999999986","","",""
"2870.7999999523163","3","confid","","","html-slider-response","1450","1382520","0.0-4.0-10.162-0.162","","","","Rate your confidence","1",""
"823.7000000476837","i","choice","left","e","experimental","1457","1385179","0.0-4.0-8.163","false","164","2.1499999999999986","","",""
"4137.299999952316","1","confid","","","html-slider-response","1459","1389832","0.0-4.0-10.163-0.163","","","","Rate your confidence","1",""
"436.40000009536743","e","choice","right","i","experimental","1466","1392157","0.0-4.0-8.164","false","165","2.2499999999999987","","",""
"3547.399999976158","3","confid","","","html-slider-response","1468","1396219","0.0-4.0-10.164-0.164","","","","Rate your confidence","1",""
"960.6000000238419","i","choice","left","e","experimental","1475","1399053","0.0-4.0-8.165","false","166","2.3499999999999988","","",""
"3377.100000023842","2","confid","","","html-slider-response","1477","1402944","0.0-4.0-10.165-0.165","","","","Rate your confidence","1",""
"622.9000000953674","e","choice","left","e","experimental","1484","1405421","0.0-4.0-8.166","true","167","2.449999999999999","","",""
"3593","2","confid","","","html-slider-response","1486","1409524","0.0-4.0-10.166-0.166","","","","Rate your confidence","1",""
"687.3999999761581","e","choice","right","i","experimental","1493","1412051","0.0-4.0-8.167","false","168","2.449999999999999","","",""
"2778.399999976158","4","confid","","","html-slider-response","1495","1415343","0.0-4.0-10.167-0.167","","","","Rate your confidence","1",""
"728.9000000953674","i","choice","right","i","experimental","1502","1417903","0.0-4.0-8.168","true","169","2.549999999999999","","",""
"5546.599999904633","2","confid","","","html-slider-response","1504","1423963","0.0-4.0-10.168-0.168","","","","Rate your confidence","1",""
"535.8000000715256","e","choice","left","e","experimental","1511","1426375","0.0-4.0-8.169","true","170","2.549999999999999","","",""
"5143.600000023842","2","confid","","","html-slider-response","1513","1432026","0.0-4.0-10.169-0.169","","","","Rate your confidence","1",""
"576.1000000238419","i","choice","left","e","experimental","1520","1434489","0.0-4.0-8.170","false","171","2.449999999999999","","",""
"9645.900000095367","2","confid","","","html-slider-response","1522","1444652","0.0-4.0-10.170-0.170","","","","Rate your confidence","1",""
"981.8999999761581","e","choice","right","i","experimental","1529","1447464","0.0-4.0-8.171","false","172","2.549999999999999","","",""
"3784","2","confid","","","html-slider-response","1531","1451764","0.0-4.0-10.171-0.171","","","","Rate your confidence","1",""
"513.5","e","choice","left","e","experimental","1538","1454111","0.0-4.0-8.172","true","173","2.649999999999999","","",""
"3880.3000000715256","2","confid","","","html-slider-response","1540","1458504","0.0-4.0-10.172-0.172","","","","Rate your confidence","1",""
"636.3000000715256","i","choice","right","i","experimental","1547","1460993","0.0-4.0-8.173","true","174","2.649999999999999","","",""
"2876.600000023842","3","confid","","","html-slider-response","1549","1464378","0.0-4.0-10.173-0.173","","","","Rate your confidence","1",""
"568","i","choice","right","i","experimental","1556","1466821","0.0-4.0-8.174","true","175","2.549999999999999","","",""
"5563.399999976158","2","confid","","","html-slider-response","1558","1472900","0.0-4.0-10.174-0.174","","","","Rate your confidence","1",""
"559.1000000238419","e","choice","left","e","experimental","1565","1475288","0.0-4.0-8.175","true","176","2.549999999999999","","",""
"4830.899999976158","3","confid","","","html-slider-response","1567","1480628","0.0-4.0-10.175-0.175","","","","Rate your confidence","1",""
"637.3000000715256","i","choice","right","i","experimental","1574","1483147","0.0-4.0-8.176","true","177","2.449999999999999","","",""
"3447","2","confid","","","html-slider-response","1576","1487109","0.0-4.0-10.176-0.176","","","","Rate your confidence","1",""
"633.1999999284744","e","choice","left","e","experimental","1583","1489582","0.0-4.0-8.177","true","178","2.449999999999999","","",""
"5235.5","2","confid","","","html-slider-response","1585","1495330","0.0-4.0-10.177-0.177","","","","Rate your confidence","1",""
"438.5","e","choice","left","e","experimental","1592","1497613","0.0-4.0-8.178","true","179","2.3499999999999988","","",""
"5175.399999976158","3","confid","","","html-slider-response","1594","1503301","0.0-4.0-10.178-0.178","","","","Rate your confidence","1",""
"341.89999997615814","i","choice","right","i","experimental","1601","1505523","0.0-4.0-8.179","true","180","2.3499999999999988","","",""
"2559.100000023842","3","confid","","","html-slider-response","1603","1508594","0.0-4.0-10.179-0.179","","","","Rate your confidence","1",""
"737.1999999284744","e","choice","right","i","experimental","1610","1511164","0.0-4.0-8.180","false","181","2.2499999999999987","","",""
"3831.5","2","confid","","","html-slider-response","1612","1515507","0.0-4.0-10.180-0.180","","","","Rate your confidence","1",""
"513.0999999046326","e","choice","left","e","experimental","1619","1517869","0.0-4.0-8.181","true","182","2.3499999999999988","","",""
"4558.700000047684","1","confid","","","html-slider-response","1621","1522939","0.0-4.0-10.181-0.181","","","","Rate your confidence","1",""
"349","i","choice","right","i","experimental","1628","1525226","0.0-4.0-8.182","true","183","2.3499999999999988","","",""
"5626.200000047684","1","confid","","","html-slider-response","1630","1531362","0.0-4.0-10.182-0.182","","","","Rate your confidence","1",""
"385.7000000476837","e","choice","left","e","experimental","1637","1533632","0.0-4.0-8.183","true","184","2.2499999999999987","","",""
"3085.7999999523163","3","confid","","","html-slider-response","1639","1537227","0.0-4.0-10.183-0.183","","","","Rate your confidence","1",""
"445","e","choice","left","e","experimental","1646","1539549","0.0-4.0-8.184","true","185","2.2499999999999987","","",""
"5594.899999976158","3","confid","","","html-slider-response","1648","1545656","0.0-4.0-10.184-0.184","","","","Rate your confidence","1",""
"867","e","choice","right","i","experimental","1655","1548361","0.0-4.0-8.185","false","186","2.1499999999999986","","",""
"3080.5","2","confid","","","html-slider-response","1657","1551991","0.0-4.0-10.185-0.185","","","","Rate your confidence","1",""
"482","e","choice","left","e","experimental","1664","1554309","0.0-4.0-8.186","true","187","2.2499999999999987","","",""
"4613.700000047684","3","confid","","","html-slider-response","1666","1559434","0.0-4.0-10.186-0.186","","","","Rate your confidence","1",""
"322.10000002384186","i","choice","right","i","experimental","1673","1561647","0.0-4.0-8.187","true","188","2.2499999999999987","","",""
"5337.200000047684","3","confid","","","html-slider-response","1675","1567494","0.0-4.0-10.187-0.187","","","","Rate your confidence","1",""
"451.7000000476837","e","choice","left","e","experimental","1682","1569822","0.0-4.0-8.188","true","189","2.1499999999999986","","",""
"3451.899999976158","4","confid","","","html-slider-response","1684","1573785","0.0-4.0-10.188-0.188","","","","Rate your confidence","1",""
"587.2000000476837","i","choice","right","i","experimental","1691","1576266","0.0-4.0-8.189","true","190","2.1499999999999986","","",""
"3261.7000000476837","2","confid","","","html-slider-response","1693","1580041","0.0-4.0-10.189-0.189","","","","Rate your confidence","1",""
"416.89999997615814","i","choice","left","e","experimental","1700","1582281","0.0-4.0-8.190","false","191","2.0499999999999985","","",""
"13999.700000047684","2","confid","","","html-slider-response","1702","1596807","0.0-4.0-10.190-0.190","","","","Rate your confidence","1",""
"310.89999997615814","i","choice","right","i","experimental","1709","1598964","0.0-4.0-8.191","true","192","2.1499999999999986","","",""
"4784.100000023842","2","confid","","","html-slider-response","1711","1604259","0.0-4.0-10.191-0.191","","","","Rate your confidence","1",""
"340.8000000715256","i","choice","left","e","experimental","1718","1606505","0.0-4.0-8.192","false","193","2.1499999999999986","","",""
"7313.200000047684","1","confid","","","html-slider-response","1720","1614330","0.0-4.0-10.192-0.192","","","","Rate your confidence","1",""
"399.09999990463257","i","choice","right","i","experimental","1727","1616621","0.0-4.0-8.193","true","194","2.2499999999999987","","",""
"2860.6999999284744","2","confid","","","html-slider-response","1729","1619998","0.0-4.0-10.193-0.193","","","","Rate your confidence","1","13231"
