"rt","response","task","target_side","correct_response","trial_type","trial_index","time_elapsed","internal_node_id","correct","trial_number","n_dots","stimulus","slider_start","participant"
"491.2000000476837","i","choice","right","i","practice","10","78150","0.0-4.0-8.0","true","1","4.25","","",""
"351.60000002384186","e","choice","left","e","practice","18","80842","0.0-4.0-8.1","true","2","4.25","","",""
"327.8000000715256","i","choice","right","i","practice","26","83474","0.0-4.0-8.2","true","3","3.85","","",""
"323.3000000715256","i","choice","left","e","practice","34","86095","0.0-4.0-8.3","false","4","3.85","","",""
"345.60000002384186","i","choice","right","i","practice","42","88741","0.0-4.0-8.4","true","5","4.25","","",""
"274.7000000476837","e","choice","left","e","practice","50","91351","0.0-4.0-8.5","true","6","4.25","","",""
"275.8000000715256","e","choice","left","e","practice","58","93928","0.0-4.0-8.6","true","7","4.05","","",""
"274.7000000476837","i","choice","right","i","practice","66","96544","0.0-4.0-8.7","true","8","4.05","","",""
"611.7999999523163","e","choice","left","e","practice","74","99439","0.0-4.0-8.8","true","9","3.8499999999999996","","",""
"438.3000000715256","i","choice","right","i","practice","82","102205","0.0-4.0-8.9","true","10","3.8499999999999996","","",""
"671.6999999284744","e","choice","right","i","practice","90","105205","0.0-4.0-8.10","false","11","3.6499999999999995","","",""
"530.3999999761581","e","choice","left","e","practice","98","108063","0.0-4.0-8.11","true","12","3.7499999999999996","","",""
"566.0999999046326","e","choice","right","i","practice","106","110963","0.0-4.0-8.12","false","13","3.7499999999999996","","",""
"334.8000000715256","e","choice","left","e","practice","114","113592","0.0-4.0-8.13","true","14","3.8499999999999996","","",""
"396.39999997615814","i","choice","right","i","practice","122","116319","0.0-4.0-8.14","true","15","3.8499999999999996","","",""
"391.60000002384186","e","choice","left","e","practice","130","119043","0.0-4.0-8.15","true","16","3.7499999999999996","","",""
"346.5","e","choice","left","e","practice","138","121688","0.0-4.0-8.16","true","17","3.7499999999999996","","",""
"362.3000000715256","i","choice","right","i","practice","146","124381","0.0-4.0-8.17","true","18","3.6499999999999995","","",""
"484.39999997615814","e","choice","left","e","practice","154","127188","0.0-4.0-8.18","true","19","3.6499999999999995","","",""
"407.8000000715256","i","choice","right","i","practice","162","129893","0.0-4.0-8.19","true","20","3.5499999999999994","","",""
"354","i","choice","right","i","practice","170","132574","0.0-4.0-8.20","true","21","3.5499999999999994","","",""
"599.7000000476837","e","choice","left","e","practice","178","135503","0.0-4.0-8.21","true","22","3.4499999999999993","","",""
"611.8999999761581","i","choice","right","i","practice","186","138415","0.0-4.0-8.22","true","23","3.4499999999999993","","",""
"645.3999999761581","e","choice","left","e","practice","194","141387","0.0-4.0-8.23","true","24","3.349999999999999","","",""
"590.1000000238419","i","choice","right","i","practice","202","144284","0.0-4.0-8.24","true","25","3.349999999999999","","",""
"520.8999999761581","e","choice","left","e","practice","210","147139","0.0-4.0-8.25","true","26","3.249999999999999","","",""
"358.7000000476837","e","choice","right","i","experimental","221","167355","0.0-4.0-8.26","false","27","3.249999999999999","","",""
"3739.4000000953674","4","confid","","","html-slider-response","223","171602","0.0-4.0-10.26-0.26","","","","Rate your confidence","1",""
"210.60000002384186","e","choice","left","e","experimental","230","173609","0.0-4.0-8.27","true","28","3.349999999999999","","",""
"2347.5","4","confid","","","html-slider-response","232","176464","0.0-4.0-10.27-0.27","","","","Rate your confidence","1",""
"376.7999999523163","e","choice","left","e","experimental","239","178669","0.0-4.0-8.28","true","29","3.349999999999999","","",""
"2092.7000000476837","4","confid","","","html-slider-response","241","181267","0.0-4.0-10.28-0.28","","","","Rate your confidence","1",""
"379","e","choice","right","i","experimental","248","183474","0.0-4.0-8.29","false","30","3.249999999999999","","",""
"2457.600000023842","3","confid","","","html-slider-response","250","186439","0.0-4.0-10.29-0.29","","","","Rate your confidence","1",""
"860.6999999284744","i","choice","left","e","experimental","257","189100","0.0-4.0-8.30","false","31","3.349999999999999","","",""
"2598.5","2","confid","","","html-slider-response","259","192233","0.0-4.0-10.30-0.30","","","","Rate your confidence","1",""
"429.60000002384186","e","choice","right","i","experimental","266","194454","0.0-4.0-8.31","false","32","3.4499999999999993","","",""
"2506.5","4","confid","","","html-slider-response","268","197467","0.0-4.0-10.31-0.31","","","","Rate your confidence","1",""
"347.5","e","choice","right","i","experimental","275","199646","0.0-4.0-8.32","false","33","3.5499999999999994","","",""
"1856.7999999523163","2","confid","","","html-slider-response","277","202010","0.0-4.0-10.32-0.32","","","","Rate your confidence","1",""
"295.90000009536743","e","choice","left","e","experimental","284","204107","0.0-4.0-8.33","true","34","3.6499999999999995","","",""
"2426.1999999284744","3","confid","","","html-slider-response","286","207042","0.0-4.0-10.33-0.33","","","","Rate your confidence","1",""
"512.8999999761581","e","choice","right","i","experimental","293","209355","0.0-4.0-8.34","false","35","3.6499999999999995","","",""
"3185.8000000715256","4","confid","","","html-slider-response","295","213049","0.0-4.0-10.34-0.34","","","","Rate your confidence","1",""
"317.60000002384186","e","choice","left","e","experimental","302","215191","0.0-4.0-8.35","true","36","3.7499999999999996","","",""
"2455","2","confid","","","html-slider-response","304","218149","0.0-4.0-10.35-0.35","","","","Rate your confidence","1",""
"396.10000002384186","i","choice","right","i","experimental","311","220376","0.0-4.0-8.36","true","37","3.7499999999999996","","",""
"20144.299999952316","2","confid","","","html-slider-response","313","241027","0.0-4.0-10.36-0.36","","","","Rate your confidence","1",""
"236.60000002384186","e","choice","left","e","experimental","320","243064","0.0-4.0-8.37","true","38","3.6499999999999995","","",""
"2594.899999976158","4","confid","","","html-slider-response","322","246193","0.0-4.0-10.37-0.37","","","","Rate your confidence","1",""
"325.59999990463257","e","choice","left","e","experimental","329","248320","0.0-4.0-8.38","true","39","3.6499999999999995","","",""
"5630","4","confid","","","html-slider-response","331","254456","0.0-4.0-10.38-0.38","","","","Rate your confidence","1",""
"217.5","i","choice","right","i","experimental","338","256506","0.0-4.0-8.39","true","40","3.5499999999999994","","",""
"2679.9000000953674","5","confid","","","html-slider-response","340","259692","0.0-4.0-10.39-0.39","","","","Rate your confidence","1",""
"1513.5","i","choice","right","i","experimental","347","263051","0.0-4.0-8.40","true","41","3.5499999999999994","","",""
"1881.6000000238419","4","confid","","","html-slider-response","349","265439","0.0-4.0-10.40-0.40","","","","Rate your confidence","1",""
"432.8000000715256","e","choice","left","e","experimental","356","267671","0.0-4.0-8.41","true","42","3.4499999999999993","","",""
"2183","3","confid","","","html-slider-response","358","270361","0.0-4.0-10.41-0.41","","","","Rate your confidence","1",""
"296.7000000476837","i","choice","right","i","experimental","365","272460","0.0-4.0-8.42","true","43","3.4499999999999993","","",""
"2745.2000000476837","4","confid","","","html-slider-response","367","275710","0.0-4.0-10.42-0.42","","","","Rate your confidence","1",""
"230.10000002384186","e","choice","left","e","experimental","374","277738","0.0-4.0-8.43","true","44","3.349999999999999","","",""
"2164.2000000476837","4","confid","","","html-slider-response","376","280409","0.0-4.0-10.43-0.43","","","","Rate your confidence","1",""
"399.39999997615814","i","choice","left","e","experimental","383","282635","0.0-4.0-8.44","false","45","3.349999999999999","","",""
"4058.7000000476837","2","confid","","","html-slider-response","385","287201","0.0-4.0-10.44-0.44","","","","Rate your confidence","1",""
"461.5","i","choice","right","i","experimental","392","289498","0.0-4.0-8.45","true","46","3.4499999999999993","","",""
"3681.2000000476837","3","confid","","","html-slider-response","394","293687","0.0-4.0-10.45-0.45","","","","Rate your confidence","1",""
"286.5","e","choice","left","e","experimental","401","295803","0.0-4.0-8.46","true","47","3.4499999999999993","","",""
"4386.299999952316","3","confid","","","html-slider-response","403","300699","0.0-4.0-10.46-0.46","","","","Rate your confidence","1",""
"188.59999990463257","i","choice","right","i","experimental","410","302715","0.0-4.0-8.47","true","48","3.349999999999999","","",""
"4755.100000023842","4","confid","","","html-slider-response","412","307977","0.0-4.0-10.47-0.47","","","","Rate your confidence","1",""
"250.09999990463257","i","choice","right","i","experimental","419","310029","0.0-4.0-8.48","true","49","3.349999999999999","","",""
"2287.7000000476837","4","confid","","","html-slider-response","421","312823","0.0-4.0-10.48-0.48","","","","Rate your confidence","1",""
"344.89999997615814","e","choice","left","e","experimental","428","314968","0.0-4.0-8.49","true","50","3.249999999999999","","",""
"2624.7000000476837","2","confid","","","html-slider-response","430","318099","0.0-4.0-10.49-0.49","","","","Rate your confidence","1",""
"305.10000002384186","i","choice","right","i","experimental","437","320232","0.0-4.0-8.50","true","51","3.249999999999999","","",""
"2532.5999999046326","3","confid","","","html-slider-response","439","323272","0.0-4.0-10.50-0.50","","","","Rate your confidence","1",""
"86.60000002384186","e","choice","left","e","experimental","446","325188","0.0-4.0-8.51","true","52","3.149999999999999","","",""
"3108.3000000715256","4","confid","","","html-slider-response","448","328802","0.0-4.0-10.51-0.51","","","","Rate your confidence","1",""
"198.69999992847443","e","choice","right","i","experimental","455","330800","0.0-4.0-8.52","false","53","3.149999999999999","","",""
"2377.399999976158","3","confid","","","html-slider-response","457","333684","0.0-4.0-10.52-0.52","","","","Rate your confidence","1",""
"144.20000004768372","e","choice","left","e","experimental","464","335630","0.0-4.0-8.53","true","54","3.249999999999999","","",""
"2533.2000000476837","3","confid","","","html-slider-response","466","338674","0.0-4.0-10.53-0.53","","","","Rate your confidence","1",""
"559.9000000953674","e","choice","left","e","experimental","473","341065","0.0-4.0-8.54","true","55","3.249999999999999","","",""
"3414.899999976158","3","confid","","","html-slider-response","475","344988","0.0-4.0-10.54-0.54","","","","Rate your confidence","1",""
"363.2999999523163","e","choice","right","i","experimental","482","347187","0.0-4.0-8.55","false","56","3.149999999999999","","",""
"2049.5","2","confid","","","html-slider-response","484","349744","0.0-4.0-10.55-0.55","","","","Rate your confidence","1",""
"125","e","choice","left","e","experimental","491","351670","0.0-4.0-8.56","true","57","3.249999999999999","","",""
"2968.600000023842","3","confid","","","html-slider-response","493","355145","0.0-4.0-10.56-0.56","","","","Rate your confidence","1",""
"324.59999990463257","i","choice","right","i","experimental","500","357273","0.0-4.0-8.57","true","58","3.249999999999999","","",""
"3706","3","confid","","","html-slider-response","502","361486","0.0-4.0-10.57-0.57","","","","Rate your confidence","1",""
"189","i","choice","right","i","experimental","509","363502","0.0-4.0-8.58","true","59","3.149999999999999","","",""
"2533.2999999523163","3","confid","","","html-slider-response","511","366543","0.0-4.0-10.58-0.58","","","","Rate your confidence","1",""
"309.8000000715256","e","choice","left","e","experimental","518","368679","0.0-4.0-8.59","true","60","3.149999999999999","","",""
"4207","4","confid","","","html-slider-response","520","373395","0.0-4.0-10.59-0.59","","","","Rate your confidence","1",""
"334.7000000476837","i","choice","right","i","experimental","527","375531","0.0-4.0-8.60","true","61","3.049999999999999","","",""
"3924.600000023842","2","confid","","","html-slider-response","529","379963","0.0-4.0-10.60-0.60","","","","Rate your confidence","1",""
"285.39999997615814","e","choice","left","e","experimental","536","382082","0.0-4.0-8.61","true","62","3.049999999999999","","",""
"2899.100000023842","3","confid","","","html-slider-response","538","385489","0.0-4.0-10.61-0.61","","","","Rate your confidence","1",""
"300.10000002384186","i","choice","left","e","experimental","545","387591","0.0-4.0-8.62","false","63","2.949999999999999","","",""
"2572.100000023842","3","confid","","","html-slider-response","547","390669","0.0-4.0-10.62-0.62","","","","Rate your confidence","1",""
"373.1999999284744","e","choice","right","i","experimental","554","392844","0.0-4.0-8.63","false","64","3.049999999999999","","",""
"3081.2999999523163","2","confid","","","html-slider-response","556","396431","0.0-4.0-10.63-0.63","","","","Rate your confidence","1",""
"742.3999999761581","e","choice","right","i","experimental","563","399006","0.0-4.0-8.64","false","65","3.149999999999999","","",""
"2197.6999999284744","1","confid","","","html-slider-response","565","401711","0.0-4.0-10.64-0.64","","","","Rate your confidence","1",""
"328.7000000476837","i","choice","left","e","experimental","572","403874","0.0-4.0-8.65","false","66","3.249999999999999","","",""
"21886","3","confid","","","html-slider-response","574","426266","0.0-4.0-10.65-0.65","","","","Rate your confidence","1",""
"329.40000009536743","i","choice","right","i","experimental","581","428428","0.0-4.0-8.66","true","67","3.349999999999999","","",""
"2997.5","2","confid","","","html-slider-response","583","431933","0.0-4.0-10.66-0.66","","","","Rate your confidence","1",""
"258.5","e","choice","left","e","experimental","590","433994","0.0-4.0-8.67","true","68","3.349999999999999","","",""
"2493.399999976158","5","confid","","","html-slider-response","592","436994","0.0-4.0-10.67-0.67","","","","Rate your confidence","1",""
"1155.8000000715256","i","choice","right","i","experimental","600","443508","0.0-4.0-8.68","true","69","3.249999999999999","","",""
"2719.899999976158","3","confid","","","html-slider-response","602","446735","0.0-4.0-10.68-0.68","","","","Rate your confidence","1",""
"339.7999999523163","e","choice","left","e","experimental","609","448875","0.0-4.0-8.69","true","70","3.249999999999999","","",""
"2831.600000023842","2","confid","","","html-slider-response","611","452215","0.0-4.0-10.69-0.69","","","","Rate your confidence","1",""
"195.5","e","choice","left","e","experimental","618","454246","0.0-4.0-8.70","true","71","3.149999999999999","","",""
"3129.5","3","confid","","","html-slider-response","620","457882","0.0-4.0-10.70-0.70","","","","Rate your confidence","1",""
"276.6999999284744","i","choice","right","i","experimental","627","459961","0.0-4.0-8.71","true","72","3.149999999999999","","",""
"3858.100000023842","2","confid","","","html-slider-response","629","464357","0.0-4.0-10.71-0.71","","","","Rate your confidence","1",""
"320.60000002384186","i","choice","right","i","experimental","636","466482","0.0-4.0-8.72","true","73","3.049999999999999","","",""
"23081.399999976158","2","confid","","","html-slider-response","638","490071","0.0-4.0-10.72-0.72","","","","Rate your confidence","1",""
"233.10000002384186","i","choice","left","e","experimental","645","492126","0.0-4.0-8.73","false","74","3.049999999999999","","",""
"2859.2000000476837","3","confid","","","html-slider-response","647","495493","0.0-4.0-10.73-0.73","","","","Rate your confidence","1",""
"186.29999995231628","e","choice","right","i","experimental","654","497513","0.0-4.0-8.74","false","75","3.149999999999999","","",""
"2701.2999999523163","2","confid","","","html-slider-response","656","500722","0.0-4.0-10.74-0.74","","","","Rate your confidence","1",""
"159.10000002384186","e","choice","left","e","experimental","663","502712","0.0-4.0-8.75","true","76","3.249999999999999","","",""
"3881.899999976158","3","confid","","","html-slider-response","665","507101","0.0-4.0-10.75-0.75","","","","Rate your confidence","1",""
"124.59999990463257","e","choice","left","e","experimental","672","509027","0.0-4.0-8.76","true","77","3.249999999999999","","",""
"3152.8000000715256","3","confid","","","html-slider-response","674","512687","0.0-4.0-10.76-0.76","","","","Rate your confidence","1",""
"249.20000004768372","i","choice","right","i","experimental","681","514737","0.0-4.0-8.77","true","78","3.149999999999999","","",""
"2698.399999976158","4","confid","","","html-slider-response","683","517942","0.0-4.0-10.77-0.77","","","","Rate your confidence","1",""
"394.60000002384186","i","choice","right","i","experimental","690","520141","0.0-4.0-8.78","true","79","3.149999999999999","","",""
"2742.7000000476837","2","confid","","","html-slider-response","692","523391","0.0-4.0-10.78-0.78","","","","Rate your confidence","1",""
"87.89999997615814","e","choice","left","e","experimental","699","525306","0.0-4.0-8.79","true","80","3.049999999999999","","",""
"3272.7000000476837","3","confid","","","html-slider-response","701","529086","0.0-4.0-10.79-0.79","","","","Rate your confidence","1",""
"303.60000002384186","i","choice","right","i","experimental","708","531224","0.0-4.0-8.80","true","81","3.049999999999999","","",""
"2732.100000023842","4","confid","","","html-slider-response","710","534463","0.0-4.0-10.80-0.80","","","","Rate your confidence","1",""
"333.39999997615814","e","choice","left","e","experimental","717","536598","0.0-4.0-8.81","true","82","2.949999999999999","","",""
"2989.2000000476837","3","confid","","","html-slider-response","719","540124","0.0-4.0-10.81-0.81","","","","Rate your confidence","1",""
"520.2999999523163","i","choice","right","i","experimental","726","542444","0.0-4.0-8.82","true","83","2.949999999999999","","",""
"3772.1999999284744","2","confid","","","html-slider-response","728","546724","0.0-4.0-10.82-0.82","","","","Rate your confidence","1",""
"215.10000002384186","e","choice","left","e","experimental","735","548767","0.0-4.0-8.83","true","84","2.8499999999999988","","",""
"2157.899999976158","3","confid","","","html-slider-response","737","551433","0.0-4.0-10.83-0.83","","","","Rate your confidence","1",""
"149.09999990463257","i","choice","left","e","experimental","744","553383","0.0-4.0-8.84","false","85","2.8499999999999988","","",""
"3197.8000000715256","2","confid","","","html-slider-response","746","557117","0.0-4.0-10.84-0.84","","","","Rate your confidence","1",""
"1018.3999999761581","i","choice","right","i","experimental","753","559938","0.0-4.0-8.85","true","86","2.949999999999999","","",""
"3265.899999976158","2","confid","","","html-slider-response","755","563712","0.0-4.0-10.85-0.85","","","","Rate your confidence","1",""
"137.60000002384186","i","choice","left","e","experimental","762","565654","0.0-4.0-8.86","false","87","2.949999999999999","","",""
"1962.0999999046326","3","confid","","","html-slider-response","764","568123","0.0-4.0-10.86-0.86","","","","Rate your confidence","1",""
"322.10000002384186","e","choice","right","i","experimental","771","570278","0.0-4.0-8.87","false","88","3.049999999999999","","",""
"2724.600000023842","3","confid","","","html-slider-response","773","573511","0.0-4.0-10.87-0.87","","","","Rate your confidence","1",""
"733.8999999761581","i","choice","right","i","experimental","780","576049","0.0-4.0-8.88","true","89","3.149999999999999","","",""
"2420.7000000476837","4","confid","","","html-slider-response","782","578977","0.0-4.0-10.88-0.88","","","","Rate your confidence","1",""
"378.5","i","choice","left","e","experimental","789","581158","0.0-4.0-8.89","false","90","3.149999999999999","","",""
"2544.600000023842","4","confid","","","html-slider-response","791","584210","0.0-4.0-10.89-0.89","","","","Rate your confidence","1",""
"239.39999997615814","e","choice","left","e","experimental","798","586257","0.0-4.0-8.90","true","91","3.249999999999999","","",""
"2849.2000000476837","4","confid","","","html-slider-response","800","589613","0.0-4.0-10.90-0.90","","","","Rate your confidence","1",""
"45.5","i","choice","right","i","experimental","807","591461","0.0-4.0-8.91","true","92","3.249999999999999","","",""
"2110.2999999523163","5","confid","","","html-slider-response","809","594079","0.0-4.0-10.91-0.91","","","","Rate your confidence","1",""
"279.2000000476837","e","choice","left","e","experimental","816","596186","0.0-4.0-8.92","true","93","3.149999999999999","","",""
"2274.7999999523163","4","confid","","","html-slider-response","818","598968","0.0-4.0-10.92-0.92","","","","Rate your confidence","1",""
"357.39999997615814","i","choice","right","i","experimental","825","601156","0.0-4.0-8.93","true","94","3.149999999999999","","",""
"3158.2999999523163","4","confid","","","html-slider-response","827","604822","0.0-4.0-10.93-0.93","","","","Rate your confidence","1",""
"446.3000000715256","e","choice","left","e","experimental","834","607073","0.0-4.0-8.94","true","95","3.049999999999999","","",""
"2725.399999976158","4","confid","","","html-slider-response","836","610335","0.0-4.0-10.94-0.94","","","","Rate your confidence","1",""
"2295.5999999046326","i","choice","right","i","experimental","843","614434","0.0-4.0-8.95","true","96","3.049999999999999","","",""
"4273.200000047684","4","confid","","","html-slider-response","845","619214","0.0-4.0-10.95-0.95","","","","Rate your confidence","1",""
"323.10000002384186","e","choice","left","e","experimental","852","621360","0.0-4.0-8.96","true","97","2.949999999999999","","",""
"5608.699999928474","4","confid","","","html-slider-response","854","627477","0.0-4.0-10.96-0.96","","","","Rate your confidence","1",""
"359.39999997615814","i","choice","right","i","experimental","861","629666","0.0-4.0-8.97","true","98","2.949999999999999","","",""
"3512.600000023842","4","confid","","","html-slider-response","863","633684","0.0-4.0-10.97-0.97","","","","Rate your confidence","1",""
"264","i","choice","left","e","experimental","870","635749","0.0-4.0-8.98","false","99","2.8499999999999988","","",""
"2423.7000000476837","3","confid","","","html-slider-response","872","638678","0.0-4.0-10.98-0.98","","","","Rate your confidence","1",""
"149.70000004768372","i","choice","right","i","experimental","879","640630","0.0-4.0-8.99","true","100","2.949999999999999","","",""
"3743","2","confid","","","html-slider-response","881","644884","0.0-4.0-10.99-0.99","","","","Rate your confidence","1",""
"322","i","choice","right","i","experimental","888","647033","0.0-4.0-8.100","true","101","2.949999999999999","","",""
"4541.200000047684","3","confid","","","html-slider-response","890","652082","0.0-4.0-10.100-0.100","","","","Rate your confidence","1",""
"290.89999997615814","e","choice","left","e","experimental","897","654175","0.0-4.0-8.101","true","102","2.8499999999999988","","",""
"2798.5999999046326","4","confid","","","html-slider-response","899","657482","0.0-4.0-10.101-0.101","","","","Rate your confidence","1",""
"497.7000000476837","i","choice","left","e","experimental","906","659782","0.0-4.0-8.102","false","103","2.8499999999999988","","",""
"5913.800000071526","2","confid","","","html-slider-response","908","666203","0.0-4.0-10.102-0.102","","","","Rate your confidence","1",""
"290.39999997615814","i","choice","right","i","experimental","915","668327","0.0-4.0-8.103","true","104","2.949999999999999","","",""
"2954.8000000715256","3","confid","","","html-slider-response","917","671789","0.0-4.0-10.103-0.103","","","","Rate your confidence","1",""
"307","i","choice","left","e","experimental","924","673901","0.0-4.0-8.104","false","105","2.949999999999999","","",""
"3940.5","2","confid","","","html-slider-response","926","678349","0.0-4.0-10.104-0.104","","","","Rate your confidence","1",""
"247.39999997615814","i","choice","right","i","experimental","933","680399","0.0-4.0-8.105","true","106","3.049999999999999","","",""
"2418.3000000715256","4","confid","","","html-slider-response","935","683326","0.0-4.0-10.105-0.105","","","","Rate your confidence","1",""
"135.40000009536743","i","choice","right","i","experimental","942","685285","0.0-4.0-8.106","true","107","3.049999999999999","","",""
"4590","3","confid","","","html-slider-response","944","690380","0.0-4.0-10.106-0.106","","","","Rate your confidence","1",""
"68.20000004768372","e","choice","left","e","experimental","951","692284","0.0-4.0-8.107","true","108","2.949999999999999","","",""
"6874.899999976158","2","confid","","","html-slider-response","953","699667","0.0-4.0-10.107-0.107","","","","Rate your confidence","1",""
"89.89999997615814","e","choice","left","e","experimental","960","701565","0.0-4.0-8.108","true","109","2.949999999999999","","",""
"3679.600000023842","3","confid","","","html-slider-response","962","705751","0.0-4.0-10.108-0.108","","","","Rate your confidence","1",""
"314","i","choice","right","i","experimental","969","707868","0.0-4.0-8.109","true","110","2.8499999999999988","","",""
"2851.7000000476837","1","confid","","","html-slider-response","971","711226","0.0-4.0-10.109-0.109","","","","Rate your confidence","1",""
"1165.6000000238419","e","choice","left","e","experimental","979","823576","0.0-4.0-8.110","true","111","2.8499999999999988","","",""
"3156.100000023842","3","confid","","","html-slider-response","981","827238","0.0-4.0-10.110-0.110","","","","Rate your confidence","1",""
"278.5","i","choice","right","i","experimental","988","829340","0.0-4.0-8.111","true","112","2.7499999999999987","","",""
"3315.2999999523163","3","confid","","","html-slider-response","990","833162","0.0-4.0-10.111-0.111","","","","Rate your confidence","1",""
"82.09999990463257","e","choice","left","e","experimental","997","835082","0.0-4.0-8.112","true","113","2.7499999999999987","","",""
"2487.899999976158","2","confid","","","html-slider-response","999","838077","0.0-4.0-10.112-0.112","","","","Rate your confidence","1",""
"201.80000007152557","i","choice","right","i","experimental","1006","840087","0.0-4.0-8.113","true","114","2.6499999999999986","","",""
"3173.399999976158","4","confid","","","html-slider-response","1008","843767","0.0-4.0-10.113-0.113","","","","Rate your confidence","1",""
"100.5","e","choice","right","i","experimental","1015","845668","0.0-4.0-8.114","false","115","2.6499999999999986","","",""
"3298.100000023842","3","confid","","","html-slider-response","1017","849473","0.0-4.0-10.114-0.114","","","","Rate your confidence","1",""
"473.1999999284744","e","choice","left","e","experimental","1024","851750","0.0-4.0-8.115","true","116","2.7499999999999987","","",""
"2834.5","2","confid","","","html-slider-response","1026","855092","0.0-4.0-10.115-0.115","","","","Rate your confidence","1",""
"29.100000023841858","e","choice","left","e","experimental","1033","856950","0.0-4.0-8.116","true","117","2.7499999999999987","","",""
"5424.799999952316","5","confid","","","html-slider-response","1035","862882","0.0-4.0-10.116-0.116","","","","Rate your confidence","1",""
"266.5","i","choice","right","i","experimental","1042","864988","0.0-4.0-8.117","true","118","2.6499999999999986","","",""
"1889.6000000238419","4","confid","","","html-slider-response","1044","867386","0.0-4.0-10.117-0.117","","","","Rate your confidence","1",""
"289.1999999284744","i","choice","right","i","experimental","1051","869478","0.0-4.0-8.118","true","119","2.6499999999999986","","",""
"1714.8999999761581","3","confid","","","html-slider-response","1053","871703","0.0-4.0-10.118-0.118","","","","Rate your confidence","1",""
"62.799999952316284","e","choice","left","e","experimental","1060","873569","0.0-4.0-8.119","true","120","2.5499999999999985","","",""
"5404.700000047684","4","confid","","","html-slider-response","1062","879482","0.0-4.0-10.119-0.119","","","","Rate your confidence","1",""
"286.40000009536743","i","choice","right","i","experimental","1069","881597","0.0-4.0-8.120","true","121","2.5499999999999985","","",""
"2636.3000000715256","3","confid","","","html-slider-response","1071","884741","0.0-4.0-10.120-0.120","","","","Rate your confidence","1",""
"340.6999999284744","e","choice","left","e","experimental","1078","886879","0.0-4.0-8.121","true","122","2.4499999999999984","","",""
"2237","2","confid","","","html-slider-response","1080","889624","0.0-4.0-10.121-0.121","","","","Rate your confidence","1",""
"311.39999997615814","e","choice","right","i","experimental","1087","891774","0.0-4.0-8.122","false","123","2.4499999999999984","","",""
"2192.9000000953674","2","confid","","","html-slider-response","1089","894476","0.0-4.0-10.122-0.122","","","","Rate your confidence","1",""
"343.60000002384186","e","choice","left","e","experimental","1096","896622","0.0-4.0-8.123","true","124","2.5499999999999985","","",""
"2894","3","confid","","","html-slider-response","1098","900024","0.0-4.0-10.123-0.123","","","","Rate your confidence","1",""
"275.8000000715256","i","choice","right","i","experimental","1105","902103","0.0-4.0-8.124","true","125","2.5499999999999985","","",""
"2689.5999999046326","3","confid","","","html-slider-response","1107","905300","0.0-4.0-10.124-0.124","","","","Rate your confidence","1",""
"286","e","choice","left","e","experimental","1114","907421","0.0-4.0-8.125","true","126","2.4499999999999984","","",""
"34061.10000002384","2","confid","","","html-slider-response","1116","941991","0.0-4.0-10.125-0.125","","","","Rate your confidence","1",""
"160.60000002384186","e","choice","right","i","experimental","1123","943979","0.0-4.0-8.126","false","127","2.4499999999999984","","",""
"2874.4000000953674","2","confid","","","html-slider-response","1125","947363","0.0-4.0-10.126-0.126","","","","Rate your confidence","1",""
"26.700000047683716","e","choice","left","e","experimental","1132","949222","0.0-4.0-8.127","true","128","2.5499999999999985","","",""
"2521.2000000476837","2","confid","","","html-slider-response","1134","952252","0.0-4.0-10.127-0.127","","","","Rate your confidence","1",""
"136.19999992847443","e","choice","left","e","experimental","1141","954187","0.0-4.0-8.128","true","129","2.5499999999999985","","",""
"2831.0999999046326","3","confid","","","html-slider-response","1143","957528","0.0-4.0-10.128-0.128","","","","Rate your confidence","1",""
"116.10000002384186","i","choice","right","i","experimental","1150","959446","0.0-4.0-8.129","true","130","2.4499999999999984","","",""
"2821.8000000715256","3","confid","","","html-slider-response","1152","962805","0.0-4.0-10.129-0.129","","","","Rate your confidence","1",""
"215","i","choice","right","i","experimental","1159","964823","0.0-4.0-8.130","true","131","2.4499999999999984","","",""
"2573.0999999046326","3","confid","","","html-slider-response","1161","967904","0.0-4.0-10.130-0.130","","","","Rate your confidence","1",""
"100.89999997615814","i","choice","left","e","experimental","1168","969835","0.0-4.0-8.131","false","132","2.3499999999999983","","",""
"2715.7000000476837","3","confid","","","html-slider-response","1170","973058","0.0-4.0-10.131-0.131","","","","Rate your confidence","1",""
"204.80000007152557","i","choice","right","i","experimental","1177","975104","0.0-4.0-8.132","true","133","2.4499999999999984","","",""
"3954.100000023842","4","confid","","","html-slider-response","1179","979566","0.0-4.0-10.132-0.132","","","","Rate your confidence","1",""
"149.60000002384186","e","choice","left","e","experimental","1186","981519","0.0-4.0-8.133","true","134","2.4499999999999984","","",""
"2571.100000023842","2","confid","","","html-slider-response","1188","984599","0.0-4.0-10.133-0.133","","","","Rate your confidence","1",""
"269.89999997615814","i","choice","right","i","experimental","1195","986672","0.0-4.0-8.134","true","135","2.3499999999999983","","",""
"4005.899999976158","3","confid","","","html-slider-response","1197","991186","0.0-4.0-10.134-0.134","","","","Rate your confidence","1",""
"125.10000002384186","i","choice","left","e","experimental","1204","993141","0.0-4.0-8.135","false","136","2.3499999999999983","","",""
"2632.5","3","confid","","","html-slider-response","1206","996280","0.0-4.0-10.135-0.135","","","","Rate your confidence","1",""
"739","i","choice","right","i","experimental","1213","998859","0.0-4.0-8.136","true","137","2.4499999999999984","","",""
"2435.1999999284744","2","confid","","","html-slider-response","1215","1001803","0.0-4.0-10.136-0.136","","","","Rate your confidence","1",""
"286.09999990463257","e","choice","left","e","experimental","1222","1003896","0.0-4.0-8.137","true","138","2.4499999999999984","","",""
"3224.2000000476837","3","confid","","","html-slider-response","1224","1007627","0.0-4.0-10.137-0.137","","","","Rate your confidence","1",""
"513.3000000715256","e","choice","left","e","experimental","1231","1009938","0.0-4.0-8.138","true","139","2.3499999999999983","","",""
"4674.100000023842","3","confid","","","html-slider-response","1233","1015121","0.0-4.0-10.138-0.138","","","","Rate your confidence","1",""
"226.10000002384186","i","choice","right","i","experimental","1240","1017137","0.0-4.0-8.139","true","140","2.3499999999999983","","",""
"7142.899999976158","4","confid","","","html-slider-response","1242","1024789","0.0-4.0-10.139-0.139","","","","Rate your confidence","1",""
"156.60000002384186","e","choice","right","i","experimental","1249","1026783","0.0-4.0-8.140","false","141","2.2499999999999982","","",""
"3286.2000000476837","2","confid","","","html-slider-response","1251","1030577","0.0-4.0-10.140-0.140","","","","Rate your confidence","1",""
"332.10000002384186","e","choice","left","e","experimental","1258","1032716","0.0-4.0-8.141","true","142","2.3499999999999983","","",""
"3952.2999999523163","3","confid","","","html-slider-response","1260","1037175","0.0-4.0-10.141-0.141","","","","Rate your confidence","1",""
"166.79999995231628","i","choice","right","i","experimental","1267","1039141","0.0-4.0-8.142","true","143","2.3499999999999983","","",""
"4062.899999976158","4","confid","","","html-slider-response","1269","1043712","0.0-4.0-10.142-0.142","","","","Rate your confidence","1",""
"388.09999990463257","i","choice","left","e","experimental","1276","1045937","0.0-4.0-8.143","false","144","2.2499999999999982","","",""
"3339.600000023842","3","confid","","","html-slider-response","1278","1049784","0.0-4.0-10.143-0.143","","","","Rate your confidence","1",""
"243.79999995231628","e","choice","right","i","experimental","1285","1051832","0.0-4.0-8.144","false","145","2.3499999999999983","","",""
"3518.100000023842","4","confid","","","html-slider-response","1287","1055891","0.0-4.0-10.144-0.144","","","","Rate your confidence","1",""
"12.199999928474426","e","choice","left","e","experimental","1294","1057703","0.0-4.0-8.145","true","146","2.4499999999999984","","",""
"3667.899999976158","4","confid","","","html-slider-response","1296","1061878","0.0-4.0-10.145-0.145","","","","Rate your confidence","1",""
"246.29999995231628","i","choice","right","i","experimental","1303","1063957","0.0-4.0-8.146","true","147","2.4499999999999984","","",""
"2577.600000023842","2","confid","","","html-slider-response","1305","1067044","0.0-4.0-10.146-0.146","","","","Rate your confidence","1",""
"316.5","i","choice","left","e","experimental","1312","1069195","0.0-4.0-8.147","false","148","2.3499999999999983","","",""
"3684.7000000476837","3","confid","","","html-slider-response","1314","1073387","0.0-4.0-10.147-0.147","","","","Rate your confidence","1",""
"578.3000000715256","e","choice","left","e","experimental","1321","1075774","0.0-4.0-8.148","true","149","2.4499999999999984","","",""
"6506.299999952316","4","confid","","","html-slider-response","1323","1082784","0.0-4.0-10.148-0.148","","","","Rate your confidence","1",""
"67.29999995231628","e","choice","right","i","experimental","1330","1084651","0.0-4.0-8.149","false","150","2.4499999999999984","","",""
"2763.1999999284744","2","confid","","","html-slider-response","1332","1087923","0.0-4.0-10.149-0.149","","","","Rate your confidence","1",""
"46.299999952316284","e","choice","right","i","experimental","1339","1089774","0.0-4.0-8.150","false","151","2.5499999999999985","","",""
"2569.3000000715256","3","confid","","","html-slider-response","1341","1092850","0.0-4.0-10.150-0.150","","","","Rate your confidence","1",""
"454.39999997615814","e","choice","left","e","experimental","1348","1095107","0.0-4.0-8.151","true","152","2.6499999999999986","","",""
"2277.399999976158","3","confid","","","html-slider-response","1350","1097891","0.0-4.0-10.151-0.151","","","","Rate your confidence","1",""
"371.89999997615814","e","choice","right","i","experimental","1358","1106285","0.0-4.0-8.152","false","153","2.6499999999999986","","",""
"2872.2999999523163","3","confid","","","html-slider-response","1360","1109666","0.0-4.0-10.152-0.152","","","","Rate your confidence","1",""
"144.90000009536743","e","choice","left","e","experimental","1367","1111643","0.0-4.0-8.153","true","154","2.7499999999999987","","",""
"2015.6999999284744","2","confid","","","html-slider-response","1369","1114168","0.0-4.0-10.153-0.153","","","","Rate your confidence","1",""
"115.39999997615814","i","choice","right","i","experimental","1376","1116086","0.0-4.0-8.154","true","155","2.7499999999999987","","",""
"2389.899999976158","4","confid","","","html-slider-response","1378","1118984","0.0-4.0-10.154-0.154","","","","Rate your confidence","1",""
"135.40000009536743","e","choice","left","e","experimental","1385","1120921","0.0-4.0-8.155","true","156","2.6499999999999986","","",""
"1819.1000000238419","5","confid","","","html-slider-response","1387","1123260","0.0-4.0-10.155-0.155","","","","Rate your confidence","1",""
"508.2999999523163","e","choice","right","i","experimental","1394","1125573","0.0-4.0-8.156","false","157","2.6499999999999986","","",""
"2756.899999976158","2","confid","","","html-slider-response","1396","1128838","0.0-4.0-10.156-0.156","","","","Rate your confidence","1",""
"515","e","choice","left","e","experimental","1403","1131188","0.0-4.0-8.157","true","158","2.7499999999999987","","",""
"1884.5","4","confid","","","html-slider-response","1405","1133580","0.0-4.0-10.157-0.157","","","","Rate your confidence","1",""
"56.60000002384186","e","choice","left","e","experimental","1412","1135438","0.0-4.0-8.158","true","159","2.7499999999999987","","",""
"3196.100000023842","4","confid","","","html-slider-response","1414","1139141","0.0-4.0-10.158-0.158","","","","Rate your confidence","1",""
"177.5","i","choice","right","i","experimental","1421","1141129","0.0-4.0-8.159","true","160","2.6499999999999986","","",""
"3204.3000000715256","3","confid","","","html-slider-response","1423","1144842","0.0-4.0-10.159-0.159","","","","Rate your confidence","1",""
"2747.600000023842","e","choice","right","i","experimental","1430","1149399","0.0-4.0-8.160","false","161","2.6499999999999986","","",""
"2944.399999976158","1","confid","","","html-slider-response","1432","1152849","0.0-4.0-10.160-0.160","","","","Rate your confidence","1",""
"52.89999997615814","e","choice","left","e","experimental","1439","1154707","0.0-4.0-8.161","true","162","2.7499999999999987","","",""
"2507","4","confid","","","html-slider-response","1441","1157723","0.0-4.0-10.161-0.161","","","","Rate your confidence","1",""
"447.39999997615814","e","choice","left","e","experimental","1448","1160003","0.0-4.0-8.162","true","163","2.7499999999999987","","",""
"2624.600000023842","4","confid","","","html-slider-response","1450","1163135","0.0-4.0-10.162-0.162","","","","Rate your confidence","1",""
"62.299999952316284","e","choice","right","i","experimental","1457","1165004","0.0-4.0-8.163","false","164","2.6499999999999986","","",""
"7659.600000023842","4","confid","","","html-slider-response","1459","1173202","0.0-4.0-10.163-0.163","","","","Rate your confidence","1",""
"421.10000002384186","e","choice","right","i","experimental","1466","1175429","0.0-4.0-8.164","false","165","2.7499999999999987","","",""
"3266.7999999523163","5","confid","","","html-slider-response","1468","1179203","0.0-4.0-10.164-0.164","","","","Rate your confidence","1",""
"503.3000000715256","e","choice","left","e","experimental","1475","1181536","0.0-4.0-8.165","true","166","2.8499999999999988","","",""
"2148.5","4","confid","","","html-slider-response","1477","1184194","0.0-4.0-10.165-0.165","","","","Rate your confidence","1",""
"146.39999997615814","e","choice","right","i","experimental","1484","1186180","0.0-4.0-8.166","false","167","2.8499999999999988","","",""
"2246.600000023842","4","confid","","","html-slider-response","1486","1188937","0.0-4.0-10.166-0.166","","","","Rate your confidence","1",""
"706.6000000238419","i","choice","left","e","experimental","1493","1191454","0.0-4.0-8.167","false","168","2.949999999999999","","",""
"3106.8000000715256","2","confid","","","html-slider-response","1495","1195070","0.0-4.0-10.167-0.167","","","","Rate your confidence","1",""
"96.29999995231628","i","choice","right","i","experimental","1502","1196971","0.0-4.0-8.168","true","169","3.049999999999999","","",""
"2069.100000023842","4","confid","","","html-slider-response","1504","1199551","0.0-4.0-10.168-0.168","","","","Rate your confidence","1",""
"331.10000002384186","i","choice","left","e","experimental","1511","1201685","0.0-4.0-8.169","false","170","3.049999999999999","","",""
"2090.600000023842","4","confid","","","html-slider-response","1513","1204285","0.0-4.0-10.169-0.169","","","","Rate your confidence","1",""
"88.39999997615814","i","choice","right","i","experimental","1520","1206172","0.0-4.0-8.170","true","171","3.149999999999999","","",""
"2409.7000000476837","4","confid","","","html-slider-response","1522","1209090","0.0-4.0-10.170-0.170","","","","Rate your confidence","1",""
"318.3000000715256","e","choice","left","e","experimental","1529","1211215","0.0-4.0-8.171","true","172","3.149999999999999","","",""
"2356","5","confid","","","html-slider-response","1531","1214080","0.0-4.0-10.171-0.171","","","","Rate your confidence","1",""
"196.89999997615814","e","choice","left","e","experimental","1538","1216095","0.0-4.0-8.172","true","173","3.049999999999999","","",""
"2122.8000000715256","6","confid","","","html-slider-response","1540","1218725","0.0-4.0-10.172-0.172","","","","Rate your confidence","1",""
"406.2000000476837","i","choice","right","i","experimental","1547","1220935","0.0-4.0-8.173","true","174","3.049999999999999","","",""
"1776","3","confid","","","html-slider-response","1549","1223220","0.0-4.0-10.173-0.173","","","","Rate your confidence","1",""
"345.59999990463257","i","choice","right","i","experimental","1556","1225372","0.0-4.0-8.174","true","175","2.949999999999999","","",""
"2162.600000023842","4","confid","","","html-slider-response","1558","1228042","0.0-4.0-10.174-0.174","","","","Rate your confidence","1",""
"365.5","e","choice","left","e","experimental","1565","1230242","0.0-4.0-8.175","true","176","2.949999999999999","","",""
"1858.6000000238419","5","confid","","","html-slider-response","1567","1232610","0.0-4.0-10.175-0.175","","","","Rate your confidence","1",""
"366.39999997615814","e","choice","right","i","experimental","1574","1234817","0.0-4.0-8.176","false","177","2.8499999999999988","","",""
"3417","2","confid","","","html-slider-response","1576","1238742","0.0-4.0-10.176-0.176","","","","Rate your confidence","1",""
"343","e","choice","left","e","experimental","1583","1240893","0.0-4.0-8.177","true","178","2.949999999999999","","",""
"2716.5","6","confid","","","html-slider-response","1585","1244120","0.0-4.0-10.177-0.177","","","","Rate your confidence","1",""
"371.60000002384186","i","choice","right","i","experimental","1592","1246298","0.0-4.0-8.178","true","179","2.949999999999999","","",""
"3399.3000000715256","2","confid","","","html-slider-response","1594","1250209","0.0-4.0-10.178-0.178","","","","Rate your confidence","1",""
"410.6999999284744","e","choice","left","e","experimental","1601","1252436","0.0-4.0-8.179","true","180","2.8499999999999988","","",""
"15402.700000047684","4","confid","","","html-slider-response","1603","1268347","0.0-4.0-10.179-0.179","","","","Rate your confidence","1",""
"305.2999999523163","i","choice","right","i","experimental","1610","1270487","0.0-4.0-8.180","true","181","2.8499999999999988","","",""
"2686.399999976158","4","confid","","","html-slider-response","1612","1273681","0.0-4.0-10.180-0.180","","","","Rate your confidence","1",""
"125.5","i","choice","left","e","experimental","1619","1275613","0.0-4.0-8.181","false","182","2.7499999999999987","","",""
"1830.7999999523163","3","confid","","","html-slider-response","1621","1277983","0.0-4.0-10.181-0.181","","","","Rate your confidence","1",""
"212.69999992847443","e","choice","right","i","experimental","1628","1280006","0.0-4.0-8.182","false","183","2.8499999999999988","","",""
"4518.100000023842","3","confid","","","html-slider-response","1630","1285033","0.0-4.0-10.182-0.182","","","","Rate your confidence","1",""
"41.10000002384186","e","choice","left","e","experimental","1637","1286909","0.0-4.0-8.183","true","184","2.949999999999999","","",""
"2569.5","4","confid","","","html-slider-response","1639","1289986","0.0-4.0-10.183-0.183","","","","Rate your confidence","1",""
"0.5","e","choice","left","e","experimental","1646","1291794","0.0-4.0-8.184","true","185","2.949999999999999","","",""
"2099.100000023842","5","confid","","","html-slider-response","1648","1294431","0.0-4.0-10.184-0.184","","","","Rate your confidence","1",""
"382.8000000715256","e","choice","right","i","experimental","1655","1296614","0.0-4.0-8.185","false","186","2.8499999999999988","","",""
"2288.2000000476837","5","confid","","","html-slider-response","1657","1299412","0.0-4.0-10.185-0.185","","","","Rate your confidence","1",""
"55.300000071525574","e","choice","left","e","experimental","1664","1301304","0.0-4.0-8.186","true","187","2.949999999999999","","",""
"2280.399999976158","5","confid","","","html-slider-response","1666","1304092","0.0-4.0-10.186-0.186","","","","Rate your confidence","1",""
"105.70000004768372","e","choice","right","i","experimental","1673","1306032","0.0-4.0-8.187","false","188","2.949999999999999","","",""
"2144","5","confid","","","html-slider-response","1675","1308684","0.0-4.0-10.187-0.187","","","","Rate your confidence","1",""
"191.60000002384186","e","choice","left","e","experimental","1682","1310711","0.0-4.0-8.188","true","189","3.049999999999999","","",""
"18991.300000071526","4","confid","","","html-slider-response","1684","1330211","0.0-4.0-10.188-0.188","","","","Rate your confidence","1",""
"102.60000002384186","e","choice","right","i","experimental","1691","1332113","0.0-4.0-8.189","false","190","3.049999999999999","","",""
"1965.7000000476837","3","confid","","","html-slider-response","1693","1334586","0.0-4.0-10.189-0.189","","","","Rate your confidence","1",""
"6.899999976158142","e","choice","right","i","experimental","1700","1336398","0.0-4.0-8.190","false","191","3.149999999999999","","",""
"2627.100000023842","2","confid","","","html-slider-response","1702","1339535","0.0-4.0-10.190-0.190","","","","Rate your confidence","1",""
"227.10000002384186","e","choice","left","e","experimental","1709","1341599","0.0-4.0-8.191","true","192","3.249999999999999","","",""
"2382.2000000476837","5","confid","","","html-slider-response","1711","1344489","0.0-4.0-10.191-0.191","","","","Rate your confidence","1",""
"111.5","e","choice","left","e","experimental","1718","1346435","0.0-4.0-8.192","true","193","3.249999999999999","","",""
"3116.600000023842","2","confid","","","html-slider-response","1720","1350060","0.0-4.0-10.192-0.192","","","","Rate your confidence","1",""
"414.60000002384186","e","choice","right","i","experimental","1727","1352314","0.0-4.0-8.193","false","194","3.149999999999999","","",""
"8294.600000023842","3","confid","","","html-slider-response","1729","1361117","0.0-4.0-10.193-0.193","","","","Rate your confidence","1","88781"
