"rt","response","task","target_side","correct_response","trial_type","trial_index","time_elapsed","internal_node_id","correct","trial_number","n_dots","stimulus","slider_start","participant"
"551.5","e","choice","left","e","practice","10","64087","0.0-4.0-8.0","true","1","4.25","","",""
"692.5","i","choice","right","i","practice","18","67071","0.0-4.0-8.1","true","2","4.25","","",""
"209.89999997615814","e","choice","left","e","practice","26","69567","0.0-4.0-8.2","true","3","3.85","","",""
"453.40000009536743","i","choice","right","i","practice","34","72312","0.0-4.0-8.3","true","4","3.85","","",""
"476.2000000476837","i","choice","right","i","practice","42","75078","0.0-4.0-8.4","true","5","3.45","","",""
"550.5","e","choice","left","e","practice","50","77918","0.0-4.0-8.5","true","6","3.45","","",""
"1006.1000000238419","e","choice","right","i","practice","58","81224","0.0-4.0-8.6","false","7","3.25","","",""
"511.89999997615814","e","choice","left","e","practice","66","84026","0.0-4.0-8.7","true","8","3.45","","",""
"36","e","choice","left","e","practice","74","86353","0.0-4.0-8.8","true","9","3.45","","",""
"476.39999997615814","i","choice","right","i","practice","82","89117","0.0-4.0-8.9","true","10","3.25","","",""
"60.60000002384186","i","choice","right","i","practice","90","91479","0.0-4.0-8.10","true","11","3.25","","",""
"50.200000047683716","i","choice","left","e","practice","98","93825","0.0-4.0-8.11","false","12","3.15","","",""
"1653.5","e","choice","left","e","practice","106","97772","0.0-4.0-8.12","true","13","3.25","","",""
"496.3000000715256","e","choice","right","i","practice","114","100547","0.0-4.0-8.13","false","14","3.25","","",""
"138.29999995231628","i","choice","right","i","practice","122","102977","0.0-4.0-8.14","true","15","3.35","","",""
"234.59999990463257","e","choice","left","e","practice","130","105512","0.0-4.0-8.15","true","16","3.35","","",""
"767.3000000715256","i","choice","right","i","practice","138","108569","0.0-4.0-8.16","true","17","3.25","","",""
"843.9000000953674","e","choice","left","e","practice","146","111706","0.0-4.0-8.17","true","18","3.25","","",""
"666.9000000953674","e","choice","left","e","practice","154","114674","0.0-4.0-8.18","true","19","3.15","","",""
"479.59999990463257","i","choice","right","i","practice","162","117452","0.0-4.0-8.19","true","20","3.15","","",""
"599.5999999046326","e","choice","left","e","practice","170","120342","0.0-4.0-8.20","true","21","3.05","","",""
"549.8999999761581","i","choice","right","i","practice","178","123184","0.0-4.0-8.21","true","22","3.05","","",""
"589.6999999284744","i","choice","right","i","practice","186","126069","0.0-4.0-8.22","true","23","2.9499999999999997","","",""
"461.5","e","choice","left","e","practice","194","128828","0.0-4.0-8.23","true","24","2.9499999999999997","","",""
"502","e","choice","left","e","practice","202","131627","0.0-4.0-8.24","true","25","2.8499999999999996","","",""
"357.60000002384186","e","choice","right","i","practice","210","134271","0.0-4.0-8.25","false","26","2.8499999999999996","","",""
"508.60000002384186","e","choice","left","e","experimental","221","169500","0.0-4.0-8.26","true","27","2.9499999999999997","","",""
"5277.699999928474","5","confid","","","html-slider-response","223","175289","0.0-4.0-10.26-0.26","","","","Rate your confidence","1",""
"519.8000000715256","i","choice","right","i","experimental","230","177597","0.0-4.0-8.27","true","28","2.9499999999999997","","",""
"2378.899999976158","5","confid","","","html-slider-response","232","180481","0.0-4.0-10.27-0.27","","","","Rate your confidence","1",""
"612.9000000953674","e","choice","right","i","experimental","239","182897","0.0-4.0-8.28","false","29","2.8499999999999996","","",""
"2626.600000023842","5","confid","","","html-slider-response","241","186029","0.0-4.0-10.28-0.28","","","","Rate your confidence","1",""
"503.1999999284744","e","choice","left","e","experimental","248","188332","0.0-4.0-8.29","true","30","2.9499999999999997","","",""
"2396.399999976158","6","confid","","","html-slider-response","250","191236","0.0-4.0-10.29-0.29","","","","Rate your confidence","1",""
"1082.7000000476837","i","choice","right","i","experimental","257","194108","0.0-4.0-8.30","true","31","2.9499999999999997","","",""
"2053.7000000476837","6","confid","","","html-slider-response","259","196665","0.0-4.0-10.30-0.30","","","","Rate your confidence","1",""
"1425.9000000953674","i","choice","left","e","experimental","266","199879","0.0-4.0-8.31","false","32","2.8499999999999996","","",""
"2153.399999976158","6","confid","","","html-slider-response","268","202538","0.0-4.0-10.31-0.31","","","","Rate your confidence","1",""
"804.8999999761581","e","choice","left","e","experimental","275","205117","0.0-4.0-8.32","true","33","2.9499999999999997","","",""
"1842.0999999046326","6","confid","","","html-slider-response","277","207471","0.0-4.0-10.32-0.32","","","","Rate your confidence","1",""
"419.10000002384186","e","choice","right","i","experimental","284","209682","0.0-4.0-8.33","false","34","2.9499999999999997","","",""
"2924","6","confid","","","html-slider-response","286","213110","0.0-4.0-10.33-0.33","","","","Rate your confidence","1",""
"878.1000000238419","e","choice","left","e","experimental","293","215787","0.0-4.0-8.34","true","35","3.05","","",""
"1708.1000000238419","6","confid","","","html-slider-response","295","218001","0.0-4.0-10.34-0.34","","","","Rate your confidence","1",""
"829.8999999761581","i","choice","right","i","experimental","302","220622","0.0-4.0-8.35","true","36","3.05","","",""
"2259.899999976158","3","confid","","","html-slider-response","304","223384","0.0-4.0-10.35-0.35","","","","Rate your confidence","1",""
"552.6000000238419","i","choice","right","i","experimental","311","225739","0.0-4.0-8.36","true","37","2.9499999999999997","","",""
"2085","4","confid","","","html-slider-response","313","228330","0.0-4.0-10.36-0.36","","","","Rate your confidence","1",""
"210.79999995231628","i","choice","left","e","experimental","320","230329","0.0-4.0-8.37","false","38","2.9499999999999997","","",""
"2001.6000000238419","5","confid","","","html-slider-response","322","232834","0.0-4.0-10.37-0.37","","","","Rate your confidence","1",""
"1073.1000000238419","i","choice","left","e","experimental","329","235694","0.0-4.0-8.38","false","39","3.05","","",""
"2139.3000000715256","5","confid","","","html-slider-response","331","238339","0.0-4.0-10.38-0.38","","","","Rate your confidence","1",""
"818.1000000238419","e","choice","right","i","experimental","338","240954","0.0-4.0-8.39","false","40","3.15","","",""
"2225.399999976158","5","confid","","","html-slider-response","340","243683","0.0-4.0-10.39-0.39","","","","Rate your confidence","1",""
"602.1999999284744","e","choice","right","i","experimental","347","246071","0.0-4.0-8.40","false","41","3.25","","",""
"2752","4","confid","","","html-slider-response","349","249325","0.0-4.0-10.40-0.40","","","","Rate your confidence","1",""
"1316","e","choice","left","e","experimental","356","252444","0.0-4.0-8.41","true","42","3.35","","",""
"2981","6","confid","","","html-slider-response","358","255929","0.0-4.0-10.41-0.41","","","","Rate your confidence","1",""
"1111.6999999284744","e","choice","left","e","experimental","365","258828","0.0-4.0-8.42","true","43","3.35","","",""
"3101.600000023842","6","confid","","","html-slider-response","367","262434","0.0-4.0-10.42-0.42","","","","Rate your confidence","1",""
"901","i","choice","right","i","experimental","374","265121","0.0-4.0-8.43","true","44","3.25","","",""
"3097.7000000476837","5","confid","","","html-slider-response","376","268721","0.0-4.0-10.43-0.43","","","","Rate your confidence","1",""
"1910.8999999761581","e","choice","left","e","experimental","383","272423","0.0-4.0-8.44","true","45","3.25","","",""
"1979.1999999284744","6","confid","","","html-slider-response","385","274906","0.0-4.0-10.44-0.44","","","","Rate your confidence","1",""
"781.6999999284744","i","choice","right","i","experimental","392","277470","0.0-4.0-8.45","true","46","3.15","","",""
"8468.100000023842","5","confid","","","html-slider-response","394","286442","0.0-4.0-10.45-0.45","","","","Rate your confidence","1",""
"771.3999999761581","i","choice","left","e","experimental","401","289014","0.0-4.0-8.46","false","47","3.15","","",""
"1974.6999999284744","6","confid","","","html-slider-response","403","291492","0.0-4.0-10.46-0.46","","","","Rate your confidence","1",""
"757.2000000476837","i","choice","right","i","experimental","410","294037","0.0-4.0-8.47","true","48","3.25","","",""
"3416","6","confid","","","html-slider-response","412","297959","0.0-4.0-10.47-0.47","","","","Rate your confidence","1",""
"1150.8999999761581","e","choice","right","i","experimental","419","300892","0.0-4.0-8.48","false","49","3.25","","",""
"3997.1999999284744","1","confid","","","html-slider-response","421","305391","0.0-4.0-10.48-0.48","","","","Rate your confidence","1",""
"491.1999999284744","i","choice","left","e","experimental","428","307666","0.0-4.0-8.49","false","50","3.35","","",""
"1983.5999999046326","5","confid","","","html-slider-response","430","310153","0.0-4.0-10.49-0.49","","","","Rate your confidence","1",""
"287.5","e","choice","left","e","experimental","437","312239","0.0-4.0-8.50","true","51","3.45","","",""
"1837.8000000715256","6","confid","","","html-slider-response","439","314583","0.0-4.0-10.50-0.50","","","","Rate your confidence","1",""
"253.29999995231628","i","choice","right","i","experimental","446","316632","0.0-4.0-8.51","true","52","3.45","","",""
"1941.6000000238419","6","confid","","","html-slider-response","448","319077","0.0-4.0-10.51-0.51","","","","Rate your confidence","1",""
"367.2999999523163","e","choice","left","e","experimental","455","321251","0.0-4.0-8.52","true","53","3.35","","",""
"1803.0999999046326","6","confid","","","html-slider-response","457","323559","0.0-4.0-10.52-0.52","","","","Rate your confidence","1",""
"331","e","choice","right","i","experimental","464","325671","0.0-4.0-8.53","false","54","3.35","","",""
"7540.600000023842","6","confid","","","html-slider-response","466","333726","0.0-4.0-10.53-0.53","","","","Rate your confidence","1",""
"624.6000000238419","i","choice","right","i","experimental","473","336135","0.0-4.0-8.54","true","55","3.45","","",""
"1656","6","confid","","","html-slider-response","475","338297","0.0-4.0-10.54-0.54","","","","Rate your confidence","1",""
"2831.8000000715256","e","choice","left","e","experimental","482","342927","0.0-4.0-8.55","true","56","3.45","","",""
"1829","1","confid","","","html-slider-response","484","345259","0.0-4.0-10.55-0.55","","","","Rate your confidence","1",""
"237.60000002384186","i","choice","left","e","experimental","491","347281","0.0-4.0-8.56","false","57","3.35","","",""
"2056","5","confid","","","html-slider-response","493","349840","0.0-4.0-10.56-0.56","","","","Rate your confidence","1",""
"203.90000009536743","e","choice","right","i","experimental","500","351828","0.0-4.0-8.57","false","58","3.45","","",""
"1914.7999999523163","5","confid","","","html-slider-response","502","354246","0.0-4.0-10.57-0.57","","","","Rate your confidence","1",""
"131","e","choice","left","e","experimental","509","356164","0.0-4.0-8.58","true","59","3.5500000000000003","","",""
"1640.1000000238419","6","confid","","","html-slider-response","511","358307","0.0-4.0-10.58-0.58","","","","Rate your confidence","1",""
"1091.7000000476837","e","choice","right","i","experimental","518","361186","0.0-4.0-8.59","false","60","3.5500000000000003","","",""
"2137.2999999523163","3","confid","","","html-slider-response","520","363825","0.0-4.0-10.59-0.59","","","","Rate your confidence","1",""
"174.40000009536743","i","choice","left","e","experimental","527","365791","0.0-4.0-8.60","false","61","3.6500000000000004","","",""
"1706.2999999523163","6","confid","","","html-slider-response","529","368001","0.0-4.0-10.60-0.60","","","","Rate your confidence","1",""
"608.7999999523163","e","choice","right","i","experimental","536","370406","0.0-4.0-8.61","false","62","3.7500000000000004","","",""
"1804.5999999046326","3","confid","","","html-slider-response","538","372714","0.0-4.0-10.61-0.61","","","","Rate your confidence","1",""
"12541.799999952316","i","choice","right","i","experimental","545","387041","0.0-4.0-8.62","true","63","3.8500000000000005","","",""
"7905.5","6","confid","","","html-slider-response","547","395451","0.0-4.0-10.62-0.62","","","","Rate your confidence","1",""
"16879.199999928474","e","choice","left","e","experimental","554","414117","0.0-4.0-8.63","true","64","3.8500000000000005","","",""
"2137.7999999523163","1","confid","","","html-slider-response","556","416756","0.0-4.0-10.63-0.63","","","","Rate your confidence","1",""
"1456.1000000238419","i","choice","left","e","experimental","563","420000","0.0-4.0-8.64","false","65","3.7500000000000004","","",""
"4724.099999904633","4","confid","","","html-slider-response","565","425230","0.0-4.0-10.64-0.64","","","","Rate your confidence","1",""
"811.7000000476837","i","choice","right","i","experimental","572","427827","0.0-4.0-8.65","true","66","3.8500000000000005","","",""
"1772.1999999284744","6","confid","","","html-slider-response","574","430101","0.0-4.0-10.65-0.65","","","","Rate your confidence","1",""
"8005.5","e","choice","right","i","experimental","581","439909","0.0-4.0-8.66","false","67","3.8500000000000005","","",""
"2059","2","confid","","","html-slider-response","583","442471","0.0-4.0-10.66-0.66","","","","Rate your confidence","1",""
"986.8999999761581","i","choice","left","e","experimental","590","445248","0.0-4.0-8.67","false","68","3.9500000000000006","","",""
"1697","4","confid","","","html-slider-response","592","447447","0.0-4.0-10.67-0.67","","","","Rate your confidence","1",""
"666.8999999761581","i","choice","right","i","experimental","600","777605","0.0-4.0-8.68","true","69","4.050000000000001","","",""
"1343.6000000238419","5","confid","","","html-slider-response","602","779463","0.0-4.0-10.68-0.68","","","","Rate your confidence","1",""
"211.10000002384186","e","choice","left","e","experimental","609","781466","0.0-4.0-8.69","true","70","4.050000000000001","","",""
"1372.3000000715256","6","confid","","","html-slider-response","611","783342","0.0-4.0-10.69-0.69","","","","Rate your confidence","1",""
"511.7999999523163","e","choice","left","e","experimental","618","785639","0.0-4.0-8.70","true","71","3.9500000000000006","","",""
"1420.8000000715256","6","confid","","","html-slider-response","620","787562","0.0-4.0-10.70-0.70","","","","Rate your confidence","1",""
"427.2000000476837","i","choice","right","i","experimental","627","789786","0.0-4.0-8.71","true","72","3.9500000000000006","","",""
"2018.8000000715256","6","confid","","","html-slider-response","629","792310","0.0-4.0-10.71-0.71","","","","Rate your confidence","1",""
"23228","e","choice","left","e","experimental","636","817336","0.0-4.0-8.72","true","73","3.8500000000000005","","",""
"1674.6000000238419","5","confid","","","html-slider-response","638","819515","0.0-4.0-10.72-0.72","","","","Rate your confidence","1",""
"966.1000000238419","i","choice","right","i","experimental","645","822273","0.0-4.0-8.73","true","74","3.8500000000000005","","",""
"5912","5","confid","","","html-slider-response","647","828691","0.0-4.0-10.73-0.73","","","","Rate your confidence","1",""
"262.8000000715256","i","choice","right","i","experimental","654","830741","0.0-4.0-8.74","true","75","3.7500000000000004","","",""
"1359.5","6","confid","","","html-slider-response","656","832612","0.0-4.0-10.74-0.74","","","","Rate your confidence","1",""
"1311.1999999284744","e","choice","left","e","experimental","663","835715","0.0-4.0-8.75","true","76","3.7500000000000004","","",""
"5312.199999928474","5","confid","","","html-slider-response","665","841531","0.0-4.0-10.75-0.75","","","","Rate your confidence","1",""
"897.3999999761581","e","choice","left","e","experimental","672","844229","0.0-4.0-8.76","true","77","3.6500000000000004","","",""
"1413.8999999761581","6","confid","","","html-slider-response","674","846147","0.0-4.0-10.76-0.76","","","","Rate your confidence","1",""
"201.5","i","choice","right","i","experimental","681","848138","0.0-4.0-8.77","true","78","3.6500000000000004","","",""
"1326.5","5","confid","","","html-slider-response","683","849967","0.0-4.0-10.77-0.77","","","","Rate your confidence","1",""
"845.5","e","choice","left","e","experimental","690","852605","0.0-4.0-8.78","true","79","3.5500000000000003","","",""
"3342","6","confid","","","html-slider-response","692","856451","0.0-4.0-10.78-0.78","","","","Rate your confidence","1",""
"614.7999999523163","i","choice","right","i","experimental","699","858855","0.0-4.0-8.79","true","80","3.5500000000000003","","",""
"2289.5","6","confid","","","html-slider-response","701","861648","0.0-4.0-10.79-0.79","","","","Rate your confidence","1",""
"1779.6999999284744","e","choice","left","e","experimental","708","865215","0.0-4.0-8.80","true","81","3.45","","",""
"2582.2999999523163","2","confid","","","html-slider-response","710","868302","0.0-4.0-10.80-0.80","","","","Rate your confidence","1",""
"620.8999999761581","i","choice","right","i","experimental","717","870717","0.0-4.0-8.81","true","82","3.45","","",""
"1517.2000000476837","6","confid","","","html-slider-response","719","872738","0.0-4.0-10.81-0.81","","","","Rate your confidence","1",""
"776.7999999523163","i","choice","right","i","experimental","726","875300","0.0-4.0-8.82","true","83","3.35","","",""
"1482.8000000715256","6","confid","","","html-slider-response","728","877286","0.0-4.0-10.82-0.82","","","","Rate your confidence","1",""
"301.89999997615814","i","choice","left","e","experimental","735","879374","0.0-4.0-8.83","false","84","3.35","","",""
"1135.6000000238419","6","confid","","","html-slider-response","737","881021","0.0-4.0-10.83-0.83","","","","Rate your confidence","1",""
"746.4000000953674","e","choice","left","e","experimental","744","883552","0.0-4.0-8.84","true","85","3.45","","",""
"1599.2000000476837","6","confid","","","html-slider-response","746","885654","0.0-4.0-10.84-0.84","","","","Rate your confidence","1",""
"550.4000000953674","i","choice","right","i","experimental","753","888004","0.0-4.0-8.85","true","86","3.45","","",""
"1567.2000000476837","6","confid","","","html-slider-response","755","890073","0.0-4.0-10.85-0.85","","","","Rate your confidence","1",""
"500.2999999523163","e","choice","left","e","experimental","762","892359","0.0-4.0-8.86","true","87","3.35","","",""
"2015.3000000715256","6","confid","","","html-slider-response","764","894878","0.0-4.0-10.86-0.86","","","","Rate your confidence","1",""
"325.39999997615814","e","choice","right","i","experimental","771","896989","0.0-4.0-8.87","false","88","3.35","","",""
"1665.8999999761581","6","confid","","","html-slider-response","773","899158","0.0-4.0-10.87-0.87","","","","Rate your confidence","1",""
"436.60000002384186","e","choice","left","e","experimental","780","901386","0.0-4.0-8.88","true","89","3.45","","",""
"1672.6000000238419","6","confid","","","html-slider-response","782","903562","0.0-4.0-10.88-0.88","","","","Rate your confidence","1",""
"28.800000071525574","i","choice","right","i","experimental","789","905386","0.0-4.0-8.89","true","90","3.45","","",""
"1700.3999999761581","6","confid","","","html-slider-response","791","907593","0.0-4.0-10.89-0.89","","","","Rate your confidence","1",""
"554.7000000476837","i","choice","right","i","experimental","798","909942","0.0-4.0-8.90","true","91","3.35","","",""
"1638.3999999761581","6","confid","","","html-slider-response","800","912084","0.0-4.0-10.90-0.90","","","","Rate your confidence","1",""
"687","e","choice","left","e","experimental","807","914564","0.0-4.0-8.91","true","92","3.35","","",""
"9634.100000023842","6","confid","","","html-slider-response","809","924702","0.0-4.0-10.91-0.91","","","","Rate your confidence","1",""
"1214.3999999761581","e","choice","left","e","experimental","816","927700","0.0-4.0-8.92","true","93","3.25","","",""
"2729.600000023842","6","confid","","","html-slider-response","818","930933","0.0-4.0-10.92-0.92","","","","Rate your confidence","1",""
"242.60000002384186","i","choice","right","i","experimental","825","932971","0.0-4.0-8.93","true","94","3.25","","",""
"2086.899999976158","6","confid","","","html-slider-response","827","935563","0.0-4.0-10.93-0.93","","","","Rate your confidence","1",""
"4012.4000000953674","e","choice","right","i","experimental","834","941374","0.0-4.0-8.94","false","95","3.15","","",""
"4405.799999952316","1","confid","","","html-slider-response","836","946284","0.0-4.0-10.94-0.94","","","","Rate your confidence","1",""
"1233.4000000953674","i","choice","left","e","experimental","843","949315","0.0-4.0-8.95","false","96","3.25","","",""
"1376.8999999761581","6","confid","","","html-slider-response","845","951197","0.0-4.0-10.95-0.95","","","","Rate your confidence","1",""
"577.2000000476837","i","choice","left","e","experimental","852","953560","0.0-4.0-8.96","false","97","3.35","","",""
"2859.3000000715256","6","confid","","","html-slider-response","854","956924","0.0-4.0-10.96-0.96","","","","Rate your confidence","1",""
"228.39999997615814","i","choice","right","i","experimental","861","958939","0.0-4.0-8.97","true","98","3.45","","",""
"1496.2999999523163","6","confid","","","html-slider-response","863","960939","0.0-4.0-10.97-0.97","","","","Rate your confidence","1",""
"507.7000000476837","e","choice","left","e","experimental","870","963247","0.0-4.0-8.98","true","99","3.45","","",""
"1478.1000000238419","6","confid","","","html-slider-response","872","965229","0.0-4.0-10.98-0.98","","","","Rate your confidence","1",""
"653.7000000476837","i","choice","right","i","experimental","879","967682","0.0-4.0-8.99","true","100","3.35","","",""
"1430.2999999523163","4","confid","","","html-slider-response","881","969614","0.0-4.0-10.99-0.99","","","","Rate your confidence","1",""
"188.39999997615814","i","choice","right","i","experimental","888","971594","0.0-4.0-8.100","true","101","3.35","","",""
"1485.6000000238419","6","confid","","","html-slider-response","890","973582","0.0-4.0-10.100-0.100","","","","Rate your confidence","1",""
"336.5","e","choice","left","e","experimental","897","975706","0.0-4.0-8.101","true","102","3.25","","",""
"1627.5","6","confid","","","html-slider-response","899","977846","0.0-4.0-10.101-0.101","","","","Rate your confidence","1",""
"940.1999999284744","e","choice","left","e","experimental","906","980567","0.0-4.0-8.102","true","103","3.25","","",""
"1099.6000000238419","6","confid","","","html-slider-response","908","982170","0.0-4.0-10.102-0.102","","","","Rate your confidence","1",""
"360.3000000715256","i","choice","right","i","experimental","915","984315","0.0-4.0-8.103","true","104","3.15","","",""
"1590.2000000476837","6","confid","","","html-slider-response","917","986409","0.0-4.0-10.103-0.103","","","","Rate your confidence","1",""
"313","e","choice","right","i","experimental","924","988519","0.0-4.0-8.104","false","105","3.15","","",""
"2530","6","confid","","","html-slider-response","926","991555","0.0-4.0-10.104-0.104","","","","Rate your confidence","1",""
"379.8000000715256","e","choice","left","e","experimental","933","993732","0.0-4.0-8.105","true","106","3.25","","",""
"1804.6000000238419","6","confid","","","html-slider-response","935","996042","0.0-4.0-10.105-0.105","","","","Rate your confidence","1",""
"352.10000002384186","i","choice","right","i","experimental","942","998182","0.0-4.0-8.106","true","107","3.25","","",""
"2966.899999976158","3","confid","","","html-slider-response","944","1001651","0.0-4.0-10.106-0.106","","","","Rate your confidence","1",""
"698","e","choice","left","e","experimental","951","1004141","0.0-4.0-8.107","true","108","3.15","","",""
"2672.600000023842","6","confid","","","html-slider-response","953","1007318","0.0-4.0-10.107-0.107","","","","Rate your confidence","1",""
"175.79999995231628","e","choice","right","i","experimental","960","1009291","0.0-4.0-8.108","false","109","3.15","","",""
"2373.5","6","confid","","","html-slider-response","962","1012170","0.0-4.0-10.108-0.108","","","","Rate your confidence","1",""
"282.10000002384186","e","choice","left","e","experimental","969","1014250","0.0-4.0-8.109","true","110","3.25","","",""
"1786.7000000476837","6","confid","","","html-slider-response","971","1016540","0.0-4.0-10.109-0.109","","","","Rate your confidence","1",""
"745.7999999523163","i","choice","right","i","experimental","979","1021307","0.0-4.0-8.110","true","111","3.25","","",""
"1762.6000000238419","6","confid","","","html-slider-response","981","1023572","0.0-4.0-10.110-0.110","","","","Rate your confidence","1",""
"288.60000002384186","e","choice","left","e","experimental","988","1025649","0.0-4.0-8.111","true","112","3.15","","",""
"1697.6000000238419","6","confid","","","html-slider-response","990","1027850","0.0-4.0-10.111-0.111","","","","Rate your confidence","1",""
"605.8999999761581","i","choice","left","e","experimental","997","1030257","0.0-4.0-8.112","false","113","3.15","","",""
"1977.6000000238419","6","confid","","","html-slider-response","999","1032738","0.0-4.0-10.112-0.112","","","","Rate your confidence","1",""
"581.2000000476837","e","choice","right","i","experimental","1006","1035120","0.0-4.0-8.113","false","114","3.25","","",""
"1197.3999999761581","6","confid","","","html-slider-response","1008","1036821","0.0-4.0-10.113-0.113","","","","Rate your confidence","1",""
"63","e","choice","left","e","experimental","1015","1038686","0.0-4.0-8.114","true","115","3.35","","",""
"4330.399999976158","6","confid","","","html-slider-response","1017","1043519","0.0-4.0-10.114-0.114","","","","Rate your confidence","1",""
"335.7999999523163","i","choice","right","i","experimental","1024","1045653","0.0-4.0-8.115","true","116","3.35","","",""
"1894.1999999284744","6","confid","","","html-slider-response","1026","1048050","0.0-4.0-10.115-0.115","","","","Rate your confidence","1",""
"669.1000000238419","e","choice","left","e","experimental","1033","1050509","0.0-4.0-8.116","true","117","3.25","","",""
"1177.6999999284744","6","confid","","","html-slider-response","1035","1052190","0.0-4.0-10.116-0.116","","","","Rate your confidence","1",""
"499.7999999523163","i","choice","right","i","experimental","1042","1054475","0.0-4.0-8.117","true","118","3.25","","",""
"1638.5999999046326","6","confid","","","html-slider-response","1044","1056618","0.0-4.0-10.117-0.117","","","","Rate your confidence","1",""
"550.5","e","choice","left","e","experimental","1051","1058958","0.0-4.0-8.118","true","119","3.15","","",""
"1535.3000000715256","6","confid","","","html-slider-response","1053","1060997","0.0-4.0-10.118-0.118","","","","Rate your confidence","1",""
"385.1999999284744","i","choice","right","i","experimental","1060","1063184","0.0-4.0-8.119","true","120","3.15","","",""
"1643.7000000476837","6","confid","","","html-slider-response","1062","1065330","0.0-4.0-10.119-0.119","","","","Rate your confidence","1",""
"54.60000002384186","e","choice","left","e","experimental","1069","1067190","0.0-4.0-8.120","true","121","3.05","","",""
"1749","6","confid","","","html-slider-response","1071","1069443","0.0-4.0-10.120-0.120","","","","Rate your confidence","1",""
"645.6000000238419","i","choice","right","i","experimental","1078","1071868","0.0-4.0-8.121","true","122","3.05","","",""
"1970.5","6","confid","","","html-slider-response","1080","1074342","0.0-4.0-10.121-0.121","","","","Rate your confidence","1",""
"281.2000000476837","i","choice","right","i","experimental","1087","1076419","0.0-4.0-8.122","true","123","2.9499999999999997","","",""
"2227.3000000715256","6","confid","","","html-slider-response","1089","1079149","0.0-4.0-10.122-0.122","","","","Rate your confidence","1",""
"57.199999928474426","i","choice","left","e","experimental","1096","1080998","0.0-4.0-8.123","false","124","2.9499999999999997","","",""
"3174","6","confid","","","html-slider-response","1098","1084676","0.0-4.0-10.123-0.123","","","","Rate your confidence","1",""
"518.6999999284744","e","choice","left","e","experimental","1105","1086982","0.0-4.0-8.124","true","125","3.05","","",""
"1692.5","6","confid","","","html-slider-response","1107","1089179","0.0-4.0-10.124-0.124","","","","Rate your confidence","1",""
"387.09999990463257","i","choice","right","i","experimental","1114","1091354","0.0-4.0-8.125","true","126","3.05","","",""
"1281.6999999284744","6","confid","","","html-slider-response","1116","1093139","0.0-4.0-10.125-0.125","","","","Rate your confidence","1",""
"521.3000000715256","i","choice","right","i","experimental","1123","1095459","0.0-4.0-8.126","true","127","2.9499999999999997","","",""
"1288.8999999761581","5","confid","","","html-slider-response","1125","1097251","0.0-4.0-10.126-0.126","","","","Rate your confidence","1",""
"426.1999999284744","e","choice","left","e","experimental","1132","1099473","0.0-4.0-8.127","true","128","2.9499999999999997","","",""
"1622.6999999284744","4","confid","","","html-slider-response","1134","1101599","0.0-4.0-10.127-0.127","","","","Rate your confidence","1",""
"674.1000000238419","i","choice","left","e","experimental","1141","1104073","0.0-4.0-8.128","false","129","2.8499999999999996","","",""
"1510.5","4","confid","","","html-slider-response","1143","1106087","0.0-4.0-10.128-0.128","","","","Rate your confidence","1",""
"392.39999997615814","e","choice","right","i","experimental","1150","1108267","0.0-4.0-8.129","false","130","2.9499999999999997","","",""
"1687.8000000715256","3","confid","","","html-slider-response","1152","1110457","0.0-4.0-10.129-0.129","","","","Rate your confidence","1",""
"678.1000000238419","i","choice","right","i","experimental","1159","1112930","0.0-4.0-8.130","true","131","3.05","","",""
"1861.7999999523163","5","confid","","","html-slider-response","1161","1115295","0.0-4.0-10.130-0.130","","","","Rate your confidence","1",""
"299.90000009536743","e","choice","left","e","experimental","1168","1117381","0.0-4.0-8.131","true","132","3.05","","",""
"1358.8000000715256","5","confid","","","html-slider-response","1170","1119243","0.0-4.0-10.131-0.131","","","","Rate your confidence","1",""
"885","e","choice","right","i","experimental","1177","1121921","0.0-4.0-8.132","false","133","2.9499999999999997","","",""
"2475","5","confid","","","html-slider-response","1179","1124899","0.0-4.0-10.132-0.132","","","","Rate your confidence","1",""
"1275.6000000238419","e","choice","left","e","experimental","1186","1127973","0.0-4.0-8.133","true","134","3.05","","",""
"1267.0999999046326","5","confid","","","html-slider-response","1188","1129743","0.0-4.0-10.133-0.133","","","","Rate your confidence","1",""
"472.39999997615814","e","choice","left","e","experimental","1195","1132004","0.0-4.0-8.134","true","135","3.05","","",""
"1465.0999999046326","5","confid","","","html-slider-response","1197","1133973","0.0-4.0-10.134-0.134","","","","Rate your confidence","1",""
"330.89999997615814","e","choice","right","i","experimental","1204","1136092","0.0-4.0-8.135","false","136","2.9499999999999997","","",""
"1730.8000000715256","5","confid","","","html-slider-response","1206","1138327","0.0-4.0-10.135-0.135","","","","Rate your confidence","1",""
"506.8000000715256","i","choice","right","i","experimental","1213","1140628","0.0-4.0-8.136","true","137","3.05","","",""
"3731.5999999046326","5","confid","","","html-slider-response","1215","1144863","0.0-4.0-10.136-0.136","","","","Rate your confidence","1",""
"808.3000000715256","e","choice","left","e","experimental","1222","1147463","0.0-4.0-8.137","true","138","3.05","","",""
"2172.2999999523163","6","confid","","","html-slider-response","1224","1150138","0.0-4.0-10.137-0.137","","","","Rate your confidence","1",""
"180.79999995231628","e","choice","left","e","experimental","1231","1152120","0.0-4.0-8.138","true","139","2.9499999999999997","","",""
"1298.3999999761581","6","confid","","","html-slider-response","1233","1153922","0.0-4.0-10.138-0.138","","","","Rate your confidence","1",""
"320.5","i","choice","right","i","experimental","1240","1156030","0.0-4.0-8.139","true","140","2.9499999999999997","","",""
"1748.7999999523163","6","confid","","","html-slider-response","1242","1158291","0.0-4.0-10.139-0.139","","","","Rate your confidence","1",""
"128.20000004768372","e","choice","left","e","experimental","1249","1160209","0.0-4.0-8.140","true","141","2.8499999999999996","","",""
"2334.9000000953674","6","confid","","","html-slider-response","1251","1163050","0.0-4.0-10.140-0.140","","","","Rate your confidence","1",""
"141.60000002384186","i","choice","right","i","experimental","1258","1164982","0.0-4.0-8.141","true","142","2.8499999999999996","","",""
"2257.7999999523163","6","confid","","","html-slider-response","1260","1167744","0.0-4.0-10.141-0.141","","","","Rate your confidence","1",""
"343.7000000476837","i","choice","left","e","experimental","1267","1169886","0.0-4.0-8.142","false","143","2.7499999999999996","","",""
"1662.1999999284744","5","confid","","","html-slider-response","1269","1172054","0.0-4.0-10.142-0.142","","","","Rate your confidence","1",""
"538.3999999761581","e","choice","right","i","experimental","1276","1174394","0.0-4.0-8.143","false","144","2.8499999999999996","","",""
"2309.2999999523163","5","confid","","","html-slider-response","1278","1177206","0.0-4.0-10.143-0.143","","","","Rate your confidence","1",""
"522.5","e","choice","left","e","experimental","1285","1179520","0.0-4.0-8.144","true","145","2.9499999999999997","","",""
"2803.6999999284744","5","confid","","","html-slider-response","1287","1182826","0.0-4.0-10.144-0.144","","","","Rate your confidence","1",""
"633.7000000476837","i","choice","right","i","experimental","1294","1185250","0.0-4.0-8.145","true","146","2.9499999999999997","","",""
"2005","6","confid","","","html-slider-response","1296","1187759","0.0-4.0-10.145-0.145","","","","Rate your confidence","1",""
"411.59999990463257","e","choice","right","i","experimental","1303","1189969","0.0-4.0-8.146","false","147","2.8499999999999996","","",""
"3353.8000000715256","6","confid","","","html-slider-response","1305","1193828","0.0-4.0-10.146-0.146","","","","Rate your confidence","1",""
"406.10000002384186","e","choice","left","e","experimental","1312","1196027","0.0-4.0-8.147","true","148","2.9499999999999997","","",""
"1300.7000000476837","6","confid","","","html-slider-response","1314","1197830","0.0-4.0-10.147-0.147","","","","Rate your confidence","1",""
"364","e","choice","left","e","experimental","1321","1199977","0.0-4.0-8.148","true","149","2.9499999999999997","","",""
"1634.8999999761581","6","confid","","","html-slider-response","1323","1202115","0.0-4.0-10.148-0.148","","","","Rate your confidence","1",""
"299.3000000715256","i","choice","right","i","experimental","1330","1204201","0.0-4.0-8.149","true","150","2.8499999999999996","","",""
"1515","6","confid","","","html-slider-response","1332","1206218","0.0-4.0-10.149-0.149","","","","Rate your confidence","1",""
"262.39999997615814","e","choice","right","i","experimental","1339","1208270","0.0-4.0-8.150","false","151","2.8499999999999996","","",""
"2283.399999976158","6","confid","","","html-slider-response","1341","1211059","0.0-4.0-10.150-0.150","","","","Rate your confidence","1",""
"367.1999999284744","e","choice","left","e","experimental","1348","1213226","0.0-4.0-8.151","true","152","2.9499999999999997","","",""
"1448.2000000476837","5","confid","","","html-slider-response","1350","1215181","0.0-4.0-10.151-0.151","","","","Rate your confidence","1",""
"590.3999999761581","i","choice","right","i","experimental","1358","1218774","0.0-4.0-8.152","true","153","2.9499999999999997","","",""
"2702.600000023842","4","confid","","","html-slider-response","1360","1221982","0.0-4.0-10.152-0.152","","","","Rate your confidence","1",""
"290.60000002384186","i","choice","left","e","experimental","1367","1224061","0.0-4.0-8.153","false","154","2.8499999999999996","","",""
"1362.5","5","confid","","","html-slider-response","1369","1225937","0.0-4.0-10.153-0.153","","","","Rate your confidence","1",""
"596.3999999761581","i","choice","right","i","experimental","1376","1228327","0.0-4.0-8.154","true","155","2.9499999999999997","","",""
"2145.2000000476837","5","confid","","","html-slider-response","1378","1230979","0.0-4.0-10.154-0.154","","","","Rate your confidence","1",""
"512","e","choice","left","e","experimental","1385","1233276","0.0-4.0-8.155","true","156","2.9499999999999997","","",""
"1739.8999999761581","6","confid","","","html-slider-response","1387","1235523","0.0-4.0-10.155-0.155","","","","Rate your confidence","1",""
"187.70000004768372","e","choice","left","e","experimental","1394","1237510","0.0-4.0-8.156","true","157","2.8499999999999996","","",""
"1209.1000000238419","6","confid","","","html-slider-response","1396","1239224","0.0-4.0-10.156-0.156","","","","Rate your confidence","1",""
"378.6999999284744","e","choice","right","i","experimental","1403","1241391","0.0-4.0-8.157","false","158","2.8499999999999996","","",""
"1148.1000000238419","6","confid","","","html-slider-response","1405","1243042","0.0-4.0-10.157-0.157","","","","Rate your confidence","1",""
"201.5","e","choice","left","e","experimental","1412","1245033","0.0-4.0-8.158","true","159","2.9499999999999997","","",""
"1232.7999999523163","6","confid","","","html-slider-response","1414","1246769","0.0-4.0-10.158-0.158","","","","Rate your confidence","1",""
"220","e","choice","right","i","experimental","1421","1248779","0.0-4.0-8.159","false","160","2.9499999999999997","","",""
"1813","6","confid","","","html-slider-response","1423","1251096","0.0-4.0-10.159-0.159","","","","Rate your confidence","1",""
"354.39999997615814","e","choice","right","i","experimental","1430","1253239","0.0-4.0-8.160","false","161","3.05","","",""
"1448.5","6","confid","","","html-slider-response","1432","1255194","0.0-4.0-10.160-0.160","","","","Rate your confidence","1",""
"200.79999995231628","e","choice","left","e","experimental","1439","1257185","0.0-4.0-8.161","true","162","3.15","","",""
"1712","6","confid","","","html-slider-response","1441","1259399","0.0-4.0-10.161-0.161","","","","Rate your confidence","1",""
"417.1999999284744","e","choice","left","e","experimental","1448","1261613","0.0-4.0-8.162","true","163","3.15","","",""
"1855","6","confid","","","html-slider-response","1450","1263973","0.0-4.0-10.162-0.162","","","","Rate your confidence","1",""
"622.2000000476837","i","choice","right","i","experimental","1457","1266381","0.0-4.0-8.163","true","164","3.05","","",""
"1536.1000000238419","5","confid","","","html-slider-response","1459","1268420","0.0-4.0-10.163-0.163","","","","Rate your confidence","1",""
"645.1000000238419","e","choice","left","e","experimental","1466","1270857","0.0-4.0-8.164","true","165","3.05","","",""
"1585.3000000715256","6","confid","","","html-slider-response","1468","1272946","0.0-4.0-10.164-0.164","","","","Rate your confidence","1",""
"246.89999997615814","i","choice","right","i","experimental","1475","1274987","0.0-4.0-8.165","true","166","2.9499999999999997","","",""
"1527.2999999523163","6","confid","","","html-slider-response","1477","1277017","0.0-4.0-10.165-0.165","","","","Rate your confidence","1",""
"457.39999997615814","i","choice","right","i","experimental","1484","1279265","0.0-4.0-8.166","true","167","2.9499999999999997","","",""
"2249.5","6","confid","","","html-slider-response","1486","1282021","0.0-4.0-10.166-0.166","","","","Rate your confidence","1",""
"222.79999995231628","e","choice","left","e","experimental","1493","1284036","0.0-4.0-8.167","true","168","2.8499999999999996","","",""
"1804.7999999523163","6","confid","","","html-slider-response","1495","1286343","0.0-4.0-10.167-0.167","","","","Rate your confidence","1",""
"670.8000000715256","i","choice","left","e","experimental","1502","1288802","0.0-4.0-8.168","false","169","2.8499999999999996","","",""
"1286.6000000238419","6","confid","","","html-slider-response","1504","1290593","0.0-4.0-10.168-0.168","","","","Rate your confidence","1",""
"200.89999997615814","e","choice","right","i","experimental","1511","1292575","0.0-4.0-8.169","false","170","2.9499999999999997","","",""
"1989.2000000476837","1","confid","","","html-slider-response","1513","1295070","0.0-4.0-10.169-0.169","","","","Rate your confidence","1",""
"304.89999997615814","e","choice","left","e","experimental","1520","1297174","0.0-4.0-8.170","true","171","3.05","","",""
"1800.5","5","confid","","","html-slider-response","1522","1299478","0.0-4.0-10.170-0.170","","","","Rate your confidence","1",""
"2800.100000023842","i","choice","right","i","experimental","1529","1304065","0.0-4.0-8.171","true","172","3.05","","",""
"2155.2000000476837","1","confid","","","html-slider-response","1531","1306735","0.0-4.0-10.171-0.171","","","","Rate your confidence","1",""
"1971.2999999523163","e","choice","right","i","experimental","1538","1310498","0.0-4.0-8.172","false","173","2.9499999999999997","","",""
"1946","1","confid","","","html-slider-response","1540","1312948","0.0-4.0-10.172-0.172","","","","Rate your confidence","1",""
"843.1000000238419","i","choice","left","e","experimental","1547","1315582","0.0-4.0-8.173","false","174","3.05","","",""
"2042.1999999284744","1","confid","","","html-slider-response","1549","1318128","0.0-4.0-10.173-0.173","","","","Rate your confidence","1",""
"798.3000000715256","i","choice","left","e","experimental","1556","1320726","0.0-4.0-8.174","false","175","3.15","","",""
"3121.5","2","confid","","","html-slider-response","1558","1324350","0.0-4.0-10.174-0.174","","","","Rate your confidence","1",""
"601.1999999284744","i","choice","right","i","experimental","1565","1326743","0.0-4.0-8.175","true","176","3.25","","",""
"2474.2999999523163","3","confid","","","html-slider-response","1567","1329721","0.0-4.0-10.175-0.175","","","","Rate your confidence","1",""
"280.90000009536743","e","choice","left","e","experimental","1574","1331791","0.0-4.0-8.176","true","177","3.25","","",""
"1252.7000000476837","3","confid","","","html-slider-response","1576","1333551","0.0-4.0-10.176-0.176","","","","Rate your confidence","1",""
"363.60000002384186","e","choice","right","i","experimental","1583","1335709","0.0-4.0-8.177","false","178","3.15","","",""
"1690","2","confid","","","html-slider-response","1585","1337902","0.0-4.0-10.177-0.177","","","","Rate your confidence","1",""
"49.39999997615814","e","choice","right","i","experimental","1592","1339745","0.0-4.0-8.178","false","179","3.25","","",""
"1485.7000000476837","2","confid","","","html-slider-response","1594","1341734","0.0-4.0-10.178-0.178","","","","Rate your confidence","1",""
"478","e","choice","left","e","experimental","1601","1344004","0.0-4.0-8.179","true","180","3.35","","",""
"1307.3999999761581","3","confid","","","html-slider-response","1603","1345815","0.0-4.0-10.179-0.179","","","","Rate your confidence","1",""
"382.10000002384186","e","choice","left","e","experimental","1610","1347998","0.0-4.0-8.180","true","181","3.35","","",""
"1422.3999999761581","3","confid","","","html-slider-response","1612","1349923","0.0-4.0-10.180-0.180","","","","Rate your confidence","1",""
"321.10000002384186","e","choice","right","i","experimental","1619","1352036","0.0-4.0-8.181","false","182","3.25","","",""
"1119.5","3","confid","","","html-slider-response","1621","1353660","0.0-4.0-10.181-0.181","","","","Rate your confidence","1",""
"431.6999999284744","e","choice","left","e","experimental","1628","1355880","0.0-4.0-8.182","true","183","3.35","","",""
"1576.4000000953674","1","confid","","","html-slider-response","1630","1357962","0.0-4.0-10.182-0.182","","","","Rate your confidence","1",""
"254.60000002384186","i","choice","right","i","experimental","1637","1360023","0.0-4.0-8.183","true","184","3.35","","",""
"2422.7999999523163","2","confid","","","html-slider-response","1639","1362950","0.0-4.0-10.183-0.183","","","","Rate your confidence","1",""
"405.89999997615814","e","choice","left","e","experimental","1646","1365155","0.0-4.0-8.184","true","185","3.25","","",""
"2686","1","confid","","","html-slider-response","1648","1368345","0.0-4.0-10.184-0.184","","","","Rate your confidence","1",""
"24.799999952316284","e","choice","right","i","experimental","1655","1370161","0.0-4.0-8.185","false","186","3.25","","",""
"2961.100000023842","1","confid","","","html-slider-response","1657","1373627","0.0-4.0-10.185-0.185","","","","Rate your confidence","1",""
"2446","e","choice","right","i","experimental","1664","1377864","0.0-4.0-8.186","false","187","3.35","","",""
"2851.7999999523163","1","confid","","","html-slider-response","1666","1381221","0.0-4.0-10.186-0.186","","","","Rate your confidence","1",""
"769","e","choice","left","e","experimental","1673","1383779","0.0-4.0-8.187","true","188","3.45","","",""
"1975.8000000715256","1","confid","","","html-slider-response","1675","1386260","0.0-4.0-10.187-0.187","","","","Rate your confidence","1",""
"290.89999997615814","e","choice","left","e","experimental","1682","1388344","0.0-4.0-8.188","true","189","3.45","","",""
"1370.5","1","confid","","","html-slider-response","1684","1390217","0.0-4.0-10.188-0.188","","","","Rate your confidence","1",""
"468.7999999523163","e","choice","right","i","experimental","1691","1392474","0.0-4.0-8.189","false","190","3.35","","",""
"2558.6999999284744","2","confid","","","html-slider-response","1693","1395539","0.0-4.0-10.189-0.189","","","","Rate your confidence","1",""
"388","e","choice","left","e","experimental","1700","1397723","0.0-4.0-8.190","true","191","3.45","","",""
"3196.2999999523163","3","confid","","","html-slider-response","1702","1401424","0.0-4.0-10.190-0.190","","","","Rate your confidence","1",""
"2456.399999976158","e","choice","right","i","experimental","1709","1405666","0.0-4.0-8.191","false","192","3.45","","",""
"1989.1999999284744","1","confid","","","html-slider-response","1711","1408161","0.0-4.0-10.191-0.191","","","","Rate your confidence","1",""
"438.90000009536743","i","choice","right","i","experimental","1718","1410393","0.0-4.0-8.192","true","193","3.5500000000000003","","",""
"2917.7000000476837","2","confid","","","html-slider-response","1720","1413814","0.0-4.0-10.192-0.192","","","","Rate your confidence","1",""
"422.89999997615814","e","choice","left","e","experimental","1727","1416028","0.0-4.0-8.193","true","194","3.5500000000000003","","",""
"2414","1","confid","","","html-slider-response","1729","1418948","0.0-4.0-10.193-0.193","","","","Rate your confidence","1","81139"
