"rt","response","task","target_side","correct_response","trial_type","trial_index","time_elapsed","internal_node_id","correct","trial_number","n_dots","stimulus","slider_start","participant"
"1079.7000000476837","i","choice","left","e","practice","10","637392","0.0-4.0-8.0","false","1","4.25","","",""
"510.40000009536743","i","choice","right","i","practice","18","640196","0.0-4.0-8.1","true","2","4.65","","",""
"492.09999990463257","e","choice","left","e","practice","26","642973","0.0-4.0-8.2","true","3","4.65","","",""
"518.7999999523163","i","choice","right","i","practice","34","645774","0.0-4.0-8.3","true","4","4.25","","",""
"764.2000000476837","e","choice","left","e","practice","42","648817","0.0-4.0-8.4","true","5","4.25","","",""
"365.2000000476837","i","choice","right","i","practice","50","651467","0.0-4.0-8.5","true","6","3.85","","",""
"843.5999999046326","e","choice","left","e","practice","58","654582","0.0-4.0-8.6","true","7","3.85","","",""
"376.7000000476837","i","choice","right","i","practice","66","657235","0.0-4.0-8.7","true","8","3.65","","",""
"642.7999999523163","i","choice","right","i","practice","74","660163","0.0-4.0-8.8","true","9","3.65","","",""
"635.3999998569489","i","choice","left","e","practice","82","663081","0.0-4.0-8.9","false","10","3.4499999999999997","","",""
"532.3000001907349","i","choice","left","e","practice","90","665890","0.0-4.0-8.10","false","11","3.65","","",""
"543.9000000953674","i","choice","right","i","practice","98","668716","0.0-4.0-8.11","true","12","3.75","","",""
"649","i","choice","left","e","practice","106","671649","0.0-4.0-8.12","false","13","3.75","","",""
"1655","i","choice","right","i","practice","114","675579","0.0-4.0-8.13","true","14","3.85","","",""
"523.2000000476837","i","choice","right","i","practice","122","678387","0.0-4.0-8.14","true","15","3.85","","",""
"2495.899999856949","i","choice","left","e","practice","130","683161","0.0-4.0-8.15","false","16","3.75","","",""
"617.9000000953674","i","choice","right","i","practice","138","686061","0.0-4.0-8.16","true","17","3.85","","",""
"4505.900000095367","i","choice","left","e","practice","146","692859","0.0-4.0-8.17","false","18","3.85","","",""
"1012.9000000953674","i","choice","right","i","practice","154","696148","0.0-4.0-8.18","true","19","3.95","","",""
"525.2999999523163","e","choice","left","e","practice","162","698940","0.0-4.0-8.19","true","20","3.95","","",""
"444.10000014305115","i","choice","right","i","practice","170","701656","0.0-4.0-8.20","true","21","3.85","","",""
"758.2000000476837","i","choice","left","e","practice","178","704682","0.0-4.0-8.21","false","22","3.85","","",""
"339.7999999523163","i","choice","right","i","practice","186","707291","0.0-4.0-8.22","true","23","3.95","","",""
"736.7000000476837","e","choice","left","e","practice","194","710304","0.0-4.0-8.23","true","24","3.95","","",""
"330.09999990463257","i","choice","right","i","practice","202","712916","0.0-4.0-8.24","true","25","3.85","","",""
"684.6000001430511","e","choice","left","e","practice","210","715879","0.0-4.0-8.25","true","26","3.85","","",""
"786.4000000953674","i","choice","right","i","experimental","221","788203","0.0-4.0-8.26","true","27","3.75","","",""
"6160.900000095367","4","confid","","","html-slider-response","223","794872","0.0-4.0-10.26-0.26","","","","Rate your confidence","1",""
"8062.399999856949","i","choice","left","e","experimental","230","804713","0.0-4.0-8.27","false","28","3.75","","",""
"4232.600000143051","2","confid","","","html-slider-response","232","809449","0.0-4.0-10.27-0.27","","","","Rate your confidence","1",""
"1698.5999999046326","e","choice","left","e","experimental","239","812925","0.0-4.0-8.28","true","29","3.85","","",""
"3169.9000000953674","3","confid","","","html-slider-response","241","816605","0.0-4.0-10.28-0.28","","","","Rate your confidence","1",""
"643.5","i","choice","right","i","experimental","248","819025","0.0-4.0-8.29","true","30","3.85","","",""
"3342.0999999046326","5","confid","","","html-slider-response","250","822871","0.0-4.0-10.29-0.29","","","","Rate your confidence","1",""
"5115.5","e","choice","left","e","experimental","257","829768","0.0-4.0-8.30","true","31","3.75","","",""
"5782.600000143051","2","confid","","","html-slider-response","259","836054","0.0-4.0-10.30-0.30","","","","Rate your confidence","1",""
"719.8999998569489","i","choice","right","i","experimental","266","838555","0.0-4.0-8.31","true","32","3.75","","",""
"3019.0999999046326","5","confid","","","html-slider-response","268","842077","0.0-4.0-10.31-0.31","","","","Rate your confidence","1",""
"891.7000000476837","i","choice","right","i","experimental","275","844749","0.0-4.0-8.32","true","33","3.65","","",""
"13814","3","confid","","","html-slider-response","277","859066","0.0-4.0-10.32-0.32","","","","Rate your confidence","1",""
"1003","i","choice","left","e","experimental","284","861843","0.0-4.0-8.33","false","34","3.65","","",""
"3762.399999856949","4","confid","","","html-slider-response","286","866108","0.0-4.0-10.33-0.33","","","","Rate your confidence","1",""
"466.19999980926514","i","choice","right","i","experimental","293","868351","0.0-4.0-8.34","true","35","3.75","","",""
"4478.699999809265","5","confid","","","html-slider-response","295","873333","0.0-4.0-10.34-0.34","","","","Rate your confidence","1",""
"1112.7999999523163","e","choice","left","e","experimental","302","876227","0.0-4.0-8.35","true","36","3.75","","",""
"3128.100000143051","2","confid","","","html-slider-response","304","879859","0.0-4.0-10.35-0.35","","","","Rate your confidence","1",""
"578.7999999523163","i","choice","right","i","experimental","311","882218","0.0-4.0-8.36","true","37","3.65","","",""
"2839.0999999046326","4","confid","","","html-slider-response","313","885560","0.0-4.0-10.36-0.36","","","","Rate your confidence","1",""
"807.5","e","choice","left","e","experimental","320","888157","0.0-4.0-8.37","true","38","3.65","","",""
"3167.399999856949","3","confid","","","html-slider-response","322","891828","0.0-4.0-10.37-0.37","","","","Rate your confidence","1",""
"617.2999999523163","i","choice","left","e","experimental","329","894221","0.0-4.0-8.38","false","39","3.55","","",""
"5007.199999809265","3","confid","","","html-slider-response","331","899732","0.0-4.0-10.38-0.38","","","","Rate your confidence","1",""
"462.5","i","choice","right","i","experimental","338","901975","0.0-4.0-8.39","true","40","3.65","","",""
"3729.9000000953674","5","confid","","","html-slider-response","340","906208","0.0-4.0-10.39-0.39","","","","Rate your confidence","1",""
"859.4000000953674","e","choice","left","e","experimental","347","908844","0.0-4.0-8.40","true","41","3.65","","",""
"5796","3","confid","","","html-slider-response","349","915144","0.0-4.0-10.40-0.40","","","","Rate your confidence","1",""
"593.1000001430511","i","choice","right","i","experimental","356","917521","0.0-4.0-8.41","true","42","3.55","","",""
"2823.2999999523163","3","confid","","","html-slider-response","358","920848","0.0-4.0-10.41-0.41","","","","Rate your confidence","1",""
"531.8000001907349","i","choice","left","e","experimental","365","923154","0.0-4.0-8.42","false","43","3.55","","",""
"2368.899999856949","2","confid","","","html-slider-response","367","926027","0.0-4.0-10.42-0.42","","","","Rate your confidence","1",""
"357","i","choice","right","i","experimental","374","928158","0.0-4.0-8.43","true","44","3.65","","",""
"3006.5999999046326","5","confid","","","html-slider-response","376","931669","0.0-4.0-10.43-0.43","","","","Rate your confidence","1",""
"644.7999999523163","i","choice","right","i","experimental","383","934087","0.0-4.0-8.44","true","45","3.65","","",""
"2938","4","confid","","","html-slider-response","385","937529","0.0-4.0-10.44-0.44","","","","Rate your confidence","1",""
"2020.3999998569489","e","choice","left","e","experimental","392","941323","0.0-4.0-8.45","true","46","3.55","","",""
"3924.5999999046326","1","confid","","","html-slider-response","394","945750","0.0-4.0-10.45-0.45","","","","Rate your confidence","1",""
"578.2000000476837","i","choice","right","i","experimental","401","948111","0.0-4.0-8.46","true","47","3.55","","",""
"3078.5999999046326","2","confid","","","html-slider-response","403","951692","0.0-4.0-10.46-0.46","","","","Rate your confidence","1",""
"457.39999985694885","i","choice","left","e","experimental","410","953927","0.0-4.0-8.47","false","48","3.4499999999999997","","",""
"2063.4000000953674","3","confid","","","html-slider-response","412","956494","0.0-4.0-10.47-0.47","","","","Rate your confidence","1",""
"877.1999998092651","i","choice","right","i","experimental","419","959143","0.0-4.0-8.48","true","49","3.55","","",""
"3013.2999999523163","2","confid","","","html-slider-response","421","962659","0.0-4.0-10.48-0.48","","","","Rate your confidence","1",""
"682.5","i","choice","left","e","experimental","428","965117","0.0-4.0-8.49","false","50","3.55","","",""
"2691.7000000476837","2","confid","","","html-slider-response","430","968313","0.0-4.0-10.49-0.49","","","","Rate your confidence","1",""
"295.59999990463257","i","choice","right","i","experimental","437","970393","0.0-4.0-8.50","true","51","3.65","","",""
"2050.399999856949","3","confid","","","html-slider-response","439","972947","0.0-4.0-10.50-0.50","","","","Rate your confidence","1",""
"1084.1999998092651","e","choice","left","e","experimental","446","975813","0.0-4.0-8.51","true","52","3.65","","",""
"4837.299999952316","2","confid","","","html-slider-response","448","981154","0.0-4.0-10.51-0.51","","","","Rate your confidence","1",""
"906","e","choice","left","e","experimental","455","983834","0.0-4.0-8.52","true","53","3.55","","",""
"6549.700000047684","2","confid","","","html-slider-response","457","990887","0.0-4.0-10.52-0.52","","","","Rate your confidence","1",""
"1185.4000000953674","e","choice","right","i","experimental","464","993850","0.0-4.0-8.53","false","54","3.55","","",""
"4223.400000095367","1","confid","","","html-slider-response","466","998576","0.0-4.0-10.53-0.53","","","","Rate your confidence","1",""
"425.30000019073486","i","choice","right","i","experimental","473","1000777","0.0-4.0-8.54","true","55","3.65","","",""
"2613.5","4","confid","","","html-slider-response","475","1003894","0.0-4.0-10.54-0.54","","","","Rate your confidence","1",""
"536.6000001430511","e","choice","left","e","experimental","482","1006207","0.0-4.0-8.55","true","56","3.65","","",""
"5305.900000095367","2","confid","","","html-slider-response","484","1012016","0.0-4.0-10.55-0.55","","","","Rate your confidence","1",""
"398.59999990463257","i","choice","right","i","experimental","491","1014190","0.0-4.0-8.56","true","57","3.55","","",""
"2403.2000000476837","4","confid","","","html-slider-response","493","1017096","0.0-4.0-10.56-0.56","","","","Rate your confidence","1",""
"1075.7000000476837","e","choice","left","e","experimental","500","1019952","0.0-4.0-8.57","true","58","3.55","","",""
"2145.300000190735","2","confid","","","html-slider-response","502","1022600","0.0-4.0-10.57-0.57","","","","Rate your confidence","1",""
"319.59999990463257","e","choice","left","e","experimental","509","1024695","0.0-4.0-8.58","true","59","3.4499999999999997","","",""
"3702.699999809265","6","confid","","","html-slider-response","511","1028902","0.0-4.0-10.58-0.58","","","","Rate your confidence","1",""
"942.3999998569489","e","choice","right","i","experimental","518","1031617","0.0-4.0-8.59","false","60","3.4499999999999997","","",""
"3562.7000000476837","1","confid","","","html-slider-response","520","1035683","0.0-4.0-10.59-0.59","","","","Rate your confidence","1",""
"503.40000009536743","i","choice","left","e","experimental","527","1037967","0.0-4.0-8.60","false","61","3.55","","",""
"2796.2000000476837","5","confid","","","html-slider-response","529","1041266","0.0-4.0-10.60-0.60","","","","Rate your confidence","1",""
"447.40000009536743","i","choice","right","i","experimental","536","1043498","0.0-4.0-8.61","true","62","3.65","","",""
"3947.5","3","confid","","","html-slider-response","538","1047949","0.0-4.0-10.61-0.61","","","","Rate your confidence","1",""
"317.5","i","choice","right","i","experimental","545","1050049","0.0-4.0-8.62","true","63","3.65","","",""
"4203.400000095367","3","confid","","","html-slider-response","547","1054755","0.0-4.0-10.62-0.62","","","","Rate your confidence","1",""
"469.39999985694885","e","choice","left","e","experimental","554","1057000","0.0-4.0-8.63","true","64","3.55","","",""
"2337.899999856949","2","confid","","","html-slider-response","556","1059841","0.0-4.0-10.63-0.63","","","","Rate your confidence","1",""
"548.4000000953674","i","choice","right","i","experimental","563","1062168","0.0-4.0-8.64","true","65","3.55","","",""
"2922.2999999523163","3","confid","","","html-slider-response","565","1065593","0.0-4.0-10.64-0.64","","","","Rate your confidence","1",""
"452","e","choice","left","e","experimental","572","1067829","0.0-4.0-8.65","true","66","3.4499999999999997","","",""
"2151.100000143051","2","confid","","","html-slider-response","574","1070482","0.0-4.0-10.65-0.65","","","","Rate your confidence","1",""
"249.59999990463257","i","choice","right","i","experimental","581","1072507","0.0-4.0-8.66","true","67","3.4499999999999997","","",""
"2861.7999999523163","6","confid","","","html-slider-response","583","1075873","0.0-4.0-10.66-0.66","","","","Rate your confidence","1",""
"478.40000009536743","e","choice","left","e","experimental","590","1078129","0.0-4.0-8.67","true","68","3.3499999999999996","","",""
"2201.899999856949","5","confid","","","html-slider-response","592","1080833","0.0-4.0-10.67-0.67","","","","Rate your confidence","1",""
"1489.9000000953674","i","choice","left","e","experimental","600","3117166","0.0-4.0-8.68","false","69","3.3499999999999996","","",""
"4854.900000095367","2","confid","","","html-slider-response","602","3122524","0.0-4.0-10.68-0.68","","","","Rate your confidence","1",""
"355.60000014305115","i","choice","right","i","experimental","609","3124656","0.0-4.0-8.69","true","70","3.4499999999999997","","",""
"2413.5","5","confid","","","html-slider-response","611","3127573","0.0-4.0-10.69-0.69","","","","Rate your confidence","1",""
"315","i","choice","right","i","experimental","618","3129670","0.0-4.0-8.70","true","71","3.4499999999999997","","",""
"1677.7999999523163","5","confid","","","html-slider-response","620","3131851","0.0-4.0-10.70-0.70","","","","Rate your confidence","1",""
"1685.0999999046326","i","choice","left","e","experimental","627","3135318","0.0-4.0-8.71","false","72","3.3499999999999996","","",""
"4688.899999856949","2","confid","","","html-slider-response","629","3140510","0.0-4.0-10.71-0.71","","","","Rate your confidence","1",""
"1938.9000000953674","i","choice","right","i","experimental","636","3144223","0.0-4.0-8.72","true","73","3.4499999999999997","","",""
"2295","1","confid","","","html-slider-response","638","3147022","0.0-4.0-10.72-0.72","","","","Rate your confidence","1",""
"2179.899999856949","i","choice","left","e","experimental","645","3150979","0.0-4.0-8.73","false","74","3.4499999999999997","","",""
"2359.899999856949","1","confid","","","html-slider-response","647","3153842","0.0-4.0-10.73-0.73","","","","Rate your confidence","1",""
"2777.7000000476837","i","choice","left","e","experimental","654","3158404","0.0-4.0-8.74","false","75","3.55","","",""
"1692.7000000476837","1","confid","","","html-slider-response","656","3160600","0.0-4.0-10.74-0.74","","","","Rate your confidence","1",""
"570.7999999523163","i","choice","right","i","experimental","663","3162955","0.0-4.0-8.75","true","76","3.65","","",""
"1984","2","confid","","","html-slider-response","665","3165442","0.0-4.0-10.75-0.75","","","","Rate your confidence","1",""
"387.40000009536743","i","choice","right","i","experimental","672","3167606","0.0-4.0-8.76","true","77","3.65","","",""
"3119.0999999046326","3","confid","","","html-slider-response","674","3171228","0.0-4.0-10.76-0.76","","","","Rate your confidence","1",""
"5037.5","e","choice","left","e","experimental","681","3178048","0.0-4.0-8.77","true","78","3.55","","",""
"1705.2000000476837","1","confid","","","html-slider-response","683","3180257","0.0-4.0-10.77-0.77","","","","Rate your confidence","1",""
"1816.6000001430511","i","choice","right","i","experimental","690","3183855","0.0-4.0-8.78","true","79","3.55","","",""
"1415","2","confid","","","html-slider-response","692","3185772","0.0-4.0-10.78-0.78","","","","Rate your confidence","1",""
"1483.2000000476837","e","choice","left","e","experimental","699","3189040","0.0-4.0-8.79","true","80","3.4499999999999997","","",""
"1859.3999998569489","1","confid","","","html-slider-response","701","3191404","0.0-4.0-10.79-0.79","","","","Rate your confidence","1",""
"3914","e","choice","left","e","experimental","708","3197102","0.0-4.0-8.80","true","81","3.4499999999999997","","",""
"1626.5","1","confid","","","html-slider-response","710","3199240","0.0-4.0-10.80-0.80","","","","Rate your confidence","1",""
"657.6999998092651","i","choice","right","i","experimental","717","3201679","0.0-4.0-8.81","true","82","3.3499999999999996","","",""
"1404.5","2","confid","","","html-slider-response","719","3203587","0.0-4.0-10.81-0.81","","","","Rate your confidence","1",""
"1317.7000000476837","e","choice","left","e","experimental","726","3206680","0.0-4.0-8.82","true","83","3.3499999999999996","","",""
"1493.2999999523163","1","confid","","","html-slider-response","728","3208676","0.0-4.0-10.82-0.82","","","","Rate your confidence","1",""
"1291.5","e","choice","right","i","experimental","735","3211741","0.0-4.0-8.83","false","84","3.2499999999999996","","",""
"3475.2999999523163","1","confid","","","html-slider-response","737","3215720","0.0-4.0-10.83-0.83","","","","Rate your confidence","1",""
"1945.6999998092651","i","choice","left","e","experimental","744","3219450","0.0-4.0-8.84","false","85","3.3499999999999996","","",""
"2386.9000000953674","1","confid","","","html-slider-response","746","3222340","0.0-4.0-10.84-0.84","","","","Rate your confidence","1",""
"474.5","e","choice","right","i","experimental","753","3224592","0.0-4.0-8.85","false","86","3.4499999999999997","","",""
"1767.5","1","confid","","","html-slider-response","755","3226863","0.0-4.0-10.85-0.85","","","","Rate your confidence","1",""
"986.7000000476837","i","choice","left","e","experimental","762","3229625","0.0-4.0-8.86","false","87","3.55","","",""
"2862.9000000953674","2","confid","","","html-slider-response","764","3232992","0.0-4.0-10.86-0.86","","","","Rate your confidence","1",""
"339.2999999523163","i","choice","right","i","experimental","771","3235111","0.0-4.0-8.87","true","88","3.65","","",""
"1524.7000000476837","2","confid","","","html-slider-response","773","3237140","0.0-4.0-10.87-0.87","","","","Rate your confidence","1",""
"846.7000000476837","i","choice","right","i","experimental","780","3239768","0.0-4.0-8.88","true","89","3.65","","",""
"1572","2","confid","","","html-slider-response","782","3241844","0.0-4.0-10.88-0.88","","","","Rate your confidence","1",""
"420.7999999523163","e","choice","left","e","experimental","789","3244042","0.0-4.0-8.89","true","90","3.55","","",""
"1553.2999999523163","3","confid","","","html-slider-response","791","3246097","0.0-4.0-10.89-0.89","","","","Rate your confidence","1",""
"1400.1999998092651","e","choice","left","e","experimental","798","3249272","0.0-4.0-8.90","true","91","3.55","","",""
"1876.4000000953674","3","confid","","","html-slider-response","800","3251653","0.0-4.0-10.90-0.90","","","","Rate your confidence","1",""
"2097.5","i","choice","right","i","experimental","807","3255527","0.0-4.0-8.91","true","92","3.4499999999999997","","",""
"1818.2000000476837","1","confid","","","html-slider-response","809","3257848","0.0-4.0-10.91-0.91","","","","Rate your confidence","1",""
"2731","i","choice","right","i","experimental","816","3262354","0.0-4.0-8.92","true","93","3.4499999999999997","","",""
"2500","2","confid","","","html-slider-response","818","3265358","0.0-4.0-10.92-0.92","","","","Rate your confidence","1",""
"2695.5","e","choice","left","e","experimental","825","3269821","0.0-4.0-8.93","true","94","3.3499999999999996","","",""
"2069.5","1","confid","","","html-slider-response","827","3272394","0.0-4.0-10.93-0.93","","","","Rate your confidence","1",""
"4593.199999809265","e","choice","left","e","experimental","834","3278755","0.0-4.0-8.94","true","95","3.3499999999999996","","",""
"1726","1","confid","","","html-slider-response","836","3280985","0.0-4.0-10.94-0.94","","","","Rate your confidence","1",""
"4172.900000095367","i","choice","right","i","experimental","843","3286928","0.0-4.0-8.95","true","96","3.2499999999999996","","",""
"1489.9000000953674","1","confid","","","html-slider-response","845","3288921","0.0-4.0-10.95-0.95","","","","Rate your confidence","1",""
"906.5","e","choice","left","e","experimental","852","3291603","0.0-4.0-8.96","true","97","3.2499999999999996","","",""
"1960.7000000476837","2","confid","","","html-slider-response","854","3294067","0.0-4.0-10.96-0.96","","","","Rate your confidence","1",""
"1032.2000000476837","e","choice","right","i","experimental","861","3296876","0.0-4.0-8.97","false","98","3.1499999999999995","","",""
"1729","1","confid","","","html-slider-response","863","3299109","0.0-4.0-10.97-0.97","","","","Rate your confidence","1",""
"459.90000009536743","e","choice","right","i","experimental","870","3301344","0.0-4.0-8.98","false","99","3.2499999999999996","","",""
"1585.4000000953674","1","confid","","","html-slider-response","872","3303432","0.0-4.0-10.98-0.98","","","","Rate your confidence","1",""
"336.10000014305115","e","choice","left","e","experimental","879","3305553","0.0-4.0-8.99","true","100","3.3499999999999996","","",""
"1392.4000000953674","4","confid","","","html-slider-response","881","3307462","0.0-4.0-10.99-0.99","","","","Rate your confidence","1",""
"583.2000000476837","e","choice","left","e","experimental","888","3309831","0.0-4.0-8.100","true","101","3.3499999999999996","","",""
"1352","3","confid","","","html-slider-response","890","3311693","0.0-4.0-10.100-0.100","","","","Rate your confidence","1",""
"481.59999990463257","i","choice","right","i","experimental","897","3313949","0.0-4.0-8.101","true","102","3.2499999999999996","","",""
"2397.7999999523163","3","confid","","","html-slider-response","899","3316851","0.0-4.0-10.101-0.101","","","","Rate your confidence","1",""
"441.7000000476837","i","choice","right","i","experimental","906","3319082","0.0-4.0-8.102","true","103","3.2499999999999996","","",""
"2102.199999809265","3","confid","","","html-slider-response","908","3321688","0.0-4.0-10.102-0.102","","","","Rate your confidence","1",""
"1880.5","e","choice","left","e","experimental","915","3325347","0.0-4.0-8.103","true","104","3.1499999999999995","","",""
"1664.9000000953674","1","confid","","","html-slider-response","917","3327515","0.0-4.0-10.103-0.103","","","","Rate your confidence","1",""
"1713.7000000476837","i","choice","left","e","experimental","924","3331005","0.0-4.0-8.104","false","105","3.1499999999999995","","",""
"1675.9000000953674","2","confid","","","html-slider-response","926","3333185","0.0-4.0-10.104-0.104","","","","Rate your confidence","1",""
"352.40000009536743","i","choice","right","i","experimental","933","3335314","0.0-4.0-8.105","true","106","3.2499999999999996","","",""
"1446.3999998569489","1","confid","","","html-slider-response","935","3337265","0.0-4.0-10.105-0.105","","","","Rate your confidence","1",""
"449.19999980926514","e","choice","left","e","experimental","942","3339492","0.0-4.0-8.106","true","107","3.2499999999999996","","",""
"2461.4000000953674","3","confid","","","html-slider-response","944","3342465","0.0-4.0-10.106-0.106","","","","Rate your confidence","1",""
"471.7000000476837","i","choice","right","i","experimental","951","3344718","0.0-4.0-8.107","true","108","3.1499999999999995","","",""
"1436","3","confid","","","html-slider-response","953","3346659","0.0-4.0-10.107-0.107","","","","Rate your confidence","1",""
"421.2000000476837","e","choice","left","e","experimental","960","3348851","0.0-4.0-8.108","true","109","3.1499999999999995","","",""
"1382.6000001430511","3","confid","","","html-slider-response","962","3350738","0.0-4.0-10.108-0.108","","","","Rate your confidence","1",""
"382.89999985694885","e","choice","right","i","experimental","969","3352895","0.0-4.0-8.109","false","110","3.0499999999999994","","",""
"1611.4000000953674","2","confid","","","html-slider-response","971","3355010","0.0-4.0-10.109-0.109","","","","Rate your confidence","1",""
"497.7000000476837","i","choice","right","i","experimental","979","3359922","0.0-4.0-8.110","true","111","3.1499999999999995","","",""
"1427.2999999523163","2","confid","","","html-slider-response","981","3361853","0.0-4.0-10.110-0.110","","","","Rate your confidence","1",""
"2004.0999999046326","e","choice","left","e","experimental","988","3365640","0.0-4.0-8.111","true","112","3.1499999999999995","","",""
"2079.100000143051","2","confid","","","html-slider-response","990","3368223","0.0-4.0-10.111-0.111","","","","Rate your confidence","1",""
"730.5999999046326","e","choice","right","i","experimental","997","3370735","0.0-4.0-8.112","false","113","3.0499999999999994","","",""
"1983.7000000476837","1","confid","","","html-slider-response","999","3373223","0.0-4.0-10.112-0.112","","","","Rate your confidence","1",""
"655.2000000476837","e","choice","left","e","experimental","1006","3375654","0.0-4.0-8.113","true","114","3.1499999999999995","","",""
"1588.6000001430511","1","confid","","","html-slider-response","1008","3377746","0.0-4.0-10.113-0.113","","","","Rate your confidence","1",""
"457.60000014305115","i","choice","right","i","experimental","1015","3379978","0.0-4.0-8.114","true","115","3.1499999999999995","","",""
"2140.5","1","confid","","","html-slider-response","1017","3382621","0.0-4.0-10.114-0.114","","","","Rate your confidence","1",""
"492.59999990463257","i","choice","left","e","experimental","1024","3384890","0.0-4.0-8.115","false","116","3.0499999999999994","","",""
"1438.7999999523163","1","confid","","","html-slider-response","1026","3386832","0.0-4.0-10.115-0.115","","","","Rate your confidence","1",""
"337.7999999523163","i","choice","right","i","experimental","1033","3388948","0.0-4.0-8.116","true","117","3.1499999999999995","","",""
"1485.3999998569489","2","confid","","","html-slider-response","1035","3390937","0.0-4.0-10.116-0.116","","","","Rate your confidence","1",""
"530.3000001907349","i","choice","left","e","experimental","1042","3393251","0.0-4.0-8.117","false","118","3.1499999999999995","","",""
"1347","2","confid","","","html-slider-response","1044","3395102","0.0-4.0-10.117-0.117","","","","Rate your confidence","1",""
"455.7999999523163","e","choice","right","i","experimental","1051","3397337","0.0-4.0-8.118","false","119","3.2499999999999996","","",""
"1324.5999999046326","2","confid","","","html-slider-response","1053","3399165","0.0-4.0-10.118-0.118","","","","Rate your confidence","1",""
"1786.2000000476837","e","choice","left","e","experimental","1060","3402732","0.0-4.0-8.119","true","120","3.3499999999999996","","",""
"1845","2","confid","","","html-slider-response","1062","3405081","0.0-4.0-10.119-0.119","","","","Rate your confidence","1",""
"121.59999990463257","i","choice","right","i","experimental","1069","3406979","0.0-4.0-8.120","true","121","3.3499999999999996","","",""
"1753.3000001907349","4","confid","","","html-slider-response","1071","3409234","0.0-4.0-10.120-0.120","","","","Rate your confidence","1",""
"2005.3000001907349","e","choice","left","e","experimental","1078","3413021","0.0-4.0-8.121","true","122","3.2499999999999996","","",""
"3563.5999999046326","1","confid","","","html-slider-response","1080","3417087","0.0-4.0-10.121-0.121","","","","Rate your confidence","1",""
"1298.7999999523163","e","choice","left","e","experimental","1087","3420171","0.0-4.0-8.122","true","123","3.2499999999999996","","",""
"2180.0999999046326","2","confid","","","html-slider-response","1089","3422854","0.0-4.0-10.122-0.122","","","","Rate your confidence","1",""
"110.10000014305115","i","choice","right","i","experimental","1096","3424746","0.0-4.0-8.123","true","124","3.1499999999999995","","",""
"2695.100000143051","3","confid","","","html-slider-response","1098","3427944","0.0-4.0-10.123-0.123","","","","Rate your confidence","1",""
"381.69999980926514","e","choice","right","i","experimental","1105","3430105","0.0-4.0-8.124","false","125","3.1499999999999995","","",""
"1639.2999999523163","3","confid","","","html-slider-response","1107","3432249","0.0-4.0-10.124-0.124","","","","Rate your confidence","1",""
"323.09999990463257","i","choice","left","e","experimental","1114","3434348","0.0-4.0-8.125","false","126","3.2499999999999996","","",""
"1514.1999998092651","3","confid","","","html-slider-response","1116","3436366","0.0-4.0-10.125-0.125","","","","Rate your confidence","1",""
"338.80000019073486","e","choice","left","e","experimental","1123","3438484","0.0-4.0-8.126","true","127","3.3499999999999996","","",""
"1760.3999998569489","3","confid","","","html-slider-response","1125","3440748","0.0-4.0-10.126-0.126","","","","Rate your confidence","1",""
"260.2000000476837","i","choice","right","i","experimental","1132","3442791","0.0-4.0-8.127","true","128","3.3499999999999996","","",""
"1694.5","4","confid","","","html-slider-response","1134","3444988","0.0-4.0-10.127-0.127","","","","Rate your confidence","1",""
"803.7999999523163","e","choice","right","i","experimental","1141","3447570","0.0-4.0-8.128","false","129","3.2499999999999996","","",""
"1605.5999999046326","2","confid","","","html-slider-response","1143","3449679","0.0-4.0-10.128-0.128","","","","Rate your confidence","1",""
"376","i","choice","left","e","experimental","1150","3451832","0.0-4.0-8.129","false","130","3.3499999999999996","","",""
"2935.5","2","confid","","","html-slider-response","1152","3455271","0.0-4.0-10.129-0.129","","","","Rate your confidence","1",""
"798.1000001430511","e","choice","left","e","experimental","1159","3457850","0.0-4.0-8.130","true","131","3.4499999999999997","","",""
"1436.7999999523163","1","confid","","","html-slider-response","1161","3459789","0.0-4.0-10.130-0.130","","","","Rate your confidence","1",""
"411.7999999523163","i","choice","right","i","experimental","1168","3461988","0.0-4.0-8.131","true","132","3.4499999999999997","","",""
"2058.0999999046326","4","confid","","","html-slider-response","1170","3464549","0.0-4.0-10.131-0.131","","","","Rate your confidence","1",""
"362.2999999523163","e","choice","right","i","experimental","1177","3466688","0.0-4.0-8.132","false","133","3.3499999999999996","","",""
"1308.8000001907349","2","confid","","","html-slider-response","1179","3468501","0.0-4.0-10.132-0.132","","","","Rate your confidence","1",""
"518.3999998569489","e","choice","left","e","experimental","1186","3470798","0.0-4.0-8.133","true","134","3.4499999999999997","","",""
"1094.3000001907349","2","confid","","","html-slider-response","1188","3472404","0.0-4.0-10.133-0.133","","","","Rate your confidence","1",""
"291.5","i","choice","right","i","experimental","1195","3474471","0.0-4.0-8.134","true","135","3.4499999999999997","","",""
"1628.6999998092651","4","confid","","","html-slider-response","1197","3476604","0.0-4.0-10.134-0.134","","","","Rate your confidence","1",""
"457.69999980926514","e","choice","left","e","experimental","1204","3478847","0.0-4.0-8.135","true","136","3.3499999999999996","","",""
"1514.7999999523163","5","confid","","","html-slider-response","1206","3480867","0.0-4.0-10.135-0.135","","","","Rate your confidence","1",""
"353.5","i","choice","right","i","experimental","1213","3483006","0.0-4.0-8.136","true","137","3.3499999999999996","","",""
"3211.399999856949","6","confid","","","html-slider-response","1215","3486722","0.0-4.0-10.136-0.136","","","","Rate your confidence","1",""
"612.6999998092651","i","choice","left","e","experimental","1222","3489112","0.0-4.0-8.137","false","138","3.2499999999999996","","",""
"1641.5","2","confid","","","html-slider-response","1224","3491267","0.0-4.0-10.137-0.137","","","","Rate your confidence","1",""
"359.7000000476837","i","choice","left","e","experimental","1231","3493405","0.0-4.0-8.138","false","139","3.3499999999999996","","",""
"1977","3","confid","","","html-slider-response","1233","3495886","0.0-4.0-10.138-0.138","","","","Rate your confidence","1",""
"315.7999999523163","i","choice","right","i","experimental","1240","3497980","0.0-4.0-8.139","true","140","3.4499999999999997","","",""
"1564.7999999523163","3","confid","","","html-slider-response","1242","3500048","0.0-4.0-10.139-0.139","","","","Rate your confidence","1",""
"1899","i","choice","right","i","experimental","1249","3503733","0.0-4.0-8.140","true","141","3.4499999999999997","","",""
"4157.599999904633","2","confid","","","html-slider-response","1251","3508393","0.0-4.0-10.140-0.140","","","","Rate your confidence","1",""
"547.2999999523163","e","choice","left","e","experimental","1258","3510720","0.0-4.0-8.141","true","142","3.3499999999999996","","",""
"2916.5999999046326","2","confid","","","html-slider-response","1260","3514140","0.0-4.0-10.141-0.141","","","","Rate your confidence","1",""
"258.2000000476837","i","choice","right","i","experimental","1267","3516179","0.0-4.0-8.142","true","143","3.3499999999999996","","",""
"1332.2999999523163","2","confid","","","html-slider-response","1269","3518014","0.0-4.0-10.142-0.142","","","","Rate your confidence","1",""
"383.7000000476837","i","choice","left","e","experimental","1276","3520175","0.0-4.0-8.143","false","144","3.2499999999999996","","",""
"1894.4000000953674","1","confid","","","html-slider-response","1278","3522574","0.0-4.0-10.143-0.143","","","","Rate your confidence","1",""
"897.5999999046326","i","choice","right","i","experimental","1285","3525257","0.0-4.0-8.144","true","145","3.3499999999999996","","",""
"1405.7000000476837","1","confid","","","html-slider-response","1287","3527166","0.0-4.0-10.144-0.144","","","","Rate your confidence","1",""
"827.3999998569489","i","choice","left","e","experimental","1294","3529771","0.0-4.0-8.145","false","146","3.3499999999999996","","",""
"2364.2000000476837","1","confid","","","html-slider-response","1296","3532638","0.0-4.0-10.145-0.145","","","","Rate your confidence","1",""
"335.39999985694885","i","choice","right","i","experimental","1303","3534749","0.0-4.0-8.146","true","147","3.4499999999999997","","",""
"1290.7000000476837","2","confid","","","html-slider-response","1305","3536542","0.0-4.0-10.146-0.146","","","","Rate your confidence","1",""
"1252.5999999046326","e","choice","left","e","experimental","1312","3539575","0.0-4.0-8.147","true","148","3.4499999999999997","","",""
"1276","2","confid","","","html-slider-response","1314","3541357","0.0-4.0-10.147-0.147","","","","Rate your confidence","1",""
"780.0999999046326","e","choice","left","e","experimental","1321","3543920","0.0-4.0-8.148","true","149","3.3499999999999996","","",""
"1690.8999998569489","1","confid","","","html-slider-response","1323","3546114","0.0-4.0-10.148-0.148","","","","Rate your confidence","1",""
"667.9000000953674","i","choice","right","i","experimental","1330","3548561","0.0-4.0-8.149","true","150","3.3499999999999996","","",""
"3008.2000000476837","2","confid","","","html-slider-response","1332","3552074","0.0-4.0-10.149-0.149","","","","Rate your confidence","1",""
"408.80000019073486","i","choice","right","i","experimental","1339","3554261","0.0-4.0-8.150","true","151","3.2499999999999996","","",""
"3112.2000000476837","2","confid","","","html-slider-response","1341","3557876","0.0-4.0-10.150-0.150","","","","Rate your confidence","1",""
"464.40000009536743","e","choice","left","e","experimental","1348","3560118","0.0-4.0-8.151","true","152","3.2499999999999996","","",""
"2279.5999999046326","3","confid","","","html-slider-response","1350","3562902","0.0-4.0-10.151-0.151","","","","Rate your confidence","1",""
"690.5999999046326","i","choice","right","i","experimental","1358","3568337","0.0-4.0-8.152","true","153","3.1499999999999995","","",""
"2335.399999856949","1","confid","","","html-slider-response","1360","3571176","0.0-4.0-10.152-0.152","","","","Rate your confidence","1",""
"360.7000000476837","i","choice","left","e","experimental","1367","3573322","0.0-4.0-8.153","false","154","3.1499999999999995","","",""
"1288.0999999046326","2","confid","","","html-slider-response","1369","3575114","0.0-4.0-10.153-0.153","","","","Rate your confidence","1",""
"4276.300000190735","e","choice","left","e","experimental","1376","3581167","0.0-4.0-8.154","true","155","3.2499999999999996","","",""
"2120","1","confid","","","html-slider-response","1378","3583791","0.0-4.0-10.154-0.154","","","","Rate your confidence","1",""
"277.09999990463257","i","choice","right","i","experimental","1385","3585850","0.0-4.0-8.155","true","156","3.2499999999999996","","",""
"6866.200000047684","4","confid","","","html-slider-response","1387","3593219","0.0-4.0-10.155-0.155","","","","Rate your confidence","1",""
"428.5","i","choice","left","e","experimental","1394","3595424","0.0-4.0-8.156","false","157","3.1499999999999995","","",""
"3124.9000000953674","3","confid","","","html-slider-response","1396","3599054","0.0-4.0-10.156-0.156","","","","Rate your confidence","1",""
"360","i","choice","right","i","experimental","1403","3601189","0.0-4.0-8.157","true","158","3.2499999999999996","","",""
"2295","4","confid","","","html-slider-response","1405","3603988","0.0-4.0-10.157-0.157","","","","Rate your confidence","1",""
"520.1999998092651","i","choice","left","e","experimental","1412","3606290","0.0-4.0-8.158","false","159","3.2499999999999996","","",""
"2802.4000000953674","2","confid","","","html-slider-response","1414","3609598","0.0-4.0-10.158-0.158","","","","Rate your confidence","1",""
"403.2999999523163","i","choice","right","i","experimental","1421","3611779","0.0-4.0-8.159","true","160","3.3499999999999996","","",""
"3696.2999999523163","3","confid","","","html-slider-response","1423","3615979","0.0-4.0-10.159-0.159","","","","Rate your confidence","1",""
"1402.2000000476837","i","choice","left","e","experimental","1430","3619159","0.0-4.0-8.160","false","161","3.3499999999999996","","",""
"2052.5999999046326","1","confid","","","html-slider-response","1432","3621715","0.0-4.0-10.160-0.160","","","","Rate your confidence","1",""
"691.7999999523163","i","choice","right","i","experimental","1439","3624183","0.0-4.0-8.161","true","162","3.4499999999999997","","",""
"2017.0999999046326","2","confid","","","html-slider-response","1441","3626704","0.0-4.0-10.161-0.161","","","","Rate your confidence","1",""
"1263.6000001430511","e","choice","right","i","experimental","1448","3629745","0.0-4.0-8.162","false","163","3.4499999999999997","","",""
"1710.7999999523163","1","confid","","","html-slider-response","1450","3631959","0.0-4.0-10.162-0.162","","","","Rate your confidence","1",""
"800.5","e","choice","left","e","experimental","1457","3634536","0.0-4.0-8.163","true","164","3.55","","",""
"1665.2000000476837","1","confid","","","html-slider-response","1459","3636704","0.0-4.0-10.163-0.163","","","","Rate your confidence","1",""
"693.5","e","choice","left","e","experimental","1466","3639181","0.0-4.0-8.164","true","165","3.55","","",""
"1739.5999999046326","1","confid","","","html-slider-response","1468","3641425","0.0-4.0-10.164-0.164","","","","Rate your confidence","1",""
"1657.2999999523163","i","choice","right","i","experimental","1475","3644859","0.0-4.0-8.165","true","166","3.4499999999999997","","",""
"1988.9000000953674","1","confid","","","html-slider-response","1477","3647351","0.0-4.0-10.165-0.165","","","","Rate your confidence","1",""
"1927.0999999046326","i","choice","left","e","experimental","1484","3651058","0.0-4.0-8.166","false","167","3.4499999999999997","","",""
"2534.4000000953674","1","confid","","","html-slider-response","1486","3654095","0.0-4.0-10.166-0.166","","","","Rate your confidence","1",""
"641.7999999523163","i","choice","right","i","experimental","1493","3656518","0.0-4.0-8.167","true","168","3.55","","",""
"2692.2000000476837","2","confid","","","html-slider-response","1495","3659714","0.0-4.0-10.167-0.167","","","","Rate your confidence","1",""
"1427.2999999523163","i","choice","right","i","experimental","1502","3662922","0.0-4.0-8.168","true","169","3.55","","",""
"2631.399999856949","1","confid","","","html-slider-response","1504","3666058","0.0-4.0-10.168-0.168","","","","Rate your confidence","1",""
"384.7999999523163","i","choice","left","e","experimental","1511","3668221","0.0-4.0-8.169","false","170","3.4499999999999997","","",""
"7510","2","confid","","","html-slider-response","1513","3676234","0.0-4.0-10.169-0.169","","","","Rate your confidence","1",""
"3830.2999999523163","i","choice","left","e","experimental","1520","3681842","0.0-4.0-8.170","false","171","3.55","","",""
"1876.6000001430511","1","confid","","","html-slider-response","1522","3684228","0.0-4.0-10.170-0.170","","","","Rate your confidence","1",""
"718.6999998092651","i","choice","right","i","experimental","1529","3686725","0.0-4.0-8.171","true","172","3.65","","",""
"1781.5","1","confid","","","html-slider-response","1531","3689011","0.0-4.0-10.171-0.171","","","","Rate your confidence","1",""
"1070.5999999046326","e","choice","left","e","experimental","1538","3691865","0.0-4.0-8.172","true","173","3.65","","",""
"1526.6000001430511","1","confid","","","html-slider-response","1540","3693895","0.0-4.0-10.172-0.172","","","","Rate your confidence","1",""
"790","e","choice","right","i","experimental","1547","3696461","0.0-4.0-8.173","false","174","3.55","","",""
"1638.3999998569489","1","confid","","","html-slider-response","1549","3698604","0.0-4.0-10.173-0.173","","","","Rate your confidence","1",""
"430.2999999523163","i","choice","right","i","experimental","1556","3700812","0.0-4.0-8.174","true","175","3.65","","",""
"2810.2000000476837","2","confid","","","html-slider-response","1558","3704125","0.0-4.0-10.174-0.174","","","","Rate your confidence","1",""
"469.7999999523163","i","choice","left","e","experimental","1565","3706372","0.0-4.0-8.175","false","176","3.65","","",""
"1551.7999999523163","2","confid","","","html-slider-response","1567","3708428","0.0-4.0-10.175-0.175","","","","Rate your confidence","1",""
"1034.2999999523163","i","choice","right","i","experimental","1574","3711243","0.0-4.0-8.176","true","177","3.75","","",""
"1419.5","2","confid","","","html-slider-response","1576","3713166","0.0-4.0-10.176-0.176","","","","Rate your confidence","1",""
"384.60000014305115","e","choice","left","e","experimental","1583","3715327","0.0-4.0-8.177","true","178","3.75","","",""
"1629.2999999523163","2","confid","","","html-slider-response","1585","3717461","0.0-4.0-10.177-0.177","","","","Rate your confidence","1",""
"516.9000000953674","i","choice","right","i","experimental","1592","3719756","0.0-4.0-8.178","true","179","3.65","","",""
"1778.8999998569489","3","confid","","","html-slider-response","1594","3722039","0.0-4.0-10.178-0.178","","","","Rate your confidence","1",""
"348.7999999523163","e","choice","left","e","experimental","1601","3724170","0.0-4.0-8.179","true","180","3.65","","",""
"1776.0999999046326","3","confid","","","html-slider-response","1603","3726451","0.0-4.0-10.179-0.179","","","","Rate your confidence","1",""
"458.7999999523163","i","choice","right","i","experimental","1610","3728687","0.0-4.0-8.180","true","181","3.55","","",""
"2489.0999999046326","2","confid","","","html-slider-response","1612","3731680","0.0-4.0-10.180-0.180","","","","Rate your confidence","1",""
"285.69999980926514","e","choice","left","e","experimental","1619","3733743","0.0-4.0-8.181","true","182","3.55","","",""
"2379.7000000476837","2","confid","","","html-slider-response","1621","3736627","0.0-4.0-10.181-0.181","","","","Rate your confidence","1",""
"283","i","choice","right","i","experimental","1628","3738686","0.0-4.0-8.182","true","183","3.4499999999999997","","",""
"4105","3","confid","","","html-slider-response","1630","3743296","0.0-4.0-10.182-0.182","","","","Rate your confidence","1",""
"341","e","choice","left","e","experimental","1637","3745418","0.0-4.0-8.183","true","184","3.4499999999999997","","",""
"1717.9000000953674","2","confid","","","html-slider-response","1639","3747639","0.0-4.0-10.183-0.183","","","","Rate your confidence","1",""
"403.40000009536743","e","choice","left","e","experimental","1646","3749829","0.0-4.0-8.184","true","185","3.3499999999999996","","",""
"1839","2","confid","","","html-slider-response","1648","3752171","0.0-4.0-10.184-0.184","","","","Rate your confidence","1",""
"440.2000000476837","i","choice","right","i","experimental","1655","3754397","0.0-4.0-8.185","true","186","3.3499999999999996","","",""
"1775.6999998092651","1","confid","","","html-slider-response","1657","3756677","0.0-4.0-10.185-0.185","","","","Rate your confidence","1",""
"405.2999999523163","i","choice","right","i","experimental","1664","3758861","0.0-4.0-8.186","true","187","3.2499999999999996","","",""
"1750","1","confid","","","html-slider-response","1666","3761114","0.0-4.0-10.186-0.186","","","","Rate your confidence","1",""
"352","e","choice","left","e","experimental","1673","3763243","0.0-4.0-8.187","true","188","3.2499999999999996","","",""
"1546.5","3","confid","","","html-slider-response","1675","3765292","0.0-4.0-10.187-0.187","","","","Rate your confidence","1",""
"1445","e","choice","left","e","experimental","1682","3768525","0.0-4.0-8.188","true","189","3.1499999999999995","","",""
"1927.7000000476837","2","confid","","","html-slider-response","1684","3770956","0.0-4.0-10.188-0.188","","","","Rate your confidence","1",""
"397.7000000476837","e","choice","right","i","experimental","1691","3773134","0.0-4.0-8.189","false","190","3.1499999999999995","","",""
"4408.900000095367","1","confid","","","html-slider-response","1693","3778046","0.0-4.0-10.189-0.189","","","","Rate your confidence","1",""
"715.5","e","choice","left","e","experimental","1700","3780548","0.0-4.0-8.190","true","191","3.2499999999999996","","",""
"2856.199999809265","1","confid","","","html-slider-response","1702","3783907","0.0-4.0-10.190-0.190","","","","Rate your confidence","1",""
"365.5","i","choice","right","i","experimental","1709","3786052","0.0-4.0-8.191","true","192","3.2499999999999996","","",""
"2156.199999809265","1","confid","","","html-slider-response","1711","3788712","0.0-4.0-10.191-0.191","","","","Rate your confidence","1",""
"1140.1999998092651","i","choice","right","i","experimental","1718","3791631","0.0-4.0-8.192","true","193","3.1499999999999995","","",""
"1398.2999999523163","2","confid","","","html-slider-response","1720","3793532","0.0-4.0-10.192-0.192","","","","Rate your confidence","1",""
"332.5","i","choice","left","e","experimental","1727","3795649","0.0-4.0-8.193","false","194","3.1499999999999995","","",""
"1336.6000001430511","2","confid","","","html-slider-response","1729","3797489","0.0-4.0-10.193-0.193","","","","Rate your confidence","1","26519"
