"rt","response","task","target_side","correct_response","trial_type","trial_index","time_elapsed","internal_node_id","correct","trial_number","n_dots","stimulus","slider_start","participant"
"980.5","e","choice","left","e","practice","10","113283","0.0-4.0-8.0","true","1","4.25","","",""
"567.1000000089407","i","choice","right","i","practice","18","116154","0.0-4.0-8.1","true","2","4.25","","",""
"988.2000000029802","i","choice","right","i","practice","26","119445","0.0-4.0-8.2","true","3","3.85","","",""
"530.7000000029802","e","choice","left","e","practice","34","122266","0.0-4.0-8.3","true","4","3.85","","",""
"3635.5","i","choice","right","i","practice","42","128196","0.0-4.0-8.4","true","5","3.45","","",""
"1247.4000000059605","i","choice","left","e","practice","50","131729","0.0-4.0-8.5","false","6","3.45","","",""
"1139.5999999940395","e","choice","left","e","practice","58","135162","0.0-4.0-8.6","true","7","3.6500000000000004","","",""
"638.9000000059605","i","choice","right","i","practice","66","138106","0.0-4.0-8.7","true","8","3.6500000000000004","","",""
"591.0999999940395","i","choice","right","i","practice","74","140986","0.0-4.0-8.8","true","9","3.45","","",""
"407","i","choice","left","e","practice","82","143681","0.0-4.0-8.9","false","10","3.45","","",""
"531.5999999940395","i","choice","right","i","practice","90","146495","0.0-4.0-8.10","true","11","3.6500000000000004","","",""
"803.1000000089407","e","choice","left","e","practice","98","149586","0.0-4.0-8.11","true","12","3.6500000000000004","","",""
"600","e","choice","left","e","practice","106","152472","0.0-4.0-8.12","true","13","3.5500000000000003","","",""
"476.09999999403954","i","choice","right","i","practice","114","155233","0.0-4.0-8.13","true","14","3.5500000000000003","","",""
"511.20000000298023","i","choice","right","i","practice","122","158032","0.0-4.0-8.14","true","15","3.45","","",""
"638.7000000029802","i","choice","left","e","practice","130","160974","0.0-4.0-8.15","false","16","3.45","","",""
"512.8999999910593","i","choice","left","e","practice","138","163788","0.0-4.0-8.16","false","17","3.5500000000000003","","",""
"529.2999999970198","e","choice","right","i","practice","146","166603","0.0-4.0-8.17","false","18","3.6500000000000004","","",""
"544.8999999910593","e","choice","left","e","practice","154","169434","0.0-4.0-8.18","true","19","3.7500000000000004","","",""
"432.5","i","choice","right","i","practice","162","172154","0.0-4.0-8.19","true","20","3.7500000000000004","","",""
"803.2999999970198","i","choice","left","e","practice","170","175250","0.0-4.0-8.20","false","21","3.6500000000000004","","",""
"559.9000000059605","e","choice","right","i","practice","178","178099","0.0-4.0-8.21","false","22","3.7500000000000004","","",""
"518.5999999940395","e","choice","right","i","practice","186","180907","0.0-4.0-8.22","false","23","3.8500000000000005","","",""
"530.2000000029802","i","choice","left","e","practice","194","183723","0.0-4.0-8.23","false","24","3.9500000000000006","","",""
"376.40000000596046","e","choice","left","e","practice","202","186391","0.0-4.0-8.24","true","25","4.050000000000001","","",""
"5.799999997019768","i","choice","right","i","practice","210","188692","0.0-4.0-8.25","true","26","4.050000000000001","","",""
"259","e","choice","left","e","experimental","221","236654","0.0-4.0-8.26","true","27","3.9500000000000006","","",""
"3233","5","confid","","","html-slider-response","223","240392","0.0-4.0-10.26-0.26","","","","Rate your confidence","1",""
"772.7000000029802","i","choice","right","i","experimental","230","242954","0.0-4.0-8.27","true","28","3.9500000000000006","","",""
"2235.300000011921","5","confid","","","html-slider-response","232","245693","0.0-4.0-10.27-0.27","","","","Rate your confidence","1",""
"583.3000000119209","i","choice","right","i","experimental","239","248067","0.0-4.0-8.28","true","29","3.8500000000000005","","",""
"5518.4000000059605","5","confid","","","html-slider-response","241","254089","0.0-4.0-10.28-0.28","","","","Rate your confidence","1",""
"656.5","e","choice","left","e","experimental","248","256535","0.0-4.0-8.29","true","30","3.8500000000000005","","",""
"2962.9000000059605","4","confid","","","html-slider-response","250","260001","0.0-4.0-10.29-0.29","","","","Rate your confidence","1",""
"525.3000000119209","i","choice","right","i","experimental","257","262323","0.0-4.0-8.30","true","31","3.7500000000000004","","",""
"4858.600000008941","5","confid","","","html-slider-response","259","267685","0.0-4.0-10.30-0.30","","","","Rate your confidence","1",""
"527.5","e","choice","left","e","experimental","266","270005","0.0-4.0-8.31","true","32","3.7500000000000004","","",""
"1884.5999999940395","5","confid","","","html-slider-response","268","272396","0.0-4.0-10.31-0.31","","","","Rate your confidence","1",""
"491.20000000298023","i","choice","right","i","experimental","275","274688","0.0-4.0-8.32","true","33","3.6500000000000004","","",""
"1814.4000000059605","5","confid","","","html-slider-response","277","277008","0.0-4.0-10.32-0.32","","","","Rate your confidence","1",""
"282.59999999403954","e","choice","left","e","experimental","284","279072","0.0-4.0-8.33","true","34","3.6500000000000004","","",""
"2924.2999999970198","5","confid","","","html-slider-response","286","282502","0.0-4.0-10.33-0.33","","","","Rate your confidence","1",""
"455.79999999701977","i","choice","right","i","experimental","293","284743","0.0-4.0-8.34","true","35","3.5500000000000003","","",""
"3303.2000000029802","4","confid","","","html-slider-response","295","288550","0.0-4.0-10.34-0.34","","","","Rate your confidence","1",""
"526.9000000059605","e","choice","left","e","experimental","302","290867","0.0-4.0-8.35","true","36","3.5500000000000003","","",""
"2429.1000000089407","4","confid","","","html-slider-response","304","293800","0.0-4.0-10.35-0.35","","","","Rate your confidence","1",""
"483","e","choice","left","e","experimental","311","296082","0.0-4.0-8.36","true","37","3.45","","",""
"3166.800000011921","3","confid","","","html-slider-response","313","299752","0.0-4.0-10.36-0.36","","","","Rate your confidence","1",""
"463","i","choice","right","i","experimental","320","302008","0.0-4.0-8.37","true","38","3.45","","",""
"1699.8999999910593","3","confid","","","html-slider-response","322","304221","0.0-4.0-10.37-0.37","","","","Rate your confidence","1",""
"410.79999999701977","e","choice","left","e","experimental","329","306425","0.0-4.0-8.38","true","39","3.35","","",""
"2356.2999999970198","2","confid","","","html-slider-response","331","309285","0.0-4.0-10.38-0.38","","","","Rate your confidence","1",""
"539.1999999880791","i","choice","right","i","experimental","338","311626","0.0-4.0-8.39","true","40","3.35","","",""
"2087.2999999970198","2","confid","","","html-slider-response","340","314218","0.0-4.0-10.39-0.39","","","","Rate your confidence","1",""
"421.1000000089407","e","choice","left","e","experimental","347","316440","0.0-4.0-8.40","true","41","3.25","","",""
"1610.2000000029802","2","confid","","","html-slider-response","349","318553","0.0-4.0-10.40-0.40","","","","Rate your confidence","1",""
"199.29999999701977","i","choice","right","i","experimental","356","320538","0.0-4.0-8.41","true","42","3.25","","",""
"2370.5","3","confid","","","html-slider-response","358","323413","0.0-4.0-10.41-0.41","","","","Rate your confidence","1",""
"656.7000000029802","i","choice","right","i","experimental","365","325859","0.0-4.0-8.42","true","43","3.15","","",""
"2137.5","3","confid","","","html-slider-response","367","328502","0.0-4.0-10.42-0.42","","","","Rate your confidence","1",""
"1195.1000000089407","i","choice","left","e","experimental","374","331480","0.0-4.0-8.43","false","44","3.15","","",""
"7271.5","1","confid","","","html-slider-response","376","339255","0.0-4.0-10.43-0.43","","","","Rate your confidence","1",""
"1193.6000000089407","i","choice","right","i","experimental","383","342242","0.0-4.0-8.44","true","45","3.25","","",""
"1770.5","5","confid","","","html-slider-response","385","344518","0.0-4.0-10.44-0.44","","","","Rate your confidence","1",""
"253.29999999701977","e","choice","left","e","experimental","392","346559","0.0-4.0-8.45","true","46","3.25","","",""
"2821.5999999940395","6","confid","","","html-slider-response","394","349884","0.0-4.0-10.45-0.45","","","","Rate your confidence","1",""
"300.70000000298023","e","choice","left","e","experimental","401","351981","0.0-4.0-8.46","true","47","3.15","","",""
"2525.2000000029802","5","confid","","","html-slider-response","403","355010","0.0-4.0-10.46-0.46","","","","Rate your confidence","1",""
"396.5","i","choice","right","i","experimental","410","357195","0.0-4.0-8.47","true","48","3.15","","",""
"3271.7999999970198","3","confid","","","html-slider-response","412","360970","0.0-4.0-10.47-0.47","","","","Rate your confidence","1",""
"645.0999999940395","e","choice","left","e","experimental","419","363398","0.0-4.0-8.48","true","49","3.05","","",""
"2222.0999999940395","3","confid","","","html-slider-response","421","366126","0.0-4.0-10.48-0.48","","","","Rate your confidence","1",""
"369.59999999403954","e","choice","right","i","experimental","428","368285","0.0-4.0-8.49","false","50","3.05","","",""
"1496.300000011921","3","confid","","","html-slider-response","430","370286","0.0-4.0-10.49-0.49","","","","Rate your confidence","1",""
"1227.5999999940395","i","choice","right","i","experimental","437","373308","0.0-4.0-8.50","true","51","3.15","","",""
"3517","5","confid","","","html-slider-response","439","377330","0.0-4.0-10.50-0.50","","","","Rate your confidence","1",""
"227.09999999403954","e","choice","left","e","experimental","446","379353","0.0-4.0-8.51","true","52","3.15","","",""
"2585.8999999910593","3","confid","","","html-slider-response","448","382442","0.0-4.0-10.51-0.51","","","","Rate your confidence","1",""
"506","i","choice","right","i","experimental","455","384749","0.0-4.0-8.52","true","53","3.05","","",""
"2634","2","confid","","","html-slider-response","457","387887","0.0-4.0-10.52-0.52","","","","Rate your confidence","1",""
"425.29999999701977","e","choice","left","e","experimental","464","390103","0.0-4.0-8.53","true","54","3.05","","",""
"2379.7999999970198","3","confid","","","html-slider-response","466","392987","0.0-4.0-10.53-0.53","","","","Rate your confidence","1",""
"400.90000000596046","e","choice","left","e","experimental","473","395179","0.0-4.0-8.54","true","55","2.9499999999999997","","",""
"2185.300000011921","3","confid","","","html-slider-response","475","397868","0.0-4.0-10.54-0.54","","","","Rate your confidence","1",""
"409.40000000596046","i","choice","right","i","experimental","482","400068","0.0-4.0-8.55","true","56","2.9499999999999997","","",""
"2234.300000011921","4","confid","","","html-slider-response","484","402805","0.0-4.0-10.55-0.55","","","","Rate your confidence","1",""
"368.8999999910593","i","choice","right","i","experimental","491","404971","0.0-4.0-8.56","true","57","2.8499999999999996","","",""
"2102","3","confid","","","html-slider-response","493","407578","0.0-4.0-10.56-0.56","","","","Rate your confidence","1",""
"42","e","choice","left","e","experimental","500","409417","0.0-4.0-8.57","true","58","2.8499999999999996","","",""
"3346.8999999910593","5","confid","","","html-slider-response","502","413270","0.0-4.0-10.57-0.57","","","","Rate your confidence","1",""
"391.8999999910593","i","choice","right","i","experimental","509","415452","0.0-4.0-8.58","true","59","2.7499999999999996","","",""
"2438.9000000059605","2","confid","","","html-slider-response","511","418394","0.0-4.0-10.58-0.58","","","","Rate your confidence","1",""
"104.40000000596046","e","choice","left","e","experimental","518","420287","0.0-4.0-8.59","true","60","2.7499999999999996","","",""
"3602.6000000089407","3","confid","","","html-slider-response","520","424395","0.0-4.0-10.59-0.59","","","","Rate your confidence","1",""
"469.09999999403954","i","choice","right","i","experimental","527","426659","0.0-4.0-8.60","true","61","2.6499999999999995","","",""
"2712.6000000089407","2","confid","","","html-slider-response","529","429876","0.0-4.0-10.60-0.60","","","","Rate your confidence","1",""
"1323","e","choice","left","e","experimental","536","432995","0.0-4.0-8.61","true","62","2.6499999999999995","","",""
"4590.29999999702","2","confid","","","html-slider-response","538","438089","0.0-4.0-10.61-0.61","","","","Rate your confidence","1",""
"355.20000000298023","e","choice","right","i","experimental","545","440230","0.0-4.0-8.62","false","63","2.5499999999999994","","",""
"3229.2000000029802","2","confid","","","html-slider-response","547","443964","0.0-4.0-10.62-0.62","","","","Rate your confidence","1",""
"451.80000001192093","e","choice","left","e","experimental","554","446207","0.0-4.0-8.63","true","64","2.6499999999999995","","",""
"3033.800000011921","2","confid","","","html-slider-response","556","449745","0.0-4.0-10.63-0.63","","","","Rate your confidence","1",""
"723","e","choice","left","e","experimental","563","452261","0.0-4.0-8.64","true","65","2.6499999999999995","","",""
"1616.0999999940395","1","confid","","","html-slider-response","565","454380","0.0-4.0-10.64-0.64","","","","Rate your confidence","1",""
"429","e","choice","right","i","experimental","572","456607","0.0-4.0-8.65","false","66","2.5499999999999994","","",""
"2682.6000000089407","1","confid","","","html-slider-response","574","459793","0.0-4.0-10.65-0.65","","","","Rate your confidence","1",""
"346.79999999701977","i","choice","right","i","experimental","581","461933","0.0-4.0-8.66","true","67","2.6499999999999995","","",""
"2085.7000000029802","2","confid","","","html-slider-response","583","464522","0.0-4.0-10.66-0.66","","","","Rate your confidence","1",""
"406.09999999403954","e","choice","left","e","experimental","590","466719","0.0-4.0-8.67","true","68","2.6499999999999995","","",""
"1639.0999999940395","2","confid","","","html-slider-response","592","468863","0.0-4.0-10.67-0.67","","","","Rate your confidence","1",""
"545.0999999940395","i","choice","right","i","experimental","600","492887","0.0-4.0-8.68","true","69","2.5499999999999994","","",""
"1858.2999999970198","5","confid","","","html-slider-response","602","495250","0.0-4.0-10.68-0.68","","","","Rate your confidence","1",""
"56.1000000089407","e","choice","left","e","experimental","609","497107","0.0-4.0-8.69","true","70","2.5499999999999994","","",""
"2054.8999999910593","5","confid","","","html-slider-response","611","499665","0.0-4.0-10.69-0.69","","","","Rate your confidence","1",""
"383.59999999403954","i","choice","right","i","experimental","618","501840","0.0-4.0-8.70","true","71","2.4499999999999993","","",""
"2787.7000000029802","3","confid","","","html-slider-response","620","505141","0.0-4.0-10.70-0.70","","","","Rate your confidence","1",""
"594.4000000059605","e","choice","left","e","experimental","627","507528","0.0-4.0-8.71","true","72","2.4499999999999993","","",""
"2288.8999999910593","3","confid","","","html-slider-response","629","510320","0.0-4.0-10.71-0.71","","","","Rate your confidence","1",""
"352.79999999701977","i","choice","right","i","experimental","636","512470","0.0-4.0-8.72","true","73","2.349999999999999","","",""
"1626.7000000029802","3","confid","","","html-slider-response","638","514601","0.0-4.0-10.72-0.72","","","","Rate your confidence","1",""
"492.90000000596046","e","choice","left","e","experimental","645","516892","0.0-4.0-8.73","true","74","2.349999999999999","","",""
"3223.7000000029802","4","confid","","","html-slider-response","647","520619","0.0-4.0-10.73-0.73","","","","Rate your confidence","1",""
"857.7999999970198","e","choice","left","e","experimental","654","523268","0.0-4.0-8.74","true","75","2.249999999999999","","",""
"3910.1000000089407","1","confid","","","html-slider-response","656","527682","0.0-4.0-10.74-0.74","","","","Rate your confidence","1",""
"448.29999999701977","i","choice","right","i","experimental","663","529930","0.0-4.0-8.75","true","76","2.249999999999999","","",""
"2116.9000000059605","3","confid","","","html-slider-response","665","532552","0.0-4.0-10.75-0.75","","","","Rate your confidence","1",""
"616.7000000029802","e","choice","right","i","experimental","672","534957","0.0-4.0-8.76","false","77","2.149999999999999","","",""
"1742.5","3","confid","","","html-slider-response","674","537203","0.0-4.0-10.76-0.76","","","","Rate your confidence","1",""
"361.29999999701977","i","choice","left","e","experimental","681","539357","0.0-4.0-8.77","false","78","2.249999999999999","","",""
"3809.2000000029802","4","confid","","","html-slider-response","683","543670","0.0-4.0-10.77-0.77","","","","Rate your confidence","1",""
"900.5","i","choice","right","i","experimental","690","546355","0.0-4.0-8.78","true","79","2.349999999999999","","",""
"2904.2000000029802","4","confid","","","html-slider-response","692","549762","0.0-4.0-10.78-0.78","","","","Rate your confidence","1",""
"668.6000000089407","i","choice","left","e","experimental","699","552224","0.0-4.0-8.79","false","80","2.349999999999999","","",""
"1736.2999999970198","4","confid","","","html-slider-response","701","554464","0.0-4.0-10.79-0.79","","","","Rate your confidence","1",""
"386.09999999403954","i","choice","right","i","experimental","708","556645","0.0-4.0-8.80","true","81","2.4499999999999993","","",""
"1406.2999999970198","4","confid","","","html-slider-response","710","558555","0.0-4.0-10.80-0.80","","","","Rate your confidence","1",""
"363.90000000596046","e","choice","left","e","experimental","717","560715","0.0-4.0-8.81","true","82","2.4499999999999993","","",""
"2005.7000000029802","4","confid","","","html-slider-response","719","563225","0.0-4.0-10.81-0.81","","","","Rate your confidence","1",""
"445.40000000596046","i","choice","right","i","experimental","726","565462","0.0-4.0-8.82","true","83","2.349999999999999","","",""
"1748.2000000029802","5","confid","","","html-slider-response","728","567717","0.0-4.0-10.82-0.82","","","","Rate your confidence","1",""
"599.8000000119209","i","choice","left","e","experimental","735","570117","0.0-4.0-8.83","false","84","2.349999999999999","","",""
"2010.9000000059605","2","confid","","","html-slider-response","737","572632","0.0-4.0-10.83-0.83","","","","Rate your confidence","1",""
"816.2999999970198","i","choice","right","i","experimental","744","575240","0.0-4.0-8.84","true","85","2.4499999999999993","","",""
"3839.9000000059605","4","confid","","","html-slider-response","746","579585","0.0-4.0-10.84-0.84","","","","Rate your confidence","1",""
"827.7000000029802","i","choice","left","e","experimental","753","582215","0.0-4.0-8.85","false","86","2.4499999999999993","","",""
"1559.2999999970198","3","confid","","","html-slider-response","755","584278","0.0-4.0-10.85-0.85","","","","Rate your confidence","1",""
"513.5","e","choice","left","e","experimental","762","586582","0.0-4.0-8.86","true","87","2.5499999999999994","","",""
"1552.3999999910593","2","confid","","","html-slider-response","764","588639","0.0-4.0-10.86-0.86","","","","Rate your confidence","1",""
"497.09999999403954","i","choice","right","i","experimental","771","590925","0.0-4.0-8.87","true","88","2.5499999999999994","","",""
"2904.7999999970198","4","confid","","","html-slider-response","773","594334","0.0-4.0-10.87-0.87","","","","Rate your confidence","1",""
"689.9000000059605","e","choice","left","e","experimental","780","596815","0.0-4.0-8.88","true","89","2.4499999999999993","","",""
"1793.7000000029802","1","confid","","","html-slider-response","782","599112","0.0-4.0-10.88-0.88","","","","Rate your confidence","1",""
"400.90000000596046","i","choice","right","i","experimental","789","601309","0.0-4.0-8.89","true","90","2.4499999999999993","","",""
"2263.2000000029802","3","confid","","","html-slider-response","791","604077","0.0-4.0-10.89-0.89","","","","Rate your confidence","1",""
"454.8999999910593","i","choice","right","i","experimental","798","606317","0.0-4.0-8.90","true","91","2.349999999999999","","",""
"2641","3","confid","","","html-slider-response","800","609462","0.0-4.0-10.90-0.90","","","","Rate your confidence","1",""
"968.0999999940395","e","choice","left","e","experimental","807","612222","0.0-4.0-8.91","true","92","2.349999999999999","","",""
"1745.1000000089407","3","confid","","","html-slider-response","809","614470","0.0-4.0-10.91-0.91","","","","Rate your confidence","1",""
"351.5","e","choice","right","i","experimental","816","616613","0.0-4.0-8.92","false","93","2.249999999999999","","",""
"3025.199999988079","3","confid","","","html-slider-response","818","620151","0.0-4.0-10.92-0.92","","","","Rate your confidence","1",""
"325.59999999403954","e","choice","left","e","experimental","825","622262","0.0-4.0-8.93","true","94","2.349999999999999","","",""
"2355","3","confid","","","html-slider-response","827","625121","0.0-4.0-10.93-0.93","","","","Rate your confidence","1",""
"755.7000000029802","i","choice","left","e","experimental","834","627670","0.0-4.0-8.94","false","95","2.349999999999999","","",""
"1575","2","confid","","","html-slider-response","836","629749","0.0-4.0-10.94-0.94","","","","Rate your confidence","1",""
"290.5","e","choice","right","i","experimental","843","631842","0.0-4.0-8.95","false","96","2.4499999999999993","","",""
"2066.7000000029802","3","confid","","","html-slider-response","845","634412","0.0-4.0-10.95-0.95","","","","Rate your confidence","1",""
"423.6000000089407","e","choice","right","i","experimental","852","636631","0.0-4.0-8.96","false","97","2.5499999999999994","","",""
"1840.5","2","confid","","","html-slider-response","854","638976","0.0-4.0-10.96-0.96","","","","Rate your confidence","1",""
"507.6000000089407","e","choice","left","e","experimental","861","641275","0.0-4.0-8.97","true","98","2.6499999999999995","","",""
"2065.4000000059605","2","confid","","","html-slider-response","863","643853","0.0-4.0-10.97-0.97","","","","Rate your confidence","1",""
"422.79999999701977","e","choice","left","e","experimental","870","646070","0.0-4.0-8.98","true","99","2.6499999999999995","","",""
"3030.8999999910593","2","confid","","","html-slider-response","872","649605","0.0-4.0-10.98-0.98","","","","Rate your confidence","1",""
"315.59999999403954","e","choice","right","i","experimental","879","651722","0.0-4.0-8.99","false","100","2.5499999999999994","","",""
"1725.8999999910593","3","confid","","","html-slider-response","881","653952","0.0-4.0-10.99-0.99","","","","Rate your confidence","1",""
"525.5999999940395","i","choice","right","i","experimental","888","656275","0.0-4.0-8.100","true","101","2.6499999999999995","","",""
"1921.2000000029802","2","confid","","","html-slider-response","890","658703","0.0-4.0-10.100-0.100","","","","Rate your confidence","1",""
"328.59999999403954","i","choice","left","e","experimental","897","660833","0.0-4.0-8.101","false","102","2.6499999999999995","","",""
"1470.2000000029802","2","confid","","","html-slider-response","899","662806","0.0-4.0-10.101-0.101","","","","Rate your confidence","1",""
"377.59999999403954","e","choice","left","e","experimental","906","664968","0.0-4.0-8.102","true","103","2.7499999999999996","","",""
"2472.300000011921","2","confid","","","html-slider-response","908","667955","0.0-4.0-10.102-0.102","","","","Rate your confidence","1",""
"642.7999999970198","i","choice","right","i","experimental","915","670385","0.0-4.0-8.103","true","104","2.7499999999999996","","",""
"2235.5","2","confid","","","html-slider-response","917","673124","0.0-4.0-10.103-0.103","","","","Rate your confidence","1",""
"88.59999999403954","e","choice","left","e","experimental","924","675009","0.0-4.0-8.104","true","105","2.6499999999999995","","",""
"2146.7999999970198","2","confid","","","html-slider-response","926","677659","0.0-4.0-10.104-0.104","","","","Rate your confidence","1",""
"494.1000000089407","i","choice","right","i","experimental","933","679947","0.0-4.0-8.105","true","106","2.6499999999999995","","",""
"1948.5999999940395","2","confid","","","html-slider-response","935","682403","0.0-4.0-10.105-0.105","","","","Rate your confidence","1",""
"375.29999999701977","e","choice","left","e","experimental","942","684571","0.0-4.0-8.106","true","107","2.5499999999999994","","",""
"2556.2999999970198","1","confid","","","html-slider-response","944","687631","0.0-4.0-10.106-0.106","","","","Rate your confidence","1",""
"305","e","choice","right","i","experimental","951","689725","0.0-4.0-8.107","false","108","2.5499999999999994","","",""
"2146.7000000029802","1","confid","","","html-slider-response","953","692389","0.0-4.0-10.107-0.107","","","","Rate your confidence","1",""
"336.90000000596046","e","choice","left","e","experimental","960","694520","0.0-4.0-8.108","true","109","2.6499999999999995","","",""
"2898.800000011921","2","confid","","","html-slider-response","962","697924","0.0-4.0-10.108-0.108","","","","Rate your confidence","1",""
"336.90000000596046","i","choice","right","i","experimental","969","700056","0.0-4.0-8.109","true","110","2.6499999999999995","","",""
"2224.5999999940395","1","confid","","","html-slider-response","971","702785","0.0-4.0-10.109-0.109","","","","Rate your confidence","1",""
"393.79999999701977","e","choice","left","e","experimental","979","708897","0.0-4.0-8.110","true","111","2.5499999999999994","","",""
"2113.9000000059605","4","confid","","","html-slider-response","981","711514","0.0-4.0-10.110-0.110","","","","Rate your confidence","1",""
"738.8999999910593","e","choice","right","i","experimental","988","714041","0.0-4.0-8.111","false","112","2.5499999999999994","","",""
"2859.1000000089407","3","confid","","","html-slider-response","990","717404","0.0-4.0-10.111-0.111","","","","Rate your confidence","1",""
"662.7999999970198","e","choice","left","e","experimental","997","719859","0.0-4.0-8.112","true","113","2.6499999999999995","","",""
"2087.4000000059605","2","confid","","","html-slider-response","999","722449","0.0-4.0-10.112-0.112","","","","Rate your confidence","1",""
"390.09999999403954","e","choice","right","i","experimental","1006","724639","0.0-4.0-8.113","false","114","2.6499999999999995","","",""
"2733.5","2","confid","","","html-slider-response","1008","727876","0.0-4.0-10.113-0.113","","","","Rate your confidence","1",""
"299.90000000596046","i","choice","right","i","experimental","1015","729986","0.0-4.0-8.114","true","115","2.7499999999999996","","",""
"2554.9000000059605","3","confid","","","html-slider-response","1017","733045","0.0-4.0-10.114-0.114","","","","Rate your confidence","1",""
"121.5","e","choice","left","e","experimental","1024","734954","0.0-4.0-8.115","true","116","2.7499999999999996","","",""
"2826.9000000059605","3","confid","","","html-slider-response","1026","738284","0.0-4.0-10.115-0.115","","","","Rate your confidence","1",""
"371.8999999910593","e","choice","right","i","experimental","1033","740450","0.0-4.0-8.116","false","117","2.6499999999999995","","",""
"2419.3999999910593","4","confid","","","html-slider-response","1035","743374","0.0-4.0-10.116-0.116","","","","Rate your confidence","1",""
"345.59999999403954","e","choice","left","e","experimental","1042","745508","0.0-4.0-8.117","true","118","2.7499999999999996","","",""
"3377.7000000029802","4","confid","","","html-slider-response","1044","749390","0.0-4.0-10.117-0.117","","","","Rate your confidence","1",""
"371.79999999701977","i","choice","right","i","experimental","1051","751556","0.0-4.0-8.118","true","119","2.7499999999999996","","",""
"1926.4000000059605","3","confid","","","html-slider-response","1053","753988","0.0-4.0-10.118-0.118","","","","Rate your confidence","1",""
"553.3999999910593","e","choice","left","e","experimental","1060","756345","0.0-4.0-8.119","true","120","2.6499999999999995","","",""
"2826.9000000059605","3","confid","","","html-slider-response","1062","759678","0.0-4.0-10.119-0.119","","","","Rate your confidence","1",""
"500.69999998807907","e","choice","right","i","experimental","1069","761986","0.0-4.0-8.120","false","121","2.6499999999999995","","",""
"2460.0999999940395","3","confid","","","html-slider-response","1071","764950","0.0-4.0-10.120-0.120","","","","Rate your confidence","1",""
"344.6000000089407","e","choice","left","e","experimental","1078","767080","0.0-4.0-8.121","true","122","2.7499999999999996","","",""
"3215.5","3","confid","","","html-slider-response","1080","770800","0.0-4.0-10.121-0.121","","","","Rate your confidence","1",""
"407.59999999403954","i","choice","right","i","experimental","1087","772993","0.0-4.0-8.122","true","123","2.7499999999999996","","",""
"2545.1000000089407","3","confid","","","html-slider-response","1089","776042","0.0-4.0-10.122-0.122","","","","Rate your confidence","1",""
"401.20000000298023","e","choice","left","e","experimental","1096","778234","0.0-4.0-8.123","true","124","2.6499999999999995","","",""
"2389.7000000029802","3","confid","","","html-slider-response","1098","781129","0.0-4.0-10.123-0.123","","","","Rate your confidence","1",""
"625.0999999940395","e","choice","left","e","experimental","1105","783556","0.0-4.0-8.124","true","125","2.6499999999999995","","",""
"2592.7999999970198","4","confid","","","html-slider-response","1107","786653","0.0-4.0-10.124-0.124","","","","Rate your confidence","1",""
"2839","i","choice","right","i","experimental","1114","791280","0.0-4.0-8.125","true","126","2.5499999999999994","","",""
"2181.7999999970198","2","confid","","","html-slider-response","1116","793976","0.0-4.0-10.125-0.125","","","","Rate your confidence","1",""
"2153.2000000029802","e","choice","left","e","experimental","1123","797922","0.0-4.0-8.126","true","127","2.5499999999999994","","",""
"2771.3999999910593","4","confid","","","html-slider-response","1125","801197","0.0-4.0-10.126-0.126","","","","Rate your confidence","1",""
"548.5999999940395","e","choice","right","i","experimental","1132","803554","0.0-4.0-8.127","false","128","2.4499999999999993","","",""
"3111.8999999910593","5","confid","","","html-slider-response","1134","807169","0.0-4.0-10.127-0.127","","","","Rate your confidence","1",""
"384.1000000089407","e","choice","left","e","experimental","1141","809363","0.0-4.0-8.128","true","129","2.5499999999999994","","",""
"3964.7999999970198","3","confid","","","html-slider-response","1143","813831","0.0-4.0-10.128-0.128","","","","Rate your confidence","1",""
"350.70000000298023","i","choice","right","i","experimental","1150","815989","0.0-4.0-8.129","true","130","2.5499999999999994","","",""
"3687","4","confid","","","html-slider-response","1152","820179","0.0-4.0-10.129-0.129","","","","Rate your confidence","1",""
"357","e","choice","right","i","experimental","1159","822332","0.0-4.0-8.130","false","131","2.4499999999999993","","",""
"5097.899999991059","4","confid","","","html-slider-response","1161","827945","0.0-4.0-10.130-0.130","","","","Rate your confidence","1",""
"296.29999999701977","e","choice","left","e","experimental","1168","830031","0.0-4.0-8.131","true","132","2.5499999999999994","","",""
"1587.2000000029802","4","confid","","","html-slider-response","1170","832123","0.0-4.0-10.131-0.131","","","","Rate your confidence","1",""
"648.2000000029802","e","choice","right","i","experimental","1177","834569","0.0-4.0-8.132","false","133","2.5499999999999994","","",""
"3101.699999988079","1","confid","","","html-slider-response","1179","838175","0.0-4.0-10.132-0.132","","","","Rate your confidence","1",""
"446.59999999403954","i","choice","left","e","experimental","1186","840410","0.0-4.0-8.133","false","134","2.6499999999999995","","",""
"1693.5999999940395","2","confid","","","html-slider-response","1188","842607","0.0-4.0-10.133-0.133","","","","Rate your confidence","1",""
"406.90000000596046","e","choice","right","i","experimental","1195","844813","0.0-4.0-8.134","false","135","2.7499999999999996","","",""
"4576.29999999702","2","confid","","","html-slider-response","1197","849893","0.0-4.0-10.134-0.134","","","","Rate your confidence","1",""
"538.5","e","choice","left","e","experimental","1204","852224","0.0-4.0-8.135","true","136","2.8499999999999996","","",""
"2246","1","confid","","","html-slider-response","1206","854985","0.0-4.0-10.135-0.135","","","","Rate your confidence","1",""
"497.59999999403954","i","choice","left","e","experimental","1213","857271","0.0-4.0-8.136","false","137","2.8499999999999996","","",""
"2157.5999999940395","2","confid","","","html-slider-response","1215","859933","0.0-4.0-10.136-0.136","","","","Rate your confidence","1",""
"386.79999999701977","e","choice","right","i","experimental","1222","862120","0.0-4.0-8.137","false","138","2.9499999999999997","","",""
"4970","4","confid","","","html-slider-response","1224","867594","0.0-4.0-10.137-0.137","","","","Rate your confidence","1",""
"387.19999998807907","e","choice","left","e","experimental","1231","869790","0.0-4.0-8.138","true","139","3.05","","",""
"3844.4000000059605","4","confid","","","html-slider-response","1233","874138","0.0-4.0-10.138-0.138","","","","Rate your confidence","1",""
"351.70000000298023","i","choice","right","i","experimental","1240","876282","0.0-4.0-8.139","true","140","3.05","","",""
"2501","3","confid","","","html-slider-response","1242","879288","0.0-4.0-10.139-0.139","","","","Rate your confidence","1",""
"275.5","i","choice","right","i","experimental","1249","881360","0.0-4.0-8.140","true","141","2.9499999999999997","","",""
"2220.5999999940395","4","confid","","","html-slider-response","1251","884083","0.0-4.0-10.140-0.140","","","","Rate your confidence","1",""
"273.1000000089407","e","choice","left","e","experimental","1258","886160","0.0-4.0-8.141","true","142","2.9499999999999997","","",""
"2189.5999999940395","3","confid","","","html-slider-response","1260","888854","0.0-4.0-10.141-0.141","","","","Rate your confidence","1",""
"480.79999999701977","e","choice","left","e","experimental","1267","891130","0.0-4.0-8.142","true","143","2.8499999999999996","","",""
"2668.2000000029802","3","confid","","","html-slider-response","1269","894303","0.0-4.0-10.142-0.142","","","","Rate your confidence","1",""
"254.79999999701977","e","choice","right","i","experimental","1276","896360","0.0-4.0-8.143","false","144","2.8499999999999996","","",""
"2493.5999999940395","4","confid","","","html-slider-response","1278","899358","0.0-4.0-10.143-0.143","","","","Rate your confidence","1",""
"580.4000000059605","e","choice","right","i","experimental","1285","901741","0.0-4.0-8.144","false","145","2.9499999999999997","","",""
"2463.7999999970198","1","confid","","","html-slider-response","1287","904711","0.0-4.0-10.144-0.144","","","","Rate your confidence","1",""
"377.20000000298023","e","choice","left","e","experimental","1294","906882","0.0-4.0-8.145","true","146","3.05","","",""
"3825.7000000029802","5","confid","","","html-slider-response","1296","911212","0.0-4.0-10.145-0.145","","","","Rate your confidence","1",""
"478.79999999701977","e","choice","left","e","experimental","1303","913486","0.0-4.0-8.146","true","147","3.05","","",""
"1941.4000000059605","4","confid","","","html-slider-response","1305","915932","0.0-4.0-10.146-0.146","","","","Rate your confidence","1",""
"682.7999999970198","i","choice","right","i","experimental","1312","918408","0.0-4.0-8.147","true","148","2.9499999999999997","","",""
"1910.199999988079","5","confid","","","html-slider-response","1314","920823","0.0-4.0-10.147-0.147","","","","Rate your confidence","1",""
"774.2999999970198","e","choice","left","e","experimental","1321","923388","0.0-4.0-8.148","true","149","2.9499999999999997","","",""
"2598","4","confid","","","html-slider-response","1323","926489","0.0-4.0-10.148-0.148","","","","Rate your confidence","1",""
"964.5","i","choice","right","i","experimental","1330","929244","0.0-4.0-8.149","true","150","2.8499999999999996","","",""
"4924.20000000298","4","confid","","","html-slider-response","1332","934674","0.0-4.0-10.149-0.149","","","","Rate your confidence","1",""
"460.8999999910593","i","choice","left","e","experimental","1339","936943","0.0-4.0-8.150","false","151","2.8499999999999996","","",""
"2725.7000000029802","4","confid","","","html-slider-response","1341","940172","0.0-4.0-10.150-0.150","","","","Rate your confidence","1",""
"386.09999999403954","e","choice","right","i","experimental","1348","942355","0.0-4.0-8.151","false","152","2.9499999999999997","","",""
"4121.79999999702","4","confid","","","html-slider-response","1350","946981","0.0-4.0-10.151-0.151","","","","Rate your confidence","1",""
"23.5","e","choice","left","e","experimental","1358","950696","0.0-4.0-8.152","true","153","3.05","","",""
"2143","3","confid","","","html-slider-response","1360","953343","0.0-4.0-10.152-0.152","","","","Rate your confidence","1",""
"457.5","i","choice","right","i","experimental","1367","955603","0.0-4.0-8.153","true","154","3.05","","",""
"3452.6000000089407","3","confid","","","html-slider-response","1369","959560","0.0-4.0-10.153-0.153","","","","Rate your confidence","1",""
"448.40000000596046","i","choice","left","e","experimental","1376","961798","0.0-4.0-8.154","false","155","2.9499999999999997","","",""
"3093.7999999970198","4","confid","","","html-slider-response","1378","965396","0.0-4.0-10.154-0.154","","","","Rate your confidence","1",""
"373.20000000298023","i","choice","right","i","experimental","1385","967579","0.0-4.0-8.155","true","156","3.05","","",""
"2260.300000011921","3","confid","","","html-slider-response","1387","970345","0.0-4.0-10.155-0.155","","","","Rate your confidence","1",""
"1926.9000000059605","i","choice","right","i","experimental","1394","974058","0.0-4.0-8.156","true","157","3.05","","",""
"2137.4000000059605","4","confid","","","html-slider-response","1396","976711","0.0-4.0-10.156-0.156","","","","Rate your confidence","1",""
"294.70000000298023","e","choice","left","e","experimental","1403","978796","0.0-4.0-8.157","true","158","2.9499999999999997","","",""
"1935.4000000059605","4","confid","","","html-slider-response","1405","981235","0.0-4.0-10.157-0.157","","","","Rate your confidence","1",""
"439.80000001192093","i","choice","right","i","experimental","1412","983480","0.0-4.0-8.158","true","159","2.9499999999999997","","",""
"2471.2999999970198","4","confid","","","html-slider-response","1414","986455","0.0-4.0-10.158-0.158","","","","Rate your confidence","1",""
"383.09999999403954","e","choice","left","e","experimental","1421","988628","0.0-4.0-8.159","true","160","2.8499999999999996","","",""
"1768","4","confid","","","html-slider-response","1423","990902","0.0-4.0-10.159-0.159","","","","Rate your confidence","1",""
"757.0999999940395","e","choice","left","e","experimental","1430","993455","0.0-4.0-8.160","true","161","2.8499999999999996","","",""
"2297.300000011921","4","confid","","","html-slider-response","1432","996267","0.0-4.0-10.160-0.160","","","","Rate your confidence","1",""
"446.5","e","choice","right","i","experimental","1439","998507","0.0-4.0-8.161","false","162","2.7499999999999996","","",""
"1885.3999999910593","4","confid","","","html-slider-response","1441","1000896","0.0-4.0-10.161-0.161","","","","Rate your confidence","1",""
"312.90000000596046","e","choice","left","e","experimental","1448","1003000","0.0-4.0-8.162","true","163","2.8499999999999996","","",""
"4938.899999991059","5","confid","","","html-slider-response","1450","1008442","0.0-4.0-10.162-0.162","","","","Rate your confidence","1",""
"1083.2999999970198","e","choice","right","i","experimental","1457","1011329","0.0-4.0-8.163","false","164","2.8499999999999996","","",""
"1892.2999999970198","2","confid","","","html-slider-response","1459","1013726","0.0-4.0-10.163-0.163","","","","Rate your confidence","1",""
"747.7000000029802","i","choice","left","e","experimental","1466","1016261","0.0-4.0-8.164","false","165","2.9499999999999997","","",""
"2820.0999999940395","1","confid","","","html-slider-response","1468","1019585","0.0-4.0-10.164-0.164","","","","Rate your confidence","1",""
"358.20000000298023","e","choice","right","i","experimental","1475","1021727","0.0-4.0-8.165","false","166","3.05","","",""
"1917.6000000089407","2","confid","","","html-slider-response","1477","1024149","0.0-4.0-10.165-0.165","","","","Rate your confidence","1",""
"962.2000000029802","e","choice","left","e","experimental","1484","1026912","0.0-4.0-8.166","true","167","3.15","","",""
"3026.7000000029802","6","confid","","","html-slider-response","1486","1030443","0.0-4.0-10.166-0.166","","","","Rate your confidence","1",""
"572.9000000059605","i","choice","right","i","experimental","1493","1032816","0.0-4.0-8.167","true","168","3.15","","",""
"2217.5","6","confid","","","html-slider-response","1495","1035539","0.0-4.0-10.167-0.167","","","","Rate your confidence","1",""
"381.29999999701977","e","choice","left","e","experimental","1502","1037727","0.0-4.0-8.168","true","169","3.05","","",""
"3921.7999999970198","5","confid","","","html-slider-response","1504","1042153","0.0-4.0-10.168-0.168","","","","Rate your confidence","1",""
"437.79999999701977","i","choice","right","i","experimental","1511","1044387","0.0-4.0-8.169","true","170","3.05","","",""
"3421.1000000089407","5","confid","","","html-slider-response","1513","1048317","0.0-4.0-10.169-0.169","","","","Rate your confidence","1",""
"472.09999999403954","e","choice","left","e","experimental","1520","1050581","0.0-4.0-8.170","true","171","2.9499999999999997","","",""
"2440.7000000029802","5","confid","","","html-slider-response","1522","1053527","0.0-4.0-10.170-0.170","","","","Rate your confidence","1",""
"299.90000000596046","i","choice","right","i","experimental","1529","1055630","0.0-4.0-8.171","true","172","2.9499999999999997","","",""
"2971.7999999970198","5","confid","","","html-slider-response","1531","1059106","0.0-4.0-10.171-0.171","","","","Rate your confidence","1",""
"37.3999999910593","e","choice","right","i","experimental","1538","1060941","0.0-4.0-8.172","false","173","2.8499999999999996","","",""
"1795","4","confid","","","html-slider-response","1540","1063251","0.0-4.0-10.172-0.172","","","","Rate your confidence","1",""
"1016","e","choice","left","e","experimental","1547","1066067","0.0-4.0-8.173","true","174","2.9499999999999997","","",""
"2741.9000000059605","5","confid","","","html-slider-response","1549","1069313","0.0-4.0-10.173-0.173","","","","Rate your confidence","1",""
"108","e","choice","left","e","experimental","1556","1071229","0.0-4.0-8.174","true","175","2.9499999999999997","","",""
"1546.9000000059605","5","confid","","","html-slider-response","1558","1073280","0.0-4.0-10.174-0.174","","","","Rate your confidence","1",""
"244.90000000596046","e","choice","right","i","experimental","1565","1075312","0.0-4.0-8.175","false","176","2.8499999999999996","","",""
"1591.1000000089407","4","confid","","","html-slider-response","1567","1077407","0.0-4.0-10.175-0.175","","","","Rate your confidence","1",""
"805.4000000059605","e","choice","right","i","experimental","1574","1080009","0.0-4.0-8.176","false","177","2.9499999999999997","","",""
"2039.9000000059605","1","confid","","","html-slider-response","1576","1082553","0.0-4.0-10.176-0.176","","","","Rate your confidence","1",""
"586.5999999940395","e","choice","left","e","experimental","1583","1084929","0.0-4.0-8.177","true","178","3.05","","",""
"1470","5","confid","","","html-slider-response","1585","1086904","0.0-4.0-10.177-0.177","","","","Rate your confidence","1",""
"277.6000000089407","e","choice","left","e","experimental","1592","1088984","0.0-4.0-8.178","true","179","3.05","","",""
"1717.6000000089407","5","confid","","","html-slider-response","1594","1091205","0.0-4.0-10.178-0.178","","","","Rate your confidence","1",""
"493.59999999403954","e","choice","right","i","experimental","1601","1093512","0.0-4.0-8.179","false","180","2.9499999999999997","","",""
"1757.7000000029802","3","confid","","","html-slider-response","1603","1095774","0.0-4.0-10.179-0.179","","","","Rate your confidence","1",""
"610.7999999970198","e","choice","left","e","experimental","1610","1098172","0.0-4.0-8.180","true","181","3.05","","",""
"3480.2999999970198","5","confid","","","html-slider-response","1612","1102155","0.0-4.0-10.180-0.180","","","","Rate your confidence","1",""
"355.40000000596046","i","choice","right","i","experimental","1619","1104304","0.0-4.0-8.181","true","182","3.05","","",""
"9307.29999999702","3","confid","","","html-slider-response","1621","1114116","0.0-4.0-10.181-0.181","","","","Rate your confidence","1",""
"25.299999997019768","e","choice","left","e","experimental","1628","1115947","0.0-4.0-8.182","true","183","2.9499999999999997","","",""
"14942.39999999106","5","confid","","","html-slider-response","1630","1131393","0.0-4.0-10.182-0.182","","","","Rate your confidence","1",""
"334.70000000298023","i","choice","right","i","experimental","1637","1133532","0.0-4.0-8.183","true","184","2.9499999999999997","","",""
"3861.1000000089407","6","confid","","","html-slider-response","1639","1137897","0.0-4.0-10.183-0.183","","","","Rate your confidence","1",""
"177.70000000298023","e","choice","left","e","experimental","1646","1139872","0.0-4.0-8.184","true","185","2.8499999999999996","","",""
"2088.0999999940395","5","confid","","","html-slider-response","1648","1142463","0.0-4.0-10.184-0.184","","","","Rate your confidence","1",""
"379.09999999403954","i","choice","right","i","experimental","1655","1144640","0.0-4.0-8.185","true","186","2.8499999999999996","","",""
"2555.7999999970198","5","confid","","","html-slider-response","1657","1147700","0.0-4.0-10.185-0.185","","","","Rate your confidence","1",""
"423.29999999701977","e","choice","left","e","experimental","1664","1149919","0.0-4.0-8.186","true","187","2.7499999999999996","","",""
"2859.7999999970198","6","confid","","","html-slider-response","1666","1153284","0.0-4.0-10.186-0.186","","","","Rate your confidence","1",""
"1073","i","choice","right","i","experimental","1673","1156140","0.0-4.0-8.187","true","188","2.7499999999999996","","",""
"2584.7000000029802","4","confid","","","html-slider-response","1675","1159229","0.0-4.0-10.187-0.187","","","","Rate your confidence","1",""
"293.80000001192093","i","choice","right","i","experimental","1682","1161325","0.0-4.0-8.188","true","189","2.6499999999999995","","",""
"2597.6000000089407","5","confid","","","html-slider-response","1684","1164427","0.0-4.0-10.188-0.188","","","","Rate your confidence","1",""
"884.5","e","choice","left","e","experimental","1691","1167105","0.0-4.0-8.189","true","190","2.6499999999999995","","",""
"2038.5","5","confid","","","html-slider-response","1693","1169650","0.0-4.0-10.189-0.189","","","","Rate your confidence","1",""
"303.90000000596046","i","choice","right","i","experimental","1700","1171752","0.0-4.0-8.190","true","191","2.5499999999999994","","",""
"1961.5","3","confid","","","html-slider-response","1702","1174218","0.0-4.0-10.190-0.190","","","","Rate your confidence","1",""
"327.5","e","choice","left","e","experimental","1709","1176331","0.0-4.0-8.191","true","192","2.5499999999999994","","",""
"1544.6000000089407","6","confid","","","html-slider-response","1711","1178382","0.0-4.0-10.191-0.191","","","","Rate your confidence","1",""
"374","e","choice","left","e","experimental","1718","1180559","0.0-4.0-8.192","true","193","2.4499999999999993","","",""
"2877.0999999940395","3","confid","","","html-slider-response","1720","1183939","0.0-4.0-10.192-0.192","","","","Rate your confidence","1",""
"304.29999999701977","i","choice","right","i","experimental","1727","1186034","0.0-4.0-8.193","true","194","2.4499999999999993","","",""
"2841.3999999910593","4","confid","","","html-slider-response","1729","1189379","0.0-4.0-10.193-0.193","","","","Rate your confidence","1","10282"
