"rt","response","task","target_side","correct_response","trial_type","trial_index","time_elapsed","internal_node_id","correct","trial_number","n_dots","stimulus","slider_start","participant"
"1016","e","choice","left","e","practice","10","112971","0.0-4.0-8.0","true","1","4.25","","",""
"370.19999980926514","i","choice","right","i","practice","18","115636","0.0-4.0-8.1","true","2","4.25","","",""
"235.79999995231628","i","choice","left","e","practice","26","118160","0.0-4.0-8.2","false","3","3.85","","",""
"331.5","i","choice","right","i","practice","34","120776","0.0-4.0-8.3","true","4","4.25","","",""
"108.59999990463257","i","choice","right","i","practice","42","123175","0.0-4.0-8.4","true","5","4.25","","",""
"162.60000014305115","i","choice","left","e","practice","50","125629","0.0-4.0-8.5","false","6","3.85","","",""
"277.5","i","choice","left","e","practice","58","128201","0.0-4.0-8.6","false","7","4.05","","",""
"241","i","choice","right","i","practice","66","130746","0.0-4.0-8.7","true","8","4.25","","",""
"275","i","choice","right","i","practice","74","133311","0.0-4.0-8.8","true","9","4.25","","",""
"357.2000000476837","i","choice","left","e","practice","82","135969","0.0-4.0-8.9","false","10","4.05","","",""
"188.30000019073486","i","choice","right","i","practice","90","138445","0.0-4.0-8.10","true","11","4.25","","",""
"512.0999999046326","e","choice","left","e","practice","98","141248","0.0-4.0-8.11","true","12","4.25","","",""
"1849.7999999523163","e","choice","left","e","practice","106","145391","0.0-4.0-8.12","true","13","4.15","","",""
"66.79999995231628","i","choice","right","i","practice","114","147732","0.0-4.0-8.13","true","14","4.15","","",""
"171","e","choice","left","e","practice","122","150215","0.0-4.0-8.14","true","15","4.050000000000001","","",""
"77.20000004768372","i","choice","right","i","practice","130","152587","0.0-4.0-8.15","true","16","4.050000000000001","","",""
"44.700000047683716","i","choice","right","i","practice","138","154924","0.0-4.0-8.16","true","17","3.9500000000000006","","",""
"1087.3000001907349","i","choice","left","e","practice","146","158299","0.0-4.0-8.17","false","18","3.9500000000000006","","",""
"249.5","i","choice","left","e","practice","154","160852","0.0-4.0-8.18","false","19","4.050000000000001","","",""
"81.20000004768372","i","choice","right","i","practice","162","163233","0.0-4.0-8.19","true","20","4.15","","",""
"228.09999990463257","e","choice","left","e","practice","170","165759","0.0-4.0-8.20","true","21","4.15","","",""
"40.59999990463257","i","choice","right","i","practice","178","168084","0.0-4.0-8.21","true","22","4.050000000000001","","",""
"40.299999952316284","i","choice","right","i","practice","186","170413","0.0-4.0-8.22","true","23","4.050000000000001","","",""
"626.4000000953674","e","choice","left","e","practice","194","173331","0.0-4.0-8.23","true","24","3.9500000000000006","","",""
"687.5","i","choice","right","i","practice","202","176306","0.0-4.0-8.24","true","25","3.9500000000000006","","",""
"20.299999952316284","e","choice","left","e","practice","210","178615","0.0-4.0-8.25","true","26","3.8500000000000005","","",""
"136.29999995231628","i","choice","right","i","experimental","221","242773","0.0-4.0-8.26","true","27","3.8500000000000005","","",""
"8780.100000143051","3","confid","","","html-slider-response","223","252068","0.0-4.0-10.26-0.26","","","","Rate your confidence","1",""
"4063.2999999523163","e","choice","left","e","experimental","230","257922","0.0-4.0-8.27","true","28","3.7500000000000004","","",""
"12481.099999904633","1","confid","","","html-slider-response","232","270905","0.0-4.0-10.27-0.27","","","","Rate your confidence","1",""
"6666","e","choice","left","e","experimental","239","279367","0.0-4.0-8.28","true","29","3.7500000000000004","","",""
"4259.100000143051","2","confid","","","html-slider-response","241","284129","0.0-4.0-10.28-0.28","","","","Rate your confidence","1",""
"2577.0999999046326","i","choice","right","i","experimental","248","288487","0.0-4.0-8.29","true","30","3.6500000000000004","","",""
"7485.400000095367","3","confid","","","html-slider-response","250","296476","0.0-4.0-10.29-0.29","","","","Rate your confidence","1",""
"685.5","e","choice","left","e","experimental","257","298948","0.0-4.0-8.30","true","31","3.6500000000000004","","",""
"4927.099999904633","3","confid","","","html-slider-response","259","304380","0.0-4.0-10.30-0.30","","","","Rate your confidence","1",""
"66.10000014305115","i","choice","right","i","experimental","266","306245","0.0-4.0-8.31","true","32","3.5500000000000003","","",""
"3736.4000000953674","5","confid","","","html-slider-response","268","310487","0.0-4.0-10.31-0.31","","","","Rate your confidence","1",""
"332.7000000476837","i","choice","right","i","experimental","275","312617","0.0-4.0-8.32","true","33","3.5500000000000003","","",""
"2943.7000000476837","4","confid","","","html-slider-response","277","316067","0.0-4.0-10.32-0.32","","","","Rate your confidence","1",""
"18.59999990463257","e","choice","left","e","experimental","284","317869","0.0-4.0-8.33","true","34","3.45","","",""
"4230.299999952316","4","confid","","","html-slider-response","286","322605","0.0-4.0-10.33-0.33","","","","Rate your confidence","1",""
"44.700000047683716","i","choice","right","i","experimental","293","324435","0.0-4.0-8.34","true","35","3.45","","",""
"3084.7000000476837","5","confid","","","html-slider-response","295","328023","0.0-4.0-10.34-0.34","","","","Rate your confidence","1",""
"5.299999952316284","e","choice","left","e","experimental","302","329810","0.0-4.0-8.35","true","36","3.35","","",""
"3253.800000190735","3","confid","","","html-slider-response","304","333565","0.0-4.0-10.35-0.35","","","","Rate your confidence","1",""
"169.09999990463257","i","choice","right","i","experimental","311","335522","0.0-4.0-8.36","true","37","3.35","","",""
"3654.399999856949","3","confid","","","html-slider-response","313","339691","0.0-4.0-10.36-0.36","","","","Rate your confidence","1",""
"319.5","i","choice","left","e","experimental","320","341811","0.0-4.0-8.37","false","38","3.25","","",""
"3855.7999999523163","3","confid","","","html-slider-response","322","346172","0.0-4.0-10.37-0.37","","","","Rate your confidence","1",""
"57.700000047683716","i","choice","left","e","experimental","329","348010","0.0-4.0-8.38","false","39","3.35","","",""
"4998.599999904633","2","confid","","","html-slider-response","331","353513","0.0-4.0-10.38-0.38","","","","Rate your confidence","1",""
"82.20000004768372","i","choice","right","i","experimental","338","355378","0.0-4.0-8.39","true","40","3.45","","",""
"2939.300000190735","5","confid","","","html-slider-response","340","358824","0.0-4.0-10.39-0.39","","","","Rate your confidence","1",""
"5393","i","choice","right","i","experimental","347","366015","0.0-4.0-8.40","true","41","3.45","","",""
"3292","4","confid","","","html-slider-response","349","369812","0.0-4.0-10.40-0.40","","","","Rate your confidence","1",""
"136.69999980926514","e","choice","left","e","experimental","356","371736","0.0-4.0-8.41","true","42","3.35","","",""
"3063.5999999046326","5","confid","","","html-slider-response","358","375304","0.0-4.0-10.41-0.41","","","","Rate your confidence","1",""
"282.5","i","choice","right","i","experimental","365","377384","0.0-4.0-8.42","true","43","3.35","","",""
"3307","3","confid","","","html-slider-response","367","381207","0.0-4.0-10.42-0.42","","","","Rate your confidence","1",""
"209","e","choice","left","e","experimental","374","383199","0.0-4.0-8.43","true","44","3.25","","",""
"4643.399999856949","3","confid","","","html-slider-response","376","388344","0.0-4.0-10.43-0.43","","","","Rate your confidence","1",""
"560.7999999523163","i","choice","left","e","experimental","383","390688","0.0-4.0-8.44","false","45","3.25","","",""
"3114.2000000476837","4","confid","","","html-slider-response","385","394307","0.0-4.0-10.44-0.44","","","","Rate your confidence","1",""
"130.70000004768372","i","choice","right","i","experimental","392","396224","0.0-4.0-8.45","true","46","3.35","","",""
"3408.2999999523163","6","confid","","","html-slider-response","394","400136","0.0-4.0-10.45-0.45","","","","Rate your confidence","1",""
"2058.7999999523163","e","choice","left","e","experimental","401","403993","0.0-4.0-8.46","true","47","3.35","","",""
"4631","2","confid","","","html-slider-response","403","409128","0.0-4.0-10.46-0.46","","","","Rate your confidence","1",""
"6.799999952316284","i","choice","right","i","experimental","410","410916","0.0-4.0-8.47","true","48","3.25","","",""
"5898.800000190735","5","confid","","","html-slider-response","412","417333","0.0-4.0-10.47-0.47","","","","Rate your confidence","1",""
"3553.399999856949","e","choice","left","e","experimental","419","422674","0.0-4.0-8.48","true","49","3.25","","",""
"4581","2","confid","","","html-slider-response","421","427765","0.0-4.0-10.48-0.48","","","","Rate your confidence","1",""
"198.60000014305115","i","choice","right","i","experimental","428","429755","0.0-4.0-8.49","true","50","3.15","","",""
"2368.399999856949","5","confid","","","html-slider-response","430","432629","0.0-4.0-10.49-0.49","","","","Rate your confidence","1",""
"4208.099999904633","e","choice","right","i","experimental","437","438625","0.0-4.0-8.50","false","51","3.15","","",""
"3660.399999856949","1","confid","","","html-slider-response","439","442790","0.0-4.0-10.50-0.50","","","","Rate your confidence","1",""
"359.90000009536743","i","choice","left","e","experimental","446","444935","0.0-4.0-8.51","false","52","3.25","","",""
"4857.599999904633","4","confid","","","html-slider-response","448","450297","0.0-4.0-10.51-0.51","","","","Rate your confidence","1",""
"3920","i","choice","left","e","experimental","455","456016","0.0-4.0-8.52","false","53","3.35","","",""
"4243.400000095367","2","confid","","","html-slider-response","457","460764","0.0-4.0-10.52-0.52","","","","Rate your confidence","1",""
"329.2999999523163","i","choice","right","i","experimental","464","462878","0.0-4.0-8.53","true","54","3.45","","",""
"3952.100000143051","5","confid","","","html-slider-response","466","467343","0.0-4.0-10.53-0.53","","","","Rate your confidence","1",""
"2331.5","e","choice","right","i","experimental","473","471460","0.0-4.0-8.54","false","55","3.45","","",""
"2528.5","2","confid","","","html-slider-response","475","474491","0.0-4.0-10.54-0.54","","","","Rate your confidence","1",""
"198","i","choice","left","e","experimental","482","476481","0.0-4.0-8.55","false","56","3.5500000000000003","","",""
"3584.399999856949","5","confid","","","html-slider-response","484","480569","0.0-4.0-10.55-0.55","","","","Rate your confidence","1",""
"354","e","choice","left","e","experimental","491","482723","0.0-4.0-8.56","true","57","3.6500000000000004","","",""
"2832.2999999523163","3","confid","","","html-slider-response","493","486061","0.0-4.0-10.56-0.56","","","","Rate your confidence","1",""
"432.2999999523163","i","choice","right","i","experimental","500","488283","0.0-4.0-8.57","true","58","3.6500000000000004","","",""
"2760.5999999046326","4","confid","","","html-slider-response","502","491564","0.0-4.0-10.57-0.57","","","","Rate your confidence","1",""
"2756.2999999523163","e","choice","right","i","experimental","509","496107","0.0-4.0-8.58","false","59","3.5500000000000003","","",""
"2874.0999999046326","2","confid","","","html-slider-response","511","499484","0.0-4.0-10.58-0.58","","","","Rate your confidence","1",""
"2994.4000000953674","e","choice","left","e","experimental","518","504264","0.0-4.0-8.59","true","60","3.6500000000000004","","",""
"2394.2000000476837","2","confid","","","html-slider-response","520","507161","0.0-4.0-10.59-0.59","","","","Rate your confidence","1",""
"61.40000009536743","i","choice","right","i","experimental","527","509018","0.0-4.0-8.60","true","61","3.6500000000000004","","",""
"3888.9000000953674","5","confid","","","html-slider-response","529","513411","0.0-4.0-10.60-0.60","","","","Rate your confidence","1",""
"579.2999999523163","e","choice","left","e","experimental","536","515777","0.0-4.0-8.61","true","62","3.5500000000000003","","",""
"2441","3","confid","","","html-slider-response","538","518720","0.0-4.0-10.61-0.61","","","","Rate your confidence","1",""
"47","i","choice","right","i","experimental","545","520550","0.0-4.0-8.62","true","63","3.5500000000000003","","",""
"3323","4","confid","","","html-slider-response","547","524376","0.0-4.0-10.62-0.62","","","","Rate your confidence","1",""
"400.10000014305115","e","choice","left","e","experimental","554","526567","0.0-4.0-8.63","true","64","3.45","","",""
"2844.5","4","confid","","","html-slider-response","556","529916","0.0-4.0-10.63-0.63","","","","Rate your confidence","1",""
"260.2999999523163","i","choice","right","i","experimental","563","531970","0.0-4.0-8.64","true","65","3.45","","",""
"6364.900000095367","3","confid","","","html-slider-response","565","538837","0.0-4.0-10.64-0.64","","","","Rate your confidence","1",""
"2068.699999809265","e","choice","left","e","experimental","572","542704","0.0-4.0-8.65","true","66","3.35","","",""
"9321.799999952316","3","confid","","","html-slider-response","574","552531","0.0-4.0-10.65-0.65","","","","Rate your confidence","1",""
"1894.7999999523163","e","choice","left","e","experimental","581","556214","0.0-4.0-8.66","true","67","3.35","","",""
"5740.300000190735","5","confid","","","html-slider-response","583","562459","0.0-4.0-10.66-0.66","","","","Rate your confidence","1",""
"2714.7000000476837","e","choice","right","i","experimental","590","566961","0.0-4.0-8.67","false","68","3.25","","",""
"2928.5","2","confid","","","html-slider-response","592","570393","0.0-4.0-10.67-0.67","","","","Rate your confidence","1",""
"275.90000009536743","i","choice","right","i","experimental","600","1275239","0.0-4.0-8.68","true","69","3.35","","",""
"4922.400000095367","4","confid","","","html-slider-response","602","1280666","0.0-4.0-10.68-0.68","","","","Rate your confidence","1",""
"171.09999990463257","i","choice","left","e","experimental","609","1282636","0.0-4.0-8.69","false","70","3.35","","",""
"3228.9000000953674","3","confid","","","html-slider-response","611","1286369","0.0-4.0-10.69-0.69","","","","Rate your confidence","1",""
"213.29999995231628","i","choice","left","e","experimental","618","1288375","0.0-4.0-8.70","false","71","3.45","","",""
"3603.7999999523163","5","confid","","","html-slider-response","620","1292484","0.0-4.0-10.70-0.70","","","","Rate your confidence","1",""
"182.5","i","choice","right","i","experimental","627","1294453","0.0-4.0-8.71","true","72","3.5500000000000003","","",""
"3007.5999999046326","3","confid","","","html-slider-response","629","1297971","0.0-4.0-10.71-0.71","","","","Rate your confidence","1",""
"3755","i","choice","left","e","experimental","636","1303513","0.0-4.0-8.72","false","73","3.5500000000000003","","",""
"2792.9000000953674","2","confid","","","html-slider-response","638","1306812","0.0-4.0-10.72-0.72","","","","Rate your confidence","1",""
"98.30000019073486","i","choice","right","i","experimental","645","1308707","0.0-4.0-8.73","true","74","3.6500000000000004","","",""
"4859.399999856949","4","confid","","","html-slider-response","647","1314072","0.0-4.0-10.73-0.73","","","","Rate your confidence","1",""
"1444.9000000953674","e","choice","left","e","experimental","654","1317303","0.0-4.0-8.74","true","75","3.6500000000000004","","",""
"5956.599999904633","1","confid","","","html-slider-response","656","1323764","0.0-4.0-10.74-0.74","","","","Rate your confidence","1",""
"2251.2000000476837","i","choice","right","i","experimental","663","1327804","0.0-4.0-8.75","true","76","3.5500000000000003","","",""
"5428.299999952316","4","confid","","","html-slider-response","665","1333735","0.0-4.0-10.75-0.75","","","","Rate your confidence","1",""
"1842.3999998569489","i","choice","right","i","experimental","672","1337370","0.0-4.0-8.76","true","77","3.5500000000000003","","",""
"2458.7999999523163","3","confid","","","html-slider-response","674","1340333","0.0-4.0-10.76-0.76","","","","Rate your confidence","1",""
"5627.299999952316","i","choice","left","e","experimental","681","1347745","0.0-4.0-8.77","false","78","3.45","","",""
"4999.099999904633","2","confid","","","html-slider-response","683","1353247","0.0-4.0-10.77-0.77","","","","Rate your confidence","1",""
"1012","e","choice","left","e","experimental","690","1356049","0.0-4.0-8.78","true","79","3.5500000000000003","","",""
"2275.699999809265","2","confid","","","html-slider-response","692","1358830","0.0-4.0-10.78-0.78","","","","Rate your confidence","1",""
"130.80000019073486","i","choice","right","i","experimental","699","1360757","0.0-4.0-8.79","true","80","3.5500000000000003","","",""
"2541.4000000953674","4","confid","","","html-slider-response","701","1363803","0.0-4.0-10.79-0.79","","","","Rate your confidence","1",""
"752.5","i","choice","right","i","experimental","708","1366355","0.0-4.0-8.80","true","81","3.45","","",""
"3460.4000000953674","4","confid","","","html-slider-response","710","1370321","0.0-4.0-10.80-0.80","","","","Rate your confidence","1",""
"1294.2999999523163","e","choice","left","e","experimental","717","1373400","0.0-4.0-8.81","true","82","3.45","","",""
"2437.5","2","confid","","","html-slider-response","719","1376341","0.0-4.0-10.81-0.81","","","","Rate your confidence","1",""
"897","i","choice","right","i","experimental","726","1379015","0.0-4.0-8.82","true","83","3.35","","",""
"4452.200000047684","3","confid","","","html-slider-response","728","1383972","0.0-4.0-10.82-0.82","","","","Rate your confidence","1",""
"568.3999998569489","e","choice","left","e","experimental","735","1386328","0.0-4.0-8.83","true","84","3.35","","",""
"4177.099999904633","5","confid","","","html-slider-response","737","1391010","0.0-4.0-10.83-0.83","","","","Rate your confidence","1",""
"403.5","e","choice","left","e","experimental","744","1393213","0.0-4.0-8.84","true","85","3.25","","",""
"4459.299999952316","5","confid","","","html-slider-response","746","1398175","0.0-4.0-10.84-0.84","","","","Rate your confidence","1",""
"1998.2999999523163","i","choice","right","i","experimental","753","1401969","0.0-4.0-8.85","true","86","3.25","","",""
"5266.700000047684","3","confid","","","html-slider-response","755","1407741","0.0-4.0-10.85-0.85","","","","Rate your confidence","1",""
"1765.3999998569489","i","choice","left","e","experimental","762","1411295","0.0-4.0-8.86","false","87","3.15","","",""
"21985.599999904633","3","confid","","","html-slider-response","764","1433802","0.0-4.0-10.86-0.86","","","","Rate your confidence","1",""
"2036.4000000953674","e","choice","right","i","experimental","771","1437628","0.0-4.0-8.87","false","88","3.25","","",""
"3262.2999999523163","3","confid","","","html-slider-response","773","1441395","0.0-4.0-10.87-0.87","","","","Rate your confidence","1",""
"1556","i","choice","left","e","experimental","780","1444746","0.0-4.0-8.88","false","89","3.35","","",""
"2792.0999999046326","3","confid","","","html-slider-response","782","1448042","0.0-4.0-10.88-0.88","","","","Rate your confidence","1",""
"347.09999990463257","i","choice","right","i","experimental","789","1450189","0.0-4.0-8.89","true","90","3.45","","",""
"2312.4000000953674","5","confid","","","html-slider-response","791","1453006","0.0-4.0-10.89-0.89","","","","Rate your confidence","1",""
"1815.7999999523163","e","choice","right","i","experimental","798","1456612","0.0-4.0-8.90","false","91","3.45","","",""
"4251.799999952316","2","confid","","","html-slider-response","800","1461369","0.0-4.0-10.90-0.90","","","","Rate your confidence","1",""
"597.2999999523163","e","choice","left","e","experimental","807","1463749","0.0-4.0-8.91","true","92","3.5500000000000003","","",""
"4435.899999856949","5","confid","","","html-slider-response","809","1468690","0.0-4.0-10.91-0.91","","","","Rate your confidence","1",""
"477.09999990463257","e","choice","left","e","experimental","816","1470957","0.0-4.0-8.92","true","93","3.5500000000000003","","",""
"2131","5","confid","","","html-slider-response","818","1473594","0.0-4.0-10.92-0.92","","","","Rate your confidence","1",""
"3062.5999999046326","i","choice","right","i","experimental","825","1478434","0.0-4.0-8.93","true","94","3.45","","",""
"5275.299999952316","2","confid","","","html-slider-response","827","1484213","0.0-4.0-10.93-0.93","","","","Rate your confidence","1",""
"777.2000000476837","e","choice","left","e","experimental","834","1486783","0.0-4.0-8.94","true","95","3.45","","",""
"4235.099999904633","2","confid","","","html-slider-response","836","1491521","0.0-4.0-10.94-0.94","","","","Rate your confidence","1",""
"67.20000004768372","i","choice","right","i","experimental","843","1493389","0.0-4.0-8.95","true","96","3.35","","",""
"3501.2000000476837","5","confid","","","html-slider-response","845","1497395","0.0-4.0-10.95-0.95","","","","Rate your confidence","1",""
"693.2000000476837","e","choice","left","e","experimental","852","1499872","0.0-4.0-8.96","true","97","3.35","","",""
"4749.099999904633","5","confid","","","html-slider-response","854","1505139","0.0-4.0-10.96-0.96","","","","Rate your confidence","1",""
"515.0999999046326","i","choice","right","i","experimental","861","1507445","0.0-4.0-8.97","true","98","3.25","","",""
"2767.899999856949","5","confid","","","html-slider-response","863","1510719","0.0-4.0-10.97-0.97","","","","Rate your confidence","1",""
"824.5","e","choice","right","i","experimental","870","1513348","0.0-4.0-8.98","false","99","3.25","","",""
"3440.7999999523163","3","confid","","","html-slider-response","872","1517293","0.0-4.0-10.98-0.98","","","","Rate your confidence","1",""
"1088.7999999523163","e","choice","left","e","experimental","879","1520182","0.0-4.0-8.99","true","100","3.35","","",""
"2332.5","4","confid","","","html-slider-response","881","1523020","0.0-4.0-10.99-0.99","","","","Rate your confidence","1",""
"1382.6000001430511","e","choice","left","e","experimental","888","1526206","0.0-4.0-8.100","true","101","3.35","","",""
"3232.4000000953674","4","confid","","","html-slider-response","890","1529944","0.0-4.0-10.100-0.100","","","","Rate your confidence","1",""
"502.7000000476837","i","choice","right","i","experimental","897","1532231","0.0-4.0-8.101","true","102","3.25","","",""
"3530.899999856949","5","confid","","","html-slider-response","899","1536266","0.0-4.0-10.101-0.101","","","","Rate your confidence","1",""
"844","i","choice","right","i","experimental","906","1538888","0.0-4.0-8.102","true","103","3.25","","",""
"2490.0999999046326","5","confid","","","html-slider-response","908","1541881","0.0-4.0-10.102-0.102","","","","Rate your confidence","1",""
"1028.2000000476837","e","choice","left","e","experimental","915","1544699","0.0-4.0-8.103","true","104","3.15","","",""
"3684.2999999523163","3","confid","","","html-slider-response","917","1548890","0.0-4.0-10.103-0.103","","","","Rate your confidence","1",""
"3257.5999999046326","e","choice","left","e","experimental","924","1553947","0.0-4.0-8.104","true","105","3.15","","",""
"5538.700000047684","3","confid","","","html-slider-response","926","1559991","0.0-4.0-10.104-0.104","","","","Rate your confidence","1",""
"1936","i","choice","right","i","experimental","933","1563716","0.0-4.0-8.105","true","106","3.05","","",""
"3711.199999809265","4","confid","","","html-slider-response","935","1567931","0.0-4.0-10.105-0.105","","","","Rate your confidence","1",""
"1879","i","choice","right","i","experimental","942","1571596","0.0-4.0-8.106","true","107","3.05","","",""
"2500.9000000953674","4","confid","","","html-slider-response","944","1574603","0.0-4.0-10.106-0.106","","","","Rate your confidence","1",""
"1443.9000000953674","e","choice","left","e","experimental","951","1577835","0.0-4.0-8.107","true","108","2.9499999999999997","","",""
"2757.0999999046326","3","confid","","","html-slider-response","953","1581101","0.0-4.0-10.107-0.107","","","","Rate your confidence","1",""
"1972.5","i","choice","right","i","experimental","960","1584862","0.0-4.0-8.108","true","109","2.9499999999999997","","",""
"2580.7000000476837","4","confid","","","html-slider-response","962","1587950","0.0-4.0-10.108-0.108","","","","Rate your confidence","1",""
"1250.5","e","choice","left","e","experimental","969","1591002","0.0-4.0-8.109","true","110","2.8499999999999996","","",""
"4047.0999999046326","3","confid","","","html-slider-response","971","1595552","0.0-4.0-10.109-0.109","","","","Rate your confidence","1",""
"947.5","i","choice","left","e","experimental","979","1888903","0.0-4.0-8.110","false","111","2.8499999999999996","","",""
"3107.5999999046326","3","confid","","","html-slider-response","981","1892517","0.0-4.0-10.110-0.110","","","","Rate your confidence","1",""
"4415.799999952316","i","choice","right","i","experimental","988","1898733","0.0-4.0-8.111","true","112","2.9499999999999997","","",""
"3547","2","confid","","","html-slider-response","990","1902786","0.0-4.0-10.111-0.111","","","","Rate your confidence","1",""
"2849.899999856949","i","choice","right","i","experimental","997","1907427","0.0-4.0-8.112","true","113","2.9499999999999997","","",""
"2512.9000000953674","4","confid","","","html-slider-response","999","1910445","0.0-4.0-10.112-0.112","","","","Rate your confidence","1",""
"2738.9000000953674","e","choice","left","e","experimental","1006","1914988","0.0-4.0-8.113","true","114","2.8499999999999996","","",""
"3686.5","3","confid","","","html-slider-response","1008","1919178","0.0-4.0-10.113-0.113","","","","Rate your confidence","1",""
"2708.0999999046326","e","choice","left","e","experimental","1015","1923677","0.0-4.0-8.114","true","115","2.8499999999999996","","",""
"4505.700000047684","4","confid","","","html-slider-response","1017","1928686","0.0-4.0-10.114-0.114","","","","Rate your confidence","1",""
"8265","e","choice","right","i","experimental","1024","1938739","0.0-4.0-8.115","false","116","2.7499999999999996","","",""
"3767.0999999046326","4","confid","","","html-slider-response","1026","1943011","0.0-4.0-10.115-0.115","","","","Rate your confidence","1",""
"2293.2999999523163","i","choice","right","i","experimental","1033","1947094","0.0-4.0-8.116","true","117","2.8499999999999996","","",""
"4580.099999904633","6","confid","","","html-slider-response","1035","1952177","0.0-4.0-10.116-0.116","","","","Rate your confidence","1",""
"1855","e","choice","left","e","experimental","1042","1955821","0.0-4.0-8.117","true","118","2.8499999999999996","","",""
"2871.2000000476837","5","confid","","","html-slider-response","1044","1959196","0.0-4.0-10.117-0.117","","","","Rate your confidence","1",""
"2790.9000000953674","e","choice","left","e","experimental","1051","1963786","0.0-4.0-8.118","true","119","2.7499999999999996","","",""
"2352.399999856949","2","confid","","","html-slider-response","1053","1966643","0.0-4.0-10.118-0.118","","","","Rate your confidence","1",""
"2874.800000190735","i","choice","right","i","experimental","1060","1971303","0.0-4.0-8.119","true","120","2.7499999999999996","","",""
"2545.0999999046326","5","confid","","","html-slider-response","1062","1974351","0.0-4.0-10.119-0.119","","","","Rate your confidence","1",""
"3921.300000190735","i","choice","left","e","experimental","1069","1980060","0.0-4.0-8.120","false","121","2.6499999999999995","","",""
"2821.2000000476837","2","confid","","","html-slider-response","1071","1983386","0.0-4.0-10.120-0.120","","","","Rate your confidence","1",""
"2339.7000000476837","e","choice","right","i","experimental","1078","1987512","0.0-4.0-8.121","false","122","2.7499999999999996","","",""
"2566.7000000476837","5","confid","","","html-slider-response","1080","1990582","0.0-4.0-10.121-0.121","","","","Rate your confidence","1",""
"2486","e","choice","left","e","experimental","1087","1994862","0.0-4.0-8.122","true","123","2.8499999999999996","","",""
"2347.7000000476837","4","confid","","","html-slider-response","1089","1997713","0.0-4.0-10.122-0.122","","","","Rate your confidence","1",""
"3985","e","choice","right","i","experimental","1096","2003486","0.0-4.0-8.123","false","124","2.8499999999999996","","",""
"2772.2000000476837","2","confid","","","html-slider-response","1098","2006764","0.0-4.0-10.123-0.123","","","","Rate your confidence","1",""
"2277.7000000476837","e","choice","left","e","experimental","1105","2010833","0.0-4.0-8.124","true","125","2.9499999999999997","","",""
"3274.5999999046326","3","confid","","","html-slider-response","1107","2014612","0.0-4.0-10.124-0.124","","","","Rate your confidence","1",""
"1802","i","choice","right","i","experimental","1114","2018194","0.0-4.0-8.125","true","126","2.9499999999999997","","",""
"5053.899999856949","5","confid","","","html-slider-response","1116","2023751","0.0-4.0-10.125-0.125","","","","Rate your confidence","1",""
"1876.6999998092651","i","choice","right","i","experimental","1123","2027413","0.0-4.0-8.126","true","127","2.8499999999999996","","",""
"3452.5999999046326","5","confid","","","html-slider-response","1125","2031370","0.0-4.0-10.126-0.126","","","","Rate your confidence","1",""
"1680.2999999523163","i","choice","left","e","experimental","1132","2034841","0.0-4.0-8.127","false","128","2.8499999999999996","","",""
"3013.600000143051","3","confid","","","html-slider-response","1134","2038357","0.0-4.0-10.127-0.127","","","","Rate your confidence","1",""
"2317.600000143051","e","choice","right","i","experimental","1141","2042481","0.0-4.0-8.128","false","129","2.9499999999999997","","",""
"3733.9000000953674","2","confid","","","html-slider-response","1143","2046717","0.0-4.0-10.128-0.128","","","","Rate your confidence","1",""
"2695.2000000476837","i","choice","left","e","experimental","1150","2051201","0.0-4.0-8.129","false","130","3.05","","",""
"4021.7000000476837","2","confid","","","html-slider-response","1152","2055727","0.0-4.0-10.129-0.129","","","","Rate your confidence","1",""
"1611.5999999046326","e","choice","left","e","experimental","1159","2059122","0.0-4.0-8.130","true","131","3.15","","",""
"3478","4","confid","","","html-slider-response","1161","2063104","0.0-4.0-10.130-0.130","","","","Rate your confidence","1",""
"2809.9000000953674","i","choice","right","i","experimental","1168","2067702","0.0-4.0-8.131","true","132","3.15","","",""
"2983.699999809265","4","confid","","","html-slider-response","1170","2071191","0.0-4.0-10.131-0.131","","","","Rate your confidence","1",""
"1738.5999999046326","i","choice","right","i","experimental","1177","2074727","0.0-4.0-8.132","true","133","3.05","","",""
"2859.5","3","confid","","","html-slider-response","1179","2078092","0.0-4.0-10.132-0.132","","","","Rate your confidence","1",""
"5326.200000047684","e","choice","left","e","experimental","1186","2085207","0.0-4.0-8.133","true","134","3.05","","",""
"3000.9000000953674","2","confid","","","html-slider-response","1188","2088713","0.0-4.0-10.133-0.133","","","","Rate your confidence","1",""
"2066.5","e","choice","left","e","experimental","1195","2092588","0.0-4.0-8.134","true","135","2.9499999999999997","","",""
"7351","3","confid","","","html-slider-response","1197","2100444","0.0-4.0-10.134-0.134","","","","Rate your confidence","1",""
"1657.8000001907349","i","choice","right","i","experimental","1204","2103892","0.0-4.0-8.135","true","136","2.9499999999999997","","",""
"2981.199999809265","5","confid","","","html-slider-response","1206","2107379","0.0-4.0-10.135-0.135","","","","Rate your confidence","1",""
"2165.7000000476837","i","choice","right","i","experimental","1213","2111332","0.0-4.0-8.136","true","137","2.8499999999999996","","",""
"2598","3","confid","","","html-slider-response","1215","2114433","0.0-4.0-10.136-0.136","","","","Rate your confidence","1",""
"1312.1000001430511","e","choice","left","e","experimental","1222","2117545","0.0-4.0-8.137","true","138","2.8499999999999996","","",""
"2731.0999999046326","5","confid","","","html-slider-response","1224","2120783","0.0-4.0-10.137-0.137","","","","Rate your confidence","1",""
"2511.5","i","choice","left","e","experimental","1231","2125092","0.0-4.0-8.138","false","139","2.7499999999999996","","",""
"8631.799999952316","5","confid","","","html-slider-response","1233","2134228","0.0-4.0-10.138-0.138","","","","Rate your confidence","1",""
"1688.5999999046326","e","choice","right","i","experimental","1240","2137708","0.0-4.0-8.139","false","140","2.8499999999999996","","",""
"7681.200000047684","3","confid","","","html-slider-response","1242","2145892","0.0-4.0-10.139-0.139","","","","Rate your confidence","1",""
"1647.5","e","choice","left","e","experimental","1249","2149322","0.0-4.0-8.140","true","141","2.9499999999999997","","",""
"5059.5","5","confid","","","html-slider-response","1251","2154887","0.0-4.0-10.140-0.140","","","","Rate your confidence","1",""
"1949.1999998092651","e","choice","right","i","experimental","1258","2158631","0.0-4.0-8.141","false","142","2.9499999999999997","","",""
"3438.9000000953674","1","confid","","","html-slider-response","1260","2162574","0.0-4.0-10.141-0.141","","","","Rate your confidence","1",""
"3360.5","i","choice","left","e","experimental","1267","2167728","0.0-4.0-8.142","false","143","3.05","","",""
"4464.600000143051","1","confid","","","html-slider-response","1269","2172696","0.0-4.0-10.142-0.142","","","","Rate your confidence","1",""
"2361.7000000476837","i","choice","right","i","experimental","1276","2176835","0.0-4.0-8.143","true","144","3.15","","",""
"10853.400000095367","3","confid","","","html-slider-response","1278","2188192","0.0-4.0-10.143-0.143","","","","Rate your confidence","1",""
"1420.0999999046326","i","choice","right","i","experimental","1285","2191403","0.0-4.0-8.144","true","145","3.15","","",""
"6981","5","confid","","","html-slider-response","1287","2198888","0.0-4.0-10.144-0.144","","","","Rate your confidence","1",""
"1550.2000000476837","e","choice","left","e","experimental","1294","2202227","0.0-4.0-8.145","true","146","3.05","","",""
"2900.5","4","confid","","","html-slider-response","1296","2205631","0.0-4.0-10.145-0.145","","","","Rate your confidence","1",""
"1447.2000000476837","e","choice","left","e","experimental","1303","2208882","0.0-4.0-8.146","true","147","3.05","","",""
"2712.0999999046326","4","confid","","","html-slider-response","1305","2212098","0.0-4.0-10.146-0.146","","","","Rate your confidence","1",""
"1787.7999999523163","i","choice","right","i","experimental","1312","2215673","0.0-4.0-8.147","true","148","2.9499999999999997","","",""
"4995.299999952316","5","confid","","","html-slider-response","1314","2221173","0.0-4.0-10.147-0.147","","","","Rate your confidence","1",""
"1415.7999999523163","i","choice","right","i","experimental","1321","2224374","0.0-4.0-8.148","true","149","2.9499999999999997","","",""
"4704.5","5","confid","","","html-slider-response","1323","2229585","0.0-4.0-10.148-0.148","","","","Rate your confidence","1",""
"1221.8999998569489","e","choice","left","e","experimental","1330","2232594","0.0-4.0-8.149","true","150","2.8499999999999996","","",""
"2884.100000143051","3","confid","","","html-slider-response","1332","2235985","0.0-4.0-10.149-0.149","","","","Rate your confidence","1",""
"1652.7999999523163","i","choice","left","e","experimental","1339","2239439","0.0-4.0-8.150","false","151","2.8499999999999996","","",""
"3265.600000143051","5","confid","","","html-slider-response","1341","2243210","0.0-4.0-10.150-0.150","","","","Rate your confidence","1",""
"1483.2999999523163","i","choice","right","i","experimental","1348","2246499","0.0-4.0-8.151","true","152","2.9499999999999997","","",""
"3540.2000000476837","3","confid","","","html-slider-response","1350","2250544","0.0-4.0-10.151-0.151","","","","Rate your confidence","1",""
"624.2999999523163","i","choice","right","i","experimental","1358","3532101","0.0-4.0-8.152","true","153","2.9499999999999997","","",""
"8286.100000143051","6","confid","","","html-slider-response","1360","3540892","0.0-4.0-10.152-0.152","","","","Rate your confidence","1",""
"1944.0999999046326","e","choice","left","e","experimental","1367","3544628","0.0-4.0-8.153","true","154","2.8499999999999996","","",""
"4575.299999952316","3","confid","","","html-slider-response","1369","3549709","0.0-4.0-10.153-0.153","","","","Rate your confidence","1",""
"2488.2000000476837","i","choice","right","i","experimental","1376","3553995","0.0-4.0-8.154","true","155","2.8499999999999996","","",""
"2513.7000000476837","4","confid","","","html-slider-response","1378","3557012","0.0-4.0-10.154-0.154","","","","Rate your confidence","1",""
"2985.9000000953674","i","choice","left","e","experimental","1385","3561786","0.0-4.0-8.155","false","156","2.7499999999999996","","",""
"4296.600000143051","2","confid","","","html-slider-response","1387","3566588","0.0-4.0-10.155-0.155","","","","Rate your confidence","1",""
"1902.2000000476837","i","choice","right","i","experimental","1394","3570281","0.0-4.0-8.156","true","157","2.8499999999999996","","",""
"2209.2000000476837","5","confid","","","html-slider-response","1396","3572995","0.0-4.0-10.156-0.156","","","","Rate your confidence","1",""
"1570.4000000953674","e","choice","left","e","experimental","1403","3576351","0.0-4.0-8.157","true","158","2.8499999999999996","","",""
"2447.5999999046326","5","confid","","","html-slider-response","1405","3579304","0.0-4.0-10.157-0.157","","","","Rate your confidence","1",""
"1803.9000000953674","e","choice","right","i","experimental","1412","3582896","0.0-4.0-8.158","false","159","2.7499999999999996","","",""
"2713.100000143051","3","confid","","","html-slider-response","1414","3586115","0.0-4.0-10.158-0.158","","","","Rate your confidence","1",""
"1471.7000000476837","i","choice","left","e","experimental","1421","3589387","0.0-4.0-8.159","false","160","2.8499999999999996","","",""
"2554.2999999523163","4","confid","","","html-slider-response","1423","3592447","0.0-4.0-10.159-0.159","","","","Rate your confidence","1",""
"1462.4000000953674","e","choice","left","e","experimental","1430","3595710","0.0-4.0-8.160","true","161","2.9499999999999997","","",""
"2201.100000143051","3","confid","","","html-slider-response","1432","3598415","0.0-4.0-10.160-0.160","","","","Rate your confidence","1",""
"1606.9000000953674","i","choice","right","i","experimental","1439","3601822","0.0-4.0-8.161","true","162","2.9499999999999997","","",""
"2117","5","confid","","","html-slider-response","1441","3604443","0.0-4.0-10.161-0.161","","","","Rate your confidence","1",""
"2964.5999999046326","e","choice","right","i","experimental","1448","3609198","0.0-4.0-8.162","false","163","2.8499999999999996","","",""
"5701.799999952316","1","confid","","","html-slider-response","1450","3615406","0.0-4.0-10.162-0.162","","","","Rate your confidence","1",""
"1257.2000000476837","e","choice","left","e","experimental","1457","3618450","0.0-4.0-8.163","true","164","2.9499999999999997","","",""
"2459.2999999523163","3","confid","","","html-slider-response","1459","3621423","0.0-4.0-10.163-0.163","","","","Rate your confidence","1",""
"1782","i","choice","right","i","experimental","1466","3624997","0.0-4.0-8.164","true","165","2.9499999999999997","","",""
"8121","3","confid","","","html-slider-response","1468","3633624","0.0-4.0-10.164-0.164","","","","Rate your confidence","1",""
"1367.7000000476837","e","choice","left","e","experimental","1475","3636777","0.0-4.0-8.165","true","166","2.8499999999999996","","",""
"4183.200000047684","4","confid","","","html-slider-response","1477","3641465","0.0-4.0-10.165-0.165","","","","Rate your confidence","1",""
"1030.2999999523163","e","choice","left","e","experimental","1484","3644301","0.0-4.0-8.166","true","167","2.8499999999999996","","",""
"2413.2000000476837","5","confid","","","html-slider-response","1486","3647219","0.0-4.0-10.166-0.166","","","","Rate your confidence","1",""
"1896.8000001907349","i","choice","right","i","experimental","1493","3650898","0.0-4.0-8.167","true","168","2.7499999999999996","","",""
"2698","3","confid","","","html-slider-response","1495","3654100","0.0-4.0-10.167-0.167","","","","Rate your confidence","1",""
"1348.8999998569489","e","choice","left","e","experimental","1502","3657237","0.0-4.0-8.168","true","169","2.7499999999999996","","",""
"2231","3","confid","","","html-slider-response","1504","3659971","0.0-4.0-10.168-0.168","","","","Rate your confidence","1",""
"2290.2999999523163","e","choice","right","i","experimental","1511","3664045","0.0-4.0-8.169","false","170","2.6499999999999995","","",""
"4103.599999904633","2","confid","","","html-slider-response","1513","3668654","0.0-4.0-10.169-0.169","","","","Rate your confidence","1",""
"1314.5","e","choice","left","e","experimental","1520","3671775","0.0-4.0-8.170","true","171","2.7499999999999996","","",""
"3291.2000000476837","4","confid","","","html-slider-response","1522","3675571","0.0-4.0-10.170-0.170","","","","Rate your confidence","1",""
"1881.3000001907349","e","choice","right","i","experimental","1529","3679241","0.0-4.0-8.171","false","172","2.7499999999999996","","",""
"2833.699999809265","2","confid","","","html-slider-response","1531","3682580","0.0-4.0-10.171-0.171","","","","Rate your confidence","1",""
"1308.8999998569489","e","choice","right","i","experimental","1538","3685678","0.0-4.0-8.172","false","173","2.8499999999999996","","",""
"2389.0999999046326","3","confid","","","html-slider-response","1540","3688579","0.0-4.0-10.172-0.172","","","","Rate your confidence","1",""
"1554.7999999523163","e","choice","left","e","experimental","1547","3691919","0.0-4.0-8.173","true","174","2.9499999999999997","","",""
"3542.9000000953674","2","confid","","","html-slider-response","1549","3695966","0.0-4.0-10.173-0.173","","","","Rate your confidence","1",""
"3330.300000190735","e","choice","left","e","experimental","1556","3701097","0.0-4.0-8.174","true","175","2.9499999999999997","","",""
"2802.7999999523163","2","confid","","","html-slider-response","1558","3704405","0.0-4.0-10.174-0.174","","","","Rate your confidence","1",""
"2579.2000000476837","i","choice","right","i","experimental","1565","3708780","0.0-4.0-8.175","true","176","2.8499999999999996","","",""
"2779.0999999046326","2","confid","","","html-slider-response","1567","3712065","0.0-4.0-10.175-0.175","","","","Rate your confidence","1",""
"2244.4000000953674","i","choice","right","i","experimental","1574","3716099","0.0-4.0-8.176","true","177","2.8499999999999996","","",""
"5700.299999952316","5","confid","","","html-slider-response","1576","3722305","0.0-4.0-10.176-0.176","","","","Rate your confidence","1",""
"1499","e","choice","left","e","experimental","1583","3725591","0.0-4.0-8.177","true","178","2.7499999999999996","","",""
"2370.9000000953674","5","confid","","","html-slider-response","1585","3728465","0.0-4.0-10.177-0.177","","","","Rate your confidence","1",""
"1146.4000000953674","e","choice","right","i","experimental","1592","3731409","0.0-4.0-8.178","false","179","2.7499999999999996","","",""
"4149.5","4","confid","","","html-slider-response","1594","3736063","0.0-4.0-10.178-0.178","","","","Rate your confidence","1",""
"2175.5999999046326","e","choice","left","e","experimental","1601","3740034","0.0-4.0-8.179","true","180","2.8499999999999996","","",""
"2508.600000143051","2","confid","","","html-slider-response","1603","3743047","0.0-4.0-10.179-0.179","","","","Rate your confidence","1",""
"4058.5","e","choice","left","e","experimental","1610","3748894","0.0-4.0-8.180","true","181","2.8499999999999996","","",""
"3403.2000000476837","3","confid","","","html-slider-response","1612","3752802","0.0-4.0-10.180-0.180","","","","Rate your confidence","1",""
"1566.7000000476837","i","choice","right","i","experimental","1619","3756149","0.0-4.0-8.181","true","182","2.7499999999999996","","",""
"3153.2000000476837","4","confid","","","html-slider-response","1621","3759805","0.0-4.0-10.181-0.181","","","","Rate your confidence","1",""
"1679.7999999523163","i","choice","right","i","experimental","1628","3763280","0.0-4.0-8.182","true","183","2.7499999999999996","","",""
"2664.2000000476837","5","confid","","","html-slider-response","1630","3766448","0.0-4.0-10.182-0.182","","","","Rate your confidence","1",""
"2854.2000000476837","e","choice","left","e","experimental","1637","3771107","0.0-4.0-8.183","true","184","2.6499999999999995","","",""
"2656.9000000953674","2","confid","","","html-slider-response","1639","3774269","0.0-4.0-10.183-0.183","","","","Rate your confidence","1",""
"1539.5","i","choice","right","i","experimental","1646","3777600","0.0-4.0-8.184","true","185","2.6499999999999995","","",""
"2466.7000000476837","5","confid","","","html-slider-response","1648","3780571","0.0-4.0-10.184-0.184","","","","Rate your confidence","1",""
"996.7000000476837","e","choice","left","e","experimental","1655","3783356","0.0-4.0-8.185","true","186","2.5499999999999994","","",""
"2242.7999999523163","4","confid","","","html-slider-response","1657","3786111","0.0-4.0-10.185-0.185","","","","Rate your confidence","1",""
"1397.7000000476837","e","choice","right","i","experimental","1664","3789289","0.0-4.0-8.186","false","187","2.5499999999999994","","",""
"3684.9000000953674","3","confid","","","html-slider-response","1666","3793478","0.0-4.0-10.186-0.186","","","","Rate your confidence","1",""
"1069.6000001430511","e","choice","left","e","experimental","1673","3796336","0.0-4.0-8.187","true","188","2.6499999999999995","","",""
"2511.9000000953674","4","confid","","","html-slider-response","1675","3799353","0.0-4.0-10.187-0.187","","","","Rate your confidence","1",""
"1643.2999999523163","e","choice","right","i","experimental","1682","3802788","0.0-4.0-8.188","false","189","2.6499999999999995","","",""
"3280.5","3","confid","","","html-slider-response","1684","3806571","0.0-4.0-10.188-0.188","","","","Rate your confidence","1",""
"1586.8999998569489","e","choice","left","e","experimental","1691","3809945","0.0-4.0-8.189","true","190","2.7499999999999996","","",""
"3892","2","confid","","","html-slider-response","1693","3814343","0.0-4.0-10.189-0.189","","","","Rate your confidence","1",""
"2071.2000000476837","e","choice","left","e","experimental","1700","3818205","0.0-4.0-8.190","true","191","2.7499999999999996","","",""
"2276.5999999046326","2","confid","","","html-slider-response","1702","3820994","0.0-4.0-10.190-0.190","","","","Rate your confidence","1",""
"1771.8999998569489","i","choice","right","i","experimental","1709","3824559","0.0-4.0-8.191","true","192","2.6499999999999995","","",""
"2689.2000000476837","4","confid","","","html-slider-response","1711","3827754","0.0-4.0-10.191-0.191","","","","Rate your confidence","1",""
"1323.1000001430511","e","choice","left","e","experimental","1718","3830869","0.0-4.0-8.192","true","193","2.6499999999999995","","",""
"2671.399999856949","3","confid","","","html-slider-response","1720","3834046","0.0-4.0-10.192-0.192","","","","Rate your confidence","1",""
"1275.8999998569489","i","choice","right","i","experimental","1727","3837118","0.0-4.0-8.193","true","194","2.5499999999999994","","",""
"3049.7000000476837","5","confid","","","html-slider-response","1729","3840674","0.0-4.0-10.193-0.193","","","","Rate your confidence","1","81607"
