"rt","response","task","target_side","correct_response","trial_type","trial_index","time_elapsed","internal_node_id","correct","trial_number","n_dots","stimulus","slider_start","participant"
"417.3000000715256","e","choice","left","e","practice","10","99250","0.0-4.0-8.0","true","1","4.25","","",""
"324.59999990463257","i","choice","right","i","practice","18","101882","0.0-4.0-8.1","true","2","4.25","","",""
"312","e","choice","right","i","practice","26","104487","0.0-4.0-8.2","false","3","3.85","","",""
"103","e","choice","left","e","practice","34","106878","0.0-4.0-8.3","true","4","4.25","","",""
"48","i","choice","right","i","practice","42","109207","0.0-4.0-8.4","true","5","4.25","","",""
"248.5","e","choice","left","e","practice","50","111760","0.0-4.0-8.5","true","6","3.85","","",""
"303.39999997615814","i","choice","left","e","practice","58","114353","0.0-4.0-8.6","false","7","3.85","","",""
"349.40000009536743","e","choice","right","i","practice","66","117000","0.0-4.0-8.7","false","8","4.05","","",""
"50.800000071525574","e","choice","left","e","practice","74","119344","0.0-4.0-8.8","true","9","4.25","","",""
"470.8000000715256","i","choice","right","i","practice","82","122117","0.0-4.0-8.9","true","10","4.25","","",""
"162.69999992847443","i","choice","right","i","practice","90","124563","0.0-4.0-8.10","true","11","4.05","","",""
"58.5","e","choice","left","e","practice","98","126901","0.0-4.0-8.11","true","12","4.05","","",""
"50.199999928474426","i","choice","right","i","practice","106","129242","0.0-4.0-8.12","true","13","3.9499999999999997","","",""
"4215.699999928474","e","choice","left","e","practice","114","135748","0.0-4.0-8.13","true","14","3.9499999999999997","","",""
"651.1999999284744","e","choice","left","e","practice","122","138697","0.0-4.0-8.14","true","15","3.8499999999999996","","",""
"362.40000009536743","i","choice","right","i","practice","130","141347","0.0-4.0-8.15","true","16","3.8499999999999996","","",""
"462.40000009536743","e","choice","left","e","practice","138","144109","0.0-4.0-8.16","true","17","3.7499999999999996","","",""
"355.10000002384186","i","choice","right","i","practice","146","146769","0.0-4.0-8.17","true","18","3.7499999999999996","","",""
"187.70000004768372","e","choice","left","e","practice","154","149247","0.0-4.0-8.18","true","19","3.6499999999999995","","",""
"399.7000000476837","i","choice","right","i","practice","162","151932","0.0-4.0-8.19","true","20","3.6499999999999995","","",""
"911.9000000953674","e","choice","right","i","practice","170","155139","0.0-4.0-8.20","false","21","3.5499999999999994","","",""
"735.3000000715256","e","choice","left","e","practice","178","158161","0.0-4.0-8.21","true","22","3.6499999999999995","","",""
"250.20000004768372","e","choice","left","e","practice","186","160694","0.0-4.0-8.22","true","23","3.6499999999999995","","",""
"462.8000000715256","i","choice","right","i","practice","194","163457","0.0-4.0-8.23","true","24","3.5499999999999994","","",""
"367.8000000715256","i","choice","right","i","practice","202","166131","0.0-4.0-8.24","true","25","3.5499999999999994","","",""
"108.59999990463257","e","choice","left","e","practice","210","168535","0.0-4.0-8.25","true","26","3.4499999999999993","","",""
"199.5","e","choice","left","e","experimental","221","198996","0.0-4.0-8.26","true","27","3.4499999999999993","","",""
"4072.2000000476837","6","confid","","","html-slider-response","223","203579","0.0-4.0-10.26-0.26","","","","Rate your confidence","1",""
"551","i","choice","right","i","experimental","230","205922","0.0-4.0-8.27","true","28","3.349999999999999","","",""
"1847.3999999761581","5","confid","","","html-slider-response","232","208285","0.0-4.0-10.27-0.27","","","","Rate your confidence","1",""
"961.3000000715256","i","choice","right","i","experimental","239","211034","0.0-4.0-8.28","true","29","3.349999999999999","","",""
"1699.5","5","confid","","","html-slider-response","241","213242","0.0-4.0-10.28-0.28","","","","Rate your confidence","1",""
"169","e","choice","left","e","experimental","248","215192","0.0-4.0-8.29","true","30","3.249999999999999","","",""
"2926.5","6","confid","","","html-slider-response","250","218630","0.0-4.0-10.29-0.29","","","","Rate your confidence","1",""
"523.7000000476837","e","choice","left","e","experimental","257","220941","0.0-4.0-8.30","true","31","3.249999999999999","","",""
"2666.7000000476837","4","confid","","","html-slider-response","259","224118","0.0-4.0-10.30-0.30","","","","Rate your confidence","1",""
"536.4000000953674","e","choice","right","i","experimental","266","226441","0.0-4.0-8.31","false","32","3.149999999999999","","",""
"2470","4","confid","","","html-slider-response","268","229426","0.0-4.0-10.31-0.31","","","","Rate your confidence","1",""
"641.2000000476837","e","choice","left","e","experimental","275","231867","0.0-4.0-8.32","true","33","3.249999999999999","","",""
"2924.5","3","confid","","","html-slider-response","277","235295","0.0-4.0-10.32-0.32","","","","Rate your confidence","1",""
"1752.0999999046326","i","choice","right","i","experimental","284","238824","0.0-4.0-8.33","true","34","3.249999999999999","","",""
"4723.399999976158","2","confid","","","html-slider-response","286","244054","0.0-4.0-10.33-0.33","","","","Rate your confidence","1",""
"645.3000000715256","e","choice","left","e","experimental","293","246486","0.0-4.0-8.34","true","35","3.149999999999999","","",""
"2244.1999999284744","3","confid","","","html-slider-response","295","249243","0.0-4.0-10.34-0.34","","","","Rate your confidence","1",""
"611.8000000715256","e","choice","right","i","experimental","302","251649","0.0-4.0-8.35","false","36","3.149999999999999","","",""
"1793.2000000476837","3","confid","","","html-slider-response","304","253944","0.0-4.0-10.35-0.35","","","","Rate your confidence","1",""
"1146.5","i","choice","right","i","experimental","311","256873","0.0-4.0-8.36","true","37","3.249999999999999","","",""
"2033.1000000238419","4","confid","","","html-slider-response","313","259419","0.0-4.0-10.36-0.36","","","","Rate your confidence","1",""
"762.1000000238419","e","choice","left","e","experimental","320","261971","0.0-4.0-8.37","true","38","3.249999999999999","","",""
"2815.6999999284744","5","confid","","","html-slider-response","322","265293","0.0-4.0-10.37-0.37","","","","Rate your confidence","1",""
"1240.1000000238419","e","choice","left","e","experimental","329","268311","0.0-4.0-8.38","true","39","3.149999999999999","","",""
"2212.7999999523163","4","confid","","","html-slider-response","331","271025","0.0-4.0-10.38-0.38","","","","Rate your confidence","1",""
"570","i","choice","right","i","experimental","338","273376","0.0-4.0-8.39","true","40","3.149999999999999","","",""
"3934.899999976158","4","confid","","","html-slider-response","340","277824","0.0-4.0-10.39-0.39","","","","Rate your confidence","1",""
"2025.6999999284744","e","choice","right","i","experimental","347","281639","0.0-4.0-8.40","false","41","3.049999999999999","","",""
"3090.7000000476837","1","confid","","","html-slider-response","349","285231","0.0-4.0-10.40-0.40","","","","Rate your confidence","1",""
"521.3999999761581","e","choice","left","e","experimental","356","287546","0.0-4.0-8.41","true","42","3.149999999999999","","",""
"1833.6000000238419","4","confid","","","html-slider-response","358","289881","0.0-4.0-10.41-0.41","","","","Rate your confidence","1",""
"205.5","e","choice","right","i","experimental","365","291878","0.0-4.0-8.42","false","43","3.149999999999999","","",""
"2301.7999999523163","4","confid","","","html-slider-response","367","294688","0.0-4.0-10.42-0.42","","","","Rate your confidence","1",""
"778.7000000476837","e","choice","left","e","experimental","374","297236","0.0-4.0-8.43","true","44","3.249999999999999","","",""
"1827.6000000238419","3","confid","","","html-slider-response","376","299571","0.0-4.0-10.43-0.43","","","","Rate your confidence","1",""
"584.7999999523163","i","choice","right","i","experimental","383","301946","0.0-4.0-8.44","true","45","3.249999999999999","","",""
"2312.3000000715256","2","confid","","","html-slider-response","385","304772","0.0-4.0-10.44-0.44","","","","Rate your confidence","1",""
"167.60000002384186","e","choice","left","e","experimental","392","306743","0.0-4.0-8.45","true","46","3.149999999999999","","",""
"2508.8000000715256","3","confid","","","html-slider-response","394","309765","0.0-4.0-10.45-0.45","","","","Rate your confidence","1",""
"294.89999997615814","i","choice","right","i","experimental","401","311851","0.0-4.0-8.46","true","47","3.149999999999999","","",""
"2239.600000023842","3","confid","","","html-slider-response","403","314600","0.0-4.0-10.46-0.46","","","","Rate your confidence","1",""
"154","e","choice","left","e","experimental","410","316541","0.0-4.0-8.47","true","48","3.049999999999999","","",""
"2915.4000000953674","4","confid","","","html-slider-response","412","319969","0.0-4.0-10.47-0.47","","","","Rate your confidence","1",""
"259.7999999523163","i","choice","right","i","experimental","419","322006","0.0-4.0-8.48","true","49","3.049999999999999","","",""
"1408.8999999761581","3","confid","","","html-slider-response","421","323929","0.0-4.0-10.48-0.48","","","","Rate your confidence","1",""
"106.20000004768372","e","choice","left","e","experimental","428","325811","0.0-4.0-8.49","true","50","2.949999999999999","","",""
"1809.3999999761581","4","confid","","","html-slider-response","430","328133","0.0-4.0-10.49-0.49","","","","Rate your confidence","1",""
"706.5","i","choice","right","i","experimental","437","330633","0.0-4.0-8.50","true","51","2.949999999999999","","",""
"2782.100000023842","5","confid","","","html-slider-response","439","333917","0.0-4.0-10.50-0.50","","","","Rate your confidence","1",""
"230.70000004768372","e","choice","left","e","experimental","446","335936","0.0-4.0-8.51","true","52","2.8499999999999988","","",""
"2925.3000000715256","5","confid","","","html-slider-response","448","339375","0.0-4.0-10.51-0.51","","","","Rate your confidence","1",""
"216.70000004768372","e","choice","left","e","experimental","455","341374","0.0-4.0-8.52","true","53","2.8499999999999988","","",""
"2139.6999999284744","5","confid","","","html-slider-response","457","344016","0.0-4.0-10.52-0.52","","","","Rate your confidence","1",""
"727.0999999046326","e","choice","right","i","experimental","464","346530","0.0-4.0-8.53","false","54","2.7499999999999987","","",""
"2982.3000000715256","2","confid","","","html-slider-response","466","350014","0.0-4.0-10.53-0.53","","","","Rate your confidence","1",""
"541","e","choice","right","i","experimental","473","352361","0.0-4.0-8.54","false","55","2.8499999999999988","","",""
"2041.1000000238419","1","confid","","","html-slider-response","475","354904","0.0-4.0-10.54-0.54","","","","Rate your confidence","1",""
"509.89999997615814","e","choice","left","e","experimental","482","357203","0.0-4.0-8.55","true","56","2.949999999999999","","",""
"3320.100000023842","5","confid","","","html-slider-response","484","361025","0.0-4.0-10.55-0.55","","","","Rate your confidence","1",""
"438.39999997615814","e","choice","left","e","experimental","491","363253","0.0-4.0-8.56","true","57","2.949999999999999","","",""
"1790.1000000238419","3","confid","","","html-slider-response","493","365545","0.0-4.0-10.56-0.56","","","","Rate your confidence","1",""
"851.7999999523163","i","choice","right","i","experimental","500","368200","0.0-4.0-8.57","true","58","2.8499999999999988","","",""
"1469.7000000476837","5","confid","","","html-slider-response","502","370171","0.0-4.0-10.57-0.57","","","","Rate your confidence","1",""
"881.1000000238419","e","choice","left","e","experimental","509","372853","0.0-4.0-8.58","true","59","2.8499999999999988","","",""
"1719.7000000476837","4","confid","","","html-slider-response","511","375082","0.0-4.0-10.58-0.58","","","","Rate your confidence","1",""
"3132.5","e","choice","right","i","experimental","518","380010","0.0-4.0-8.59","false","60","2.7499999999999987","","",""
"2087.2000000476837","1","confid","","","html-slider-response","520","382599","0.0-4.0-10.59-0.59","","","","Rate your confidence","1",""
"7712.799999952316","e","choice","right","i","experimental","527","392090","0.0-4.0-8.60","false","61","2.8499999999999988","","",""
"5028.399999976158","4","confid","","","html-slider-response","529","397620","0.0-4.0-10.60-0.60","","","","Rate your confidence","1",""
"426.7999999523163","e","choice","left","e","experimental","536","399825","0.0-4.0-8.61","true","62","2.949999999999999","","",""
"3495.899999976158","5","confid","","","html-slider-response","538","403837","0.0-4.0-10.61-0.61","","","","Rate your confidence","1",""
"140.79999995231628","i","choice","right","i","experimental","545","405775","0.0-4.0-8.62","true","63","2.949999999999999","","",""
"1766.5","5","confid","","","html-slider-response","547","408043","0.0-4.0-10.62-0.62","","","","Rate your confidence","1",""
"844","e","choice","left","e","experimental","554","410683","0.0-4.0-8.63","true","64","2.8499999999999988","","",""
"2111.2000000476837","5","confid","","","html-slider-response","556","413296","0.0-4.0-10.63-0.63","","","","Rate your confidence","1",""
"2252.600000023842","i","choice","right","i","experimental","563","417342","0.0-4.0-8.64","true","65","2.8499999999999988","","",""
"3290.399999976158","1","confid","","","html-slider-response","565","421134","0.0-4.0-10.64-0.64","","","","Rate your confidence","1",""
"317.3000000715256","i","choice","left","e","experimental","572","423247","0.0-4.0-8.65","false","66","2.7499999999999987","","",""
"1106.2000000476837","3","confid","","","html-slider-response","574","424855","0.0-4.0-10.65-0.65","","","","Rate your confidence","1",""
"528.7999999523163","e","choice","right","i","experimental","581","427173","0.0-4.0-8.66","false","67","2.8499999999999988","","",""
"1565.6000000238419","6","confid","","","html-slider-response","583","429240","0.0-4.0-10.66-0.66","","","","Rate your confidence","1",""
"722.5","i","choice","left","e","experimental","590","431742","0.0-4.0-8.67","false","68","2.949999999999999","","",""
"2682.7999999523163","2","confid","","","html-slider-response","592","434926","0.0-4.0-10.67-0.67","","","","Rate your confidence","1",""
"332.60000002384186","e","choice","right","i","experimental","600","4132201","0.0-4.0-8.68","false","69","3.049999999999999","","",""
"1489.1000000238419","3","confid","","","html-slider-response","602","4134192","0.0-4.0-10.68-0.68","","","","Rate your confidence","1",""
"24.399999976158142","e","choice","left","e","experimental","609","4136007","0.0-4.0-8.69","true","70","3.149999999999999","","",""
"2686.399999976158","4","confid","","","html-slider-response","611","4139196","0.0-4.0-10.69-0.69","","","","Rate your confidence","1",""
"496.10000002384186","e","choice","left","e","experimental","618","4141491","0.0-4.0-8.70","true","71","3.149999999999999","","",""
"1296.8999999761581","5","confid","","","html-slider-response","620","4143290","0.0-4.0-10.70-0.70","","","","Rate your confidence","1",""
"556.6999999284744","e","choice","right","i","experimental","627","4145636","0.0-4.0-8.71","false","72","3.049999999999999","","",""
"2252.5","4","confid","","","html-slider-response","629","4148390","0.0-4.0-10.71-0.71","","","","Rate your confidence","1",""
"574.6000000238419","e","choice","left","e","experimental","636","4150756","0.0-4.0-8.72","true","73","3.149999999999999","","",""
"3184.399999976158","2","confid","","","html-slider-response","638","4154447","0.0-4.0-10.72-0.72","","","","Rate your confidence","1",""
"115.70000004768372","i","choice","right","i","experimental","645","4156363","0.0-4.0-8.73","true","74","3.149999999999999","","",""
"1672.1000000238419","3","confid","","","html-slider-response","647","4158539","0.0-4.0-10.73-0.73","","","","Rate your confidence","1",""
"112.69999992847443","e","choice","left","e","experimental","654","4160446","0.0-4.0-8.74","true","75","3.049999999999999","","",""
"430188.90000009537","3","confid","","","html-slider-response","656","4591140","0.0-4.0-10.74-0.74","","","","Rate your confidence","1",""
"842.8999999761581","i","choice","right","i","experimental","663","4593767","0.0-4.0-8.75","true","76","3.049999999999999","","",""
"4395.600000023842","3","confid","","","html-slider-response","665","4598664","0.0-4.0-10.75-0.75","","","","Rate your confidence","1",""
"691","e","choice","right","i","experimental","672","4601139","0.0-4.0-8.76","false","77","2.949999999999999","","",""
"1609.4000000953674","2","confid","","","html-slider-response","674","4603264","0.0-4.0-10.76-0.76","","","","Rate your confidence","1",""
"1688.5","e","choice","left","e","experimental","681","4606742","0.0-4.0-8.77","true","78","3.049999999999999","","",""
"3340.600000023842","4","confid","","","html-slider-response","683","4610583","0.0-4.0-10.77-0.77","","","","Rate your confidence","1",""
"1070.2000000476837","e","choice","left","e","experimental","690","4613456","0.0-4.0-8.78","true","79","3.049999999999999","","",""
"1894.2000000476837","4","confid","","","html-slider-response","692","4615852","0.0-4.0-10.78-0.78","","","","Rate your confidence","1",""
"816","i","choice","right","i","experimental","699","4618459","0.0-4.0-8.79","true","80","2.949999999999999","","",""
"2238.399999976158","4","confid","","","html-slider-response","701","4621210","0.0-4.0-10.79-0.79","","","","Rate your confidence","1",""
"456.3000000715256","e","choice","left","e","experimental","708","4623449","0.0-4.0-8.80","true","81","2.949999999999999","","",""
"2001.8000000715256","3","confid","","","html-slider-response","710","4625952","0.0-4.0-10.80-0.80","","","","Rate your confidence","1",""
"2038.5999999046326","i","choice","right","i","experimental","717","4629782","0.0-4.0-8.81","true","82","2.8499999999999988","","",""
"2435.600000023842","1","confid","","","html-slider-response","719","4632730","0.0-4.0-10.81-0.81","","","","Rate your confidence","1",""
"1766.3000000715256","e","choice","right","i","experimental","726","4636283","0.0-4.0-8.82","false","83","2.8499999999999988","","",""
"1493.6000000238419","1","confid","","","html-slider-response","728","4638278","0.0-4.0-10.82-0.82","","","","Rate your confidence","1",""
"1150.8999999761581","i","choice","left","e","experimental","735","4641207","0.0-4.0-8.83","false","84","2.949999999999999","","",""
"2501.100000023842","2","confid","","","html-slider-response","737","4644215","0.0-4.0-10.83-0.83","","","","Rate your confidence","1",""
"920.7000000476837","i","choice","right","i","experimental","744","4646934","0.0-4.0-8.84","true","85","3.049999999999999","","",""
"1542.8000000715256","4","confid","","","html-slider-response","746","4648981","0.0-4.0-10.84-0.84","","","","Rate your confidence","1",""
"366.39999997615814","e","choice","left","e","experimental","753","4651146","0.0-4.0-8.85","true","86","3.049999999999999","","",""
"2360.600000023842","5","confid","","","html-slider-response","755","4654008","0.0-4.0-10.85-0.85","","","","Rate your confidence","1",""
"764.8000000715256","i","choice","right","i","experimental","762","4656557","0.0-4.0-8.86","true","87","2.949999999999999","","",""
"2313.600000023842","4","confid","","","html-slider-response","764","4659376","0.0-4.0-10.86-0.86","","","","Rate your confidence","1",""
"80.60000002384186","e","choice","left","e","experimental","771","4661239","0.0-4.0-8.87","true","88","2.949999999999999","","",""
"2068.2999999523163","5","confid","","","html-slider-response","773","4663809","0.0-4.0-10.87-0.87","","","","Rate your confidence","1",""
"897","i","choice","right","i","experimental","780","4666495","0.0-4.0-8.88","true","89","2.8499999999999988","","",""
"1675.4000000953674","4","confid","","","html-slider-response","782","4668680","0.0-4.0-10.88-0.88","","","","Rate your confidence","1",""
"214.89999997615814","e","choice","left","e","experimental","789","4670688","0.0-4.0-8.89","true","90","2.8499999999999988","","",""
"2071","4","confid","","","html-slider-response","791","4673261","0.0-4.0-10.89-0.89","","","","Rate your confidence","1",""
"1019.6000000238419","i","choice","left","e","experimental","798","4676073","0.0-4.0-8.90","false","91","2.7499999999999987","","",""
"1300.8000000715256","3","confid","","","html-slider-response","800","4677883","0.0-4.0-10.90-0.90","","","","Rate your confidence","1",""
"685.1000000238419","i","choice","right","i","experimental","807","4680344","0.0-4.0-8.91","true","92","2.8499999999999988","","",""
"2714.3000000715256","4","confid","","","html-slider-response","809","4683562","0.0-4.0-10.91-0.91","","","","Rate your confidence","1",""
"472.89999997615814","e","choice","left","e","experimental","816","4685823","0.0-4.0-8.92","true","93","2.8499999999999988","","",""
"1878.8000000715256","5","confid","","","html-slider-response","818","4688204","0.0-4.0-10.92-0.92","","","","Rate your confidence","1",""
"348.39999997615814","e","choice","right","i","experimental","825","4690341","0.0-4.0-8.93","false","94","2.7499999999999987","","",""
"2361.7000000476837","3","confid","","","html-slider-response","827","4693204","0.0-4.0-10.93-0.93","","","","Rate your confidence","1",""
"543.5999999046326","e","choice","right","i","experimental","834","4695549","0.0-4.0-8.94","false","95","2.8499999999999988","","",""
"1852.8999999761581","5","confid","","","html-slider-response","836","4697904","0.0-4.0-10.94-0.94","","","","Rate your confidence","1",""
"472","e","choice","left","e","experimental","843","4700178","0.0-4.0-8.95","true","96","2.949999999999999","","",""
"3147.899999976158","4","confid","","","html-slider-response","845","4703828","0.0-4.0-10.95-0.95","","","","Rate your confidence","1",""
"207.90000009536743","i","choice","right","i","experimental","852","4705824","0.0-4.0-8.96","true","97","2.949999999999999","","",""
"1550.2999999523163","5","confid","","","html-slider-response","854","4707879","0.0-4.0-10.96-0.96","","","","Rate your confidence","1",""
"289.5","e","choice","left","e","experimental","861","4709957","0.0-4.0-8.97","true","98","2.8499999999999988","","",""
"1952.6000000238419","5","confid","","","html-slider-response","863","4712423","0.0-4.0-10.97-0.97","","","","Rate your confidence","1",""
"92","e","choice","left","e","experimental","870","4714319","0.0-4.0-8.98","true","99","2.8499999999999988","","",""
"1402.6000000238419","5","confid","","","html-slider-response","872","4716232","0.0-4.0-10.98-0.98","","","","Rate your confidence","1",""
"94.89999997615814","e","choice","right","i","experimental","879","4718113","0.0-4.0-8.99","false","100","2.7499999999999987","","",""
"1787.6000000238419","5","confid","","","html-slider-response","881","4720409","0.0-4.0-10.99-0.99","","","","Rate your confidence","1",""
"247.60000002384186","e","choice","right","i","experimental","888","4722443","0.0-4.0-8.100","false","101","2.8499999999999988","","",""
"2035.2000000476837","5","confid","","","html-slider-response","890","4724989","0.0-4.0-10.100-0.100","","","","Rate your confidence","1",""
"129.60000002384186","e","choice","left","e","experimental","897","4726904","0.0-4.0-8.101","true","102","2.949999999999999","","",""
"1674","5","confid","","","html-slider-response","899","4729080","0.0-4.0-10.101-0.101","","","","Rate your confidence","1",""
"360.10000002384186","e","choice","left","e","experimental","906","4731246","0.0-4.0-8.102","true","103","2.949999999999999","","",""
"1135.1000000238419","6","confid","","","html-slider-response","908","4732883","0.0-4.0-10.102-0.102","","","","Rate your confidence","1",""
"859.7000000476837","i","choice","right","i","experimental","915","4735533","0.0-4.0-8.103","true","104","2.8499999999999988","","",""
"2501","4","confid","","","html-slider-response","917","4738536","0.0-4.0-10.103-0.103","","","","Rate your confidence","1",""
"674.2999999523163","i","choice","right","i","experimental","924","4740993","0.0-4.0-8.104","true","105","2.8499999999999988","","",""
"1358.8000000715256","5","confid","","","html-slider-response","926","4742853","0.0-4.0-10.104-0.104","","","","Rate your confidence","1",""
"137.10000002384186","e","choice","left","e","experimental","933","4744771","0.0-4.0-8.105","true","106","2.7499999999999987","","",""
"1325","5","confid","","","html-slider-response","935","4746598","0.0-4.0-10.105-0.105","","","","Rate your confidence","1",""
"102.20000004768372","e","choice","left","e","experimental","942","4748481","0.0-4.0-8.106","true","107","2.7499999999999987","","",""
"2530.100000023842","3","confid","","","html-slider-response","944","4751513","0.0-4.0-10.106-0.106","","","","Rate your confidence","1",""
"800.2000000476837","e","choice","right","i","experimental","951","4754099","0.0-4.0-8.107","false","108","2.6499999999999986","","",""
"6914.700000047684","4","confid","","","html-slider-response","953","4761527","0.0-4.0-10.107-0.107","","","","Rate your confidence","1",""
"29.399999976158142","e","choice","right","i","experimental","960","4763356","0.0-4.0-8.108","false","109","2.7499999999999987","","",""
"2507.600000023842","5","confid","","","html-slider-response","962","4766376","0.0-4.0-10.108-0.108","","","","Rate your confidence","1",""
"858.5999999046326","i","choice","left","e","experimental","969","4769030","0.0-4.0-8.109","false","110","2.8499999999999988","","",""
"2206.8000000715256","5","confid","","","html-slider-response","971","4771740","0.0-4.0-10.109-0.109","","","","Rate your confidence","1",""
"263.10000002384186","i","choice","left","e","experimental","979","4963491","0.0-4.0-8.110","false","111","2.949999999999999","","",""
"3196.399999976158","1","confid","","","html-slider-response","981","4967197","0.0-4.0-10.110-0.110","","","","Rate your confidence","1",""
"207.79999995231628","i","choice","right","i","experimental","988","4969186","0.0-4.0-8.111","true","112","3.049999999999999","","",""
"1844.2000000476837","4","confid","","","html-slider-response","990","4971534","0.0-4.0-10.111-0.111","","","","Rate your confidence","1",""
"337.6999999284744","e","choice","left","e","experimental","997","4973648","0.0-4.0-8.112","true","113","3.049999999999999","","",""
"1446.5","5","confid","","","html-slider-response","999","4975596","0.0-4.0-10.112-0.112","","","","Rate your confidence","1",""
"910.2000000476837","e","choice","right","i","experimental","1006","4978304","0.0-4.0-8.113","false","114","2.949999999999999","","",""
"2416.5","4","confid","","","html-slider-response","1008","4981222","0.0-4.0-10.113-0.113","","","","Rate your confidence","1",""
"605.3999999761581","i","choice","right","i","experimental","1015","4983632","0.0-4.0-8.114","true","115","3.049999999999999","","",""
"1801","4","confid","","","html-slider-response","1017","4985942","0.0-4.0-10.114-0.114","","","","Rate your confidence","1",""
"445.6999999284744","e","choice","left","e","experimental","1024","4988175","0.0-4.0-8.115","true","116","3.049999999999999","","",""
"2223.8000000715256","5","confid","","","html-slider-response","1026","4990912","0.0-4.0-10.115-0.115","","","","Rate your confidence","1",""
"177.79999995231628","e","choice","left","e","experimental","1033","4992869","0.0-4.0-8.116","true","117","2.949999999999999","","",""
"1789.1000000238419","4","confid","","","html-slider-response","1035","4995160","0.0-4.0-10.116-0.116","","","","Rate your confidence","1",""
"226.69999992847443","e","choice","right","i","experimental","1042","4997171","0.0-4.0-8.117","false","118","2.949999999999999","","",""
"1354.6999999284744","5","confid","","","html-slider-response","1044","4999027","0.0-4.0-10.117-0.117","","","","Rate your confidence","1",""
"404.7999999523163","e","choice","left","e","experimental","1051","5001234","0.0-4.0-8.118","true","119","3.049999999999999","","",""
"1430.7999999523163","5","confid","","","html-slider-response","1053","5003174","0.0-4.0-10.118-0.118","","","","Rate your confidence","1",""
"473","i","choice","right","i","experimental","1060","5005438","0.0-4.0-8.119","true","120","3.049999999999999","","",""
"2458.100000023842","4","confid","","","html-slider-response","1062","5008417","0.0-4.0-10.119-0.119","","","","Rate your confidence","1",""
"54.699999928474426","e","choice","left","e","experimental","1069","5010262","0.0-4.0-8.120","true","121","2.949999999999999","","",""
"3536.399999976158","6","confid","","","html-slider-response","1071","5014301","0.0-4.0-10.120-0.120","","","","Rate your confidence","1",""
"331.2000000476837","i","choice","right","i","experimental","1078","5016436","0.0-4.0-8.121","true","122","2.949999999999999","","",""
"2850.600000023842","6","confid","","","html-slider-response","1080","5019790","0.0-4.0-10.121-0.121","","","","Rate your confidence","1",""
"651.2999999523163","i","choice","right","i","experimental","1087","5022219","0.0-4.0-8.122","true","123","2.8499999999999988","","",""
"2564.399999976158","6","confid","","","html-slider-response","1089","5025293","0.0-4.0-10.122-0.122","","","","Rate your confidence","1",""
"363.10000002384186","e","choice","left","e","experimental","1096","5027440","0.0-4.0-8.123","true","124","2.8499999999999988","","",""
"1355.1000000238419","4","confid","","","html-slider-response","1098","5029298","0.0-4.0-10.123-0.123","","","","Rate your confidence","1",""
"1261.3999999761581","e","choice","left","e","experimental","1105","5032346","0.0-4.0-8.124","true","125","2.7499999999999987","","",""
"1436.0999999046326","1","confid","","","html-slider-response","1107","5034284","0.0-4.0-10.124-0.124","","","","Rate your confidence","1",""
"850.7999999523163","i","choice","right","i","experimental","1114","5036919","0.0-4.0-8.125","true","126","2.7499999999999987","","",""
"2776.100000023842","2","confid","","","html-slider-response","1116","5040205","0.0-4.0-10.125-0.125","","","","Rate your confidence","1",""
"513.8999999761581","e","choice","right","i","experimental","1123","5042518","0.0-4.0-8.126","false","127","2.6499999999999986","","",""
"1956.5","3","confid","","","html-slider-response","1125","5044983","0.0-4.0-10.126-0.126","","","","Rate your confidence","1",""
"1769.1000000238419","e","choice","left","e","experimental","1132","5048542","0.0-4.0-8.127","true","128","2.7499999999999987","","",""
"2540","1","confid","","","html-slider-response","1134","5051586","0.0-4.0-10.127-0.127","","","","Rate your confidence","1",""
"528.8999999761581","e","choice","left","e","experimental","1141","5053898","0.0-4.0-8.128","true","129","2.7499999999999987","","",""
"2310","3","confid","","","html-slider-response","1143","5056711","0.0-4.0-10.128-0.128","","","","Rate your confidence","1",""
"2256.899999976158","i","choice","right","i","experimental","1150","5060758","0.0-4.0-8.129","true","130","2.6499999999999986","","",""
"2338","1","confid","","","html-slider-response","1152","5063610","0.0-4.0-10.129-0.129","","","","Rate your confidence","1",""
"711.5999999046326","e","choice","left","e","experimental","1159","5066102","0.0-4.0-8.130","true","131","2.6499999999999986","","",""
"1845.6000000238419","2","confid","","","html-slider-response","1161","5068449","0.0-4.0-10.130-0.130","","","","Rate your confidence","1",""
"948.3999999761581","i","choice","right","i","experimental","1168","5071181","0.0-4.0-8.131","true","132","2.5499999999999985","","",""
"2970.7999999523163","2","confid","","","html-slider-response","1170","5074654","0.0-4.0-10.131-0.131","","","","Rate your confidence","1",""
"241.59999990463257","e","choice","right","i","experimental","1177","5076691","0.0-4.0-8.132","false","133","2.5499999999999985","","",""
"1769.3000000715256","2","confid","","","html-slider-response","1179","5078962","0.0-4.0-10.132-0.132","","","","Rate your confidence","1",""
"466","e","choice","left","e","experimental","1186","5081235","0.0-4.0-8.133","true","134","2.6499999999999986","","",""
"1385.1000000238419","4","confid","","","html-slider-response","1188","5083122","0.0-4.0-10.133-0.133","","","","Rate your confidence","1",""
"1029.1000000238419","e","choice","left","e","experimental","1195","5085931","0.0-4.0-8.134","true","135","2.6499999999999986","","",""
"2220","3","confid","","","html-slider-response","1197","5088653","0.0-4.0-10.134-0.134","","","","Rate your confidence","1",""
"1166.1000000238419","i","choice","right","i","experimental","1204","5091606","0.0-4.0-8.135","true","136","2.5499999999999985","","",""
"1347.1999999284744","3","confid","","","html-slider-response","1206","5093457","0.0-4.0-10.135-0.135","","","","Rate your confidence","1",""
"607.6000000238419","e","choice","right","i","experimental","1213","5095855","0.0-4.0-8.136","false","137","2.5499999999999985","","",""
"1465.5","4","confid","","","html-slider-response","1215","5097828","0.0-4.0-10.136-0.136","","","","Rate your confidence","1",""
"934.1999999284744","e","choice","left","e","experimental","1222","5100546","0.0-4.0-8.137","true","138","2.6499999999999986","","",""
"2618.6999999284744","3","confid","","","html-slider-response","1224","5103666","0.0-4.0-10.137-0.137","","","","Rate your confidence","1",""
"983.7999999523163","i","choice","right","i","experimental","1231","5106443","0.0-4.0-8.138","true","139","2.6499999999999986","","",""
"1911.1000000238419","4","confid","","","html-slider-response","1233","5108857","0.0-4.0-10.138-0.138","","","","Rate your confidence","1",""
"729.7999999523163","e","choice","left","e","experimental","1240","5111389","0.0-4.0-8.139","true","140","2.5499999999999985","","",""
"1236","3","confid","","","html-slider-response","1242","5113134","0.0-4.0-10.139-0.139","","","","Rate your confidence","1",""
"402.7999999523163","i","choice","right","i","experimental","1249","5115316","0.0-4.0-8.140","true","141","2.5499999999999985","","",""
"1548.3999999761581","3","confid","","","html-slider-response","1251","5117375","0.0-4.0-10.140-0.140","","","","Rate your confidence","1",""
"188.30000007152557","e","choice","left","e","experimental","1258","5119345","0.0-4.0-8.141","true","142","2.4499999999999984","","",""
"2751.1999999284744","3","confid","","","html-slider-response","1260","5122598","0.0-4.0-10.141-0.141","","","","Rate your confidence","1",""
"686.1999999284744","i","choice","right","i","experimental","1267","5125085","0.0-4.0-8.142","true","143","2.4499999999999984","","",""
"2113.2999999523163","2","confid","","","html-slider-response","1269","5127702","0.0-4.0-10.142-0.142","","","","Rate your confidence","1",""
"314.6999999284744","e","choice","left","e","experimental","1276","5129818","0.0-4.0-8.143","true","144","2.3499999999999983","","",""
"1825.3999999761581","3","confid","","","html-slider-response","1278","5132145","0.0-4.0-10.143-0.143","","","","Rate your confidence","1",""
"488.2000000476837","e","choice","right","i","experimental","1285","5134415","0.0-4.0-8.144","false","145","2.3499999999999983","","",""
"5240.799999952316","3","confid","","","html-slider-response","1287","5140158","0.0-4.0-10.144-0.144","","","","Rate your confidence","1",""
"499.39999997615814","e","choice","left","e","experimental","1294","5142435","0.0-4.0-8.145","true","146","2.4499999999999984","","",""
"1446.1999999284744","4","confid","","","html-slider-response","1296","5144383","0.0-4.0-10.145-0.145","","","","Rate your confidence","1",""
"458","e","choice","left","e","experimental","1303","5146633","0.0-4.0-8.146","true","147","2.4499999999999984","","",""
"1995.1999999284744","4","confid","","","html-slider-response","1305","5149130","0.0-4.0-10.146-0.146","","","","Rate your confidence","1",""
"935.6999999284744","e","choice","right","i","experimental","1312","5151863","0.0-4.0-8.147","false","148","2.3499999999999983","","",""
"99827","3","confid","","","html-slider-response","1314","5252193","0.0-4.0-10.147-0.147","","","","Rate your confidence","1",""
"339.59999990463257","e","choice","right","i","experimental","1321","5254333","0.0-4.0-8.148","false","149","2.4499999999999984","","",""
"2064.5","4","confid","","","html-slider-response","1323","5256909","0.0-4.0-10.148-0.148","","","","Rate your confidence","1",""
"629","e","choice","left","e","experimental","1330","5259310","0.0-4.0-8.149","true","150","2.5499999999999985","","",""
"1558.5","5","confid","","","html-slider-response","1332","5261370","0.0-4.0-10.149-0.149","","","","Rate your confidence","1",""
"45.89999997615814","e","choice","left","e","experimental","1339","5263205","0.0-4.0-8.150","true","151","2.5499999999999985","","",""
"1846.7000000476837","4","confid","","","html-slider-response","1341","5265562","0.0-4.0-10.150-0.150","","","","Rate your confidence","1",""
"3.899999976158142","e","choice","right","i","experimental","1348","5267353","0.0-4.0-8.151","false","152","2.4499999999999984","","",""
"1503.1000000238419","5","confid","","","html-slider-response","1350","5269358","0.0-4.0-10.151-0.151","","","","Rate your confidence","1",""
"586.8000000715256","e","choice","left","e","experimental","1358","5449765","0.0-4.0-8.152","true","153","2.5499999999999985","","",""
"1257.8000000715256","4","confid","","","html-slider-response","1360","5451534","0.0-4.0-10.152-0.152","","","","Rate your confidence","1",""
"309.2000000476837","e","choice","right","i","experimental","1367","5453630","0.0-4.0-8.153","false","154","2.5499999999999985","","",""
"1950.6000000238419","5","confid","","","html-slider-response","1369","5456090","0.0-4.0-10.153-0.153","","","","Rate your confidence","1",""
"494.7999999523163","e","choice","right","i","experimental","1376","5458359","0.0-4.0-8.154","false","155","2.6499999999999986","","",""
"1225.9000000953674","5","confid","","","html-slider-response","1378","5460087","0.0-4.0-10.154-0.154","","","","Rate your confidence","1",""
"189.10000002384186","e","choice","left","e","experimental","1385","5462063","0.0-4.0-8.155","true","156","2.7499999999999987","","",""
"2873.600000023842","4","confid","","","html-slider-response","1387","5465438","0.0-4.0-10.155-0.155","","","","Rate your confidence","1",""
"371","i","choice","right","i","experimental","1394","5467610","0.0-4.0-8.156","true","157","2.7499999999999987","","",""
"1672.8999999761581","5","confid","","","html-slider-response","1396","5469793","0.0-4.0-10.156-0.156","","","","Rate your confidence","1",""
"773.5","e","choice","left","e","experimental","1403","5472363","0.0-4.0-8.157","true","158","2.6499999999999986","","",""
"2815.2000000476837","3","confid","","","html-slider-response","1405","5475680","0.0-4.0-10.157-0.157","","","","Rate your confidence","1",""
"448.5","e","choice","right","i","experimental","1412","5477918","0.0-4.0-8.158","false","159","2.6499999999999986","","",""
"1406.6000000238419","5","confid","","","html-slider-response","1414","5479826","0.0-4.0-10.158-0.158","","","","Rate your confidence","1",""
"183.30000007152557","e","choice","left","e","experimental","1421","5481800","0.0-4.0-8.159","true","160","2.7499999999999987","","",""
"1286.6000000238419","4","confid","","","html-slider-response","1423","5483600","0.0-4.0-10.159-0.159","","","","Rate your confidence","1",""
"145.39999997615814","e","choice","right","i","experimental","1430","5485538","0.0-4.0-8.160","false","161","2.7499999999999987","","",""
"1668.2000000476837","5","confid","","","html-slider-response","1432","5487712","0.0-4.0-10.160-0.160","","","","Rate your confidence","1",""
"256.3000000715256","e","choice","left","e","experimental","1439","5489773","0.0-4.0-8.161","true","162","2.8499999999999988","","",""
"1699.3999999761581","5","confid","","","html-slider-response","1441","5491974","0.0-4.0-10.161-0.161","","","","Rate your confidence","1",""
"2.700000047683716","e","choice","right","i","experimental","1448","5493773","0.0-4.0-8.162","false","163","2.8499999999999988","","",""
"3001.7000000476837","3","confid","","","html-slider-response","1450","5497282","0.0-4.0-10.162-0.162","","","","Rate your confidence","1",""
"55","e","choice","left","e","experimental","1457","5499116","0.0-4.0-8.163","true","164","2.949999999999999","","",""
"2008.6000000238419","3","confid","","","html-slider-response","1459","5501626","0.0-4.0-10.163-0.163","","","","Rate your confidence","1",""
"474.2000000476837","e","choice","left","e","experimental","1466","5503880","0.0-4.0-8.164","true","165","2.949999999999999","","",""
"2451","6","confid","","","html-slider-response","1468","5506833","0.0-4.0-10.164-0.164","","","","Rate your confidence","1",""
"940.6000000238419","i","choice","right","i","experimental","1475","5509557","0.0-4.0-8.165","true","166","2.8499999999999988","","",""
"2086.399999976158","2","confid","","","html-slider-response","1477","5512157","0.0-4.0-10.165-0.165","","","","Rate your confidence","1",""
"1164.1000000238419","i","choice","right","i","experimental","1484","5515098","0.0-4.0-8.166","true","167","2.8499999999999988","","",""
"2897.7000000476837","1","confid","","","html-slider-response","1486","5518508","0.0-4.0-10.166-0.166","","","","Rate your confidence","1",""
"363.10000002384186","e","choice","left","e","experimental","1493","5520675","0.0-4.0-8.167","true","168","2.7499999999999987","","",""
"1413.5","4","confid","","","html-slider-response","1495","5522590","0.0-4.0-10.167-0.167","","","","Rate your confidence","1",""
"148.5","i","choice","right","i","experimental","1502","5524544","0.0-4.0-8.168","true","169","2.7499999999999987","","",""
"2070.2000000476837","5","confid","","","html-slider-response","1504","5527130","0.0-4.0-10.168-0.168","","","","Rate your confidence","1",""
"311.39999997615814","e","choice","left","e","experimental","1511","5529223","0.0-4.0-8.169","true","170","2.6499999999999986","","",""
"1159.2000000476837","5","confid","","","html-slider-response","1513","5530884","0.0-4.0-10.169-0.169","","","","Rate your confidence","1",""
"384.2000000476837","e","choice","right","i","experimental","1520","5533057","0.0-4.0-8.170","false","171","2.6499999999999986","","",""
"3505.899999976158","2","confid","","","html-slider-response","1522","5537064","0.0-4.0-10.170-0.170","","","","Rate your confidence","1",""
"166.5","i","choice","left","e","experimental","1529","5539027","0.0-4.0-8.171","false","172","2.7499999999999987","","",""
"3420.4000000953674","3","confid","","","html-slider-response","1531","5542962","0.0-4.0-10.171-0.171","","","","Rate your confidence","1",""
"176.79999995231628","e","choice","left","e","experimental","1538","5544915","0.0-4.0-8.172","true","173","2.8499999999999988","","",""
"2578.5","5","confid","","","html-slider-response","1540","5547996","0.0-4.0-10.172-0.172","","","","Rate your confidence","1",""
"35.5","e","choice","right","i","experimental","1547","5549813","0.0-4.0-8.173","false","174","2.8499999999999988","","",""
"2010.8999999761581","4","confid","","","html-slider-response","1549","5552329","0.0-4.0-10.173-0.173","","","","Rate your confidence","1",""
"498.10000002384186","e","choice","right","i","experimental","1556","5554600","0.0-4.0-8.174","false","175","2.949999999999999","","",""
"1357.3999999761581","3","confid","","","html-slider-response","1558","5556469","0.0-4.0-10.174-0.174","","","","Rate your confidence","1",""
"1081.7000000476837","e","choice","left","e","experimental","1565","5559347","0.0-4.0-8.175","true","176","3.049999999999999","","",""
"1887.2999999523163","2","confid","","","html-slider-response","1567","5561748","0.0-4.0-10.175-0.175","","","","Rate your confidence","1",""
"468.5","e","choice","left","e","experimental","1574","5564010","0.0-4.0-8.176","true","177","3.049999999999999","","",""
"2003","2","confid","","","html-slider-response","1576","5566518","0.0-4.0-10.176-0.176","","","","Rate your confidence","1",""
"817.5","e","choice","right","i","experimental","1583","5569120","0.0-4.0-8.177","false","178","2.949999999999999","","",""
"1925.2000000476837","1","confid","","","html-slider-response","1585","5571558","0.0-4.0-10.177-0.177","","","","Rate your confidence","1",""
"781.8999999761581","e","choice","right","i","experimental","1592","5574127","0.0-4.0-8.178","false","179","3.049999999999999","","",""
"1723.7999999523163","1","confid","","","html-slider-response","1594","5576367","0.0-4.0-10.178-0.178","","","","Rate your confidence","1",""
"475.39999997615814","e","choice","left","e","experimental","1601","5578632","0.0-4.0-8.179","true","180","3.149999999999999","","",""
"2127","4","confid","","","html-slider-response","1603","5581261","0.0-4.0-10.179-0.179","","","","Rate your confidence","1",""
"74.89999997615814","i","choice","right","i","experimental","1610","5583118","0.0-4.0-8.180","true","181","3.149999999999999","","",""
"21489.600000023842","3","confid","","","html-slider-response","1612","5605120","0.0-4.0-10.180-0.180","","","","Rate your confidence","1",""
"79.89999997615814","i","choice","left","e","experimental","1619","5606984","0.0-4.0-8.181","false","182","3.049999999999999","","",""
"1449.2000000476837","3","confid","","","html-slider-response","1621","5608941","0.0-4.0-10.181-0.181","","","","Rate your confidence","1",""
"393.10000002384186","e","choice","left","e","experimental","1628","5611131","0.0-4.0-8.182","true","183","3.149999999999999","","",""
"2359.7999999523163","4","confid","","","html-slider-response","1630","5613992","0.0-4.0-10.182-0.182","","","","Rate your confidence","1",""
"322.7000000476837","e","choice","right","i","experimental","1637","5616118","0.0-4.0-8.183","false","184","3.149999999999999","","",""
"1785.8999999761581","2","confid","","","html-slider-response","1639","5618417","0.0-4.0-10.183-0.183","","","","Rate your confidence","1",""
"34.10000002384186","e","choice","left","e","experimental","1646","5620241","0.0-4.0-8.184","true","185","3.249999999999999","","",""
"2883.399999976158","5","confid","","","html-slider-response","1648","5623632","0.0-4.0-10.184-0.184","","","","Rate your confidence","1",""
"109.89999997615814","e","choice","right","i","experimental","1655","5625532","0.0-4.0-8.185","false","186","3.249999999999999","","",""
"1514.3000000715256","2","confid","","","html-slider-response","1657","5627554","0.0-4.0-10.185-0.185","","","","Rate your confidence","1",""
"495.2999999523163","e","choice","left","e","experimental","1664","5629846","0.0-4.0-8.186","true","187","3.349999999999999","","",""
"2334.600000023842","4","confid","","","html-slider-response","1666","5632690","0.0-4.0-10.186-0.186","","","","Rate your confidence","1",""
"108.19999992847443","i","choice","right","i","experimental","1673","5634577","0.0-4.0-8.187","true","188","3.349999999999999","","",""
"2539","5","confid","","","html-slider-response","1675","5637627","0.0-4.0-10.187-0.187","","","","Rate your confidence","1",""
"98.20000004768372","e","choice","left","e","experimental","1682","5639517","0.0-4.0-8.188","true","189","3.249999999999999","","",""
"1901.7000000476837","5","confid","","","html-slider-response","1684","5641924","0.0-4.0-10.188-0.188","","","","Rate your confidence","1",""
"266.60000002384186","i","choice","right","i","experimental","1691","5643985","0.0-4.0-8.189","true","190","3.249999999999999","","",""
"2345.5","6","confid","","","html-slider-response","1693","5646837","0.0-4.0-10.189-0.189","","","","Rate your confidence","1",""
"174.89999997615814","e","choice","right","i","experimental","1700","5648795","0.0-4.0-8.190","false","191","3.149999999999999","","",""
"2432.100000023842","5","confid","","","html-slider-response","1702","5651733","0.0-4.0-10.190-0.190","","","","Rate your confidence","1",""
"286.39999997615814","e","choice","left","e","experimental","1709","5653796","0.0-4.0-8.191","true","192","3.249999999999999","","",""
"1677.6000000238419","4","confid","","","html-slider-response","1711","5655990","0.0-4.0-10.191-0.191","","","","Rate your confidence","1",""
"537.6000000238419","i","choice","right","i","experimental","1718","5658328","0.0-4.0-8.192","true","193","3.249999999999999","","",""
"1641.2999999523163","5","confid","","","html-slider-response","1720","5660471","0.0-4.0-10.192-0.192","","","","Rate your confidence","1",""
"287.39999997615814","e","choice","left","e","experimental","1727","5662561","0.0-4.0-8.193","true","194","3.149999999999999","","",""
"1310.2000000476837","5","confid","","","html-slider-response","1729","5664373","0.0-4.0-10.193-0.193","","","","Rate your confidence","1","54615"
