"rt","response","task","target_side","correct_response","trial_type","trial_index","time_elapsed","internal_node_id","correct","trial_number","n_dots","stimulus","slider_start","participant"
"1305.7000000029802","e","choice","left","e","practice","10","148274","0.0-4.0-8.0","true","1","4.25","","",""
"967.7999999970198","e","choice","right","i","practice","18","151533","0.0-4.0-8.1","false","2","4.25","","",""
"939.3999999910593","i","choice","right","i","practice","26","154764","0.0-4.0-8.2","true","3","4.65","","",""
"269.09999999403954","e","choice","left","e","practice","34","157330","0.0-4.0-8.3","true","4","4.65","","",""
"13.700000002980232","e","choice","left","e","practice","42","159650","0.0-4.0-8.4","true","5","4.25","","",""
"318.79999999701977","i","choice","right","i","practice","50","162265","0.0-4.0-8.5","true","6","4.25","","",""
"106.09999999403954","i","choice","right","i","practice","58","164681","0.0-4.0-8.6","true","7","4.05","","",""
"1673","e","choice","left","e","practice","66","168655","0.0-4.0-8.7","true","8","4.05","","",""
"45.599999994039536","i","choice","right","i","practice","74","171008","0.0-4.0-8.8","true","9","3.8499999999999996","","",""
"365.79999999701977","e","choice","left","e","practice","82","173663","0.0-4.0-8.9","true","10","3.8499999999999996","","",""
"5.5","e","choice","right","i","practice","90","175959","0.0-4.0-8.10","false","11","3.6499999999999995","","",""
"189.40000000596046","e","choice","left","e","practice","98","178445","0.0-4.0-8.11","true","12","3.7499999999999996","","",""
"838.2000000029802","e","choice","left","e","practice","106","181585","0.0-4.0-8.12","true","13","3.7499999999999996","","",""
"588.2999999970198","e","choice","right","i","practice","114","184461","0.0-4.0-8.13","false","14","3.6499999999999995","","",""
"643.6000000089407","e","choice","left","e","practice","122","187414","0.0-4.0-8.14","true","15","3.7499999999999996","","",""
"595","e","choice","right","i","practice","130","190317","0.0-4.0-8.15","false","16","3.7499999999999996","","",""
"489","e","choice","left","e","practice","138","193115","0.0-4.0-8.16","true","17","3.8499999999999996","","",""
"211.09999999403954","i","choice","right","i","practice","146","195618","0.0-4.0-8.17","true","18","3.8499999999999996","","",""
"330.5","i","choice","right","i","practice","154","198254","0.0-4.0-8.18","true","19","3.7499999999999996","","",""
"217.90000000596046","e","choice","left","e","practice","162","200759","0.0-4.0-8.19","true","20","3.7499999999999996","","",""
"416","i","choice","right","i","practice","170","203479","0.0-4.0-8.20","true","21","3.6499999999999995","","",""
"493.29999999701977","e","choice","left","e","practice","178","206263","0.0-4.0-8.21","true","22","3.6499999999999995","","",""
"486.70000000298023","e","choice","left","e","practice","186","209049","0.0-4.0-8.22","true","23","3.5499999999999994","","",""
"555.9000000059605","e","choice","right","i","practice","194","211891","0.0-4.0-8.23","false","24","3.5499999999999994","","",""
"897.5","i","choice","right","i","practice","202","215087","0.0-4.0-8.24","true","25","3.6499999999999995","","",""
"854.6999999880791","e","choice","left","e","practice","210","218244","0.0-4.0-8.25","true","26","3.6499999999999995","","",""
"254.80000001192093","e","choice","left","e","experimental","221","295901","0.0-4.0-8.26","true","27","3.5499999999999994","","",""
"3302.2999999970198","3","confid","","","html-slider-response","223","299726","0.0-4.0-10.26-0.26","","","","Rate your confidence","1",""
"727.7000000029802","e","choice","right","i","experimental","230","302246","0.0-4.0-8.27","false","28","3.5499999999999994","","",""
"2958.7999999970198","2","confid","","","html-slider-response","232","305708","0.0-4.0-10.27-0.27","","","","Rate your confidence","1",""
"408.20000000298023","e","choice","left","e","experimental","239","307924","0.0-4.0-8.28","true","29","3.6499999999999995","","",""
"2037.3999999910593","4","confid","","","html-slider-response","241","310469","0.0-4.0-10.28-0.28","","","","Rate your confidence","1",""
"527.3000000119209","i","choice","right","i","experimental","248","312807","0.0-4.0-8.29","true","30","3.6499999999999995","","",""
"2265.5","3","confid","","","html-slider-response","250","315576","0.0-4.0-10.29-0.29","","","","Rate your confidence","1",""
"391.20000000298023","e","choice","left","e","experimental","257","317754","0.0-4.0-8.30","true","31","3.5499999999999994","","",""
"3255.9000000059605","5","confid","","","html-slider-response","259","321515","0.0-4.0-10.30-0.30","","","","Rate your confidence","1",""
"690.5","i","choice","right","i","experimental","266","324001","0.0-4.0-8.31","true","32","3.5499999999999994","","",""
"2723.6000000089407","3","confid","","","html-slider-response","268","327231","0.0-4.0-10.31-0.31","","","","Rate your confidence","1",""
"346.90000000596046","e","choice","left","e","experimental","275","329372","0.0-4.0-8.32","true","33","3.4499999999999993","","",""
"3596.6000000089407","2","confid","","","html-slider-response","277","333475","0.0-4.0-10.32-0.32","","","","Rate your confidence","1",""
"836.4000000059605","e","choice","right","i","experimental","284","336110","0.0-4.0-8.33","false","34","3.4499999999999993","","",""
"3543.5","2","confid","","","html-slider-response","286","340158","0.0-4.0-10.33-0.33","","","","Rate your confidence","1",""
"274","e","choice","left","e","experimental","293","342225","0.0-4.0-8.34","true","35","3.5499999999999994","","",""
"3042.0999999940395","3","confid","","","html-slider-response","295","345773","0.0-4.0-10.34-0.34","","","","Rate your confidence","1",""
"575.2000000029802","e","choice","right","i","experimental","302","348157","0.0-4.0-8.35","false","36","3.5499999999999994","","",""
"3667.7999999970198","2","confid","","","html-slider-response","304","352330","0.0-4.0-10.35-0.35","","","","Rate your confidence","1",""
"420.29999999701977","e","choice","left","e","experimental","311","354539","0.0-4.0-8.36","true","37","3.6499999999999995","","",""
"2255.7000000029802","2","confid","","","html-slider-response","313","357298","0.0-4.0-10.36-0.36","","","","Rate your confidence","1",""
"842.7999999970198","i","choice","right","i","experimental","320","359937","0.0-4.0-8.37","true","38","3.6499999999999995","","",""
"2586","2","confid","","","html-slider-response","322","363027","0.0-4.0-10.37-0.37","","","","Rate your confidence","1",""
"371.40000000596046","e","choice","left","e","experimental","329","365209","0.0-4.0-8.38","true","39","3.5499999999999994","","",""
"1856.7999999970198","2","confid","","","html-slider-response","331","367569","0.0-4.0-10.38-0.38","","","","Rate your confidence","1",""
"503.20000000298023","e","choice","right","i","experimental","338","369862","0.0-4.0-8.39","false","40","3.5499999999999994","","",""
"2236","2","confid","","","html-slider-response","340","372604","0.0-4.0-10.39-0.39","","","","Rate your confidence","1",""
"376","i","choice","right","i","experimental","347","374788","0.0-4.0-8.40","true","41","3.6499999999999995","","",""
"2280.2999999970198","3","confid","","","html-slider-response","349","377574","0.0-4.0-10.40-0.40","","","","Rate your confidence","1",""
"375.90000000596046","e","choice","left","e","experimental","356","379738","0.0-4.0-8.41","true","42","3.6499999999999995","","",""
"2121.2000000029802","2","confid","","","html-slider-response","358","382363","0.0-4.0-10.41-0.41","","","","Rate your confidence","1",""
"137.20000000298023","e","choice","left","e","experimental","365","384300","0.0-4.0-8.42","true","43","3.5499999999999994","","",""
"2013","2","confid","","","html-slider-response","367","386818","0.0-4.0-10.42-0.42","","","","Rate your confidence","1",""
"837.2000000029802","i","choice","right","i","experimental","374","389449","0.0-4.0-8.43","true","44","3.5499999999999994","","",""
"1877.2999999970198","2","confid","","","html-slider-response","376","391832","0.0-4.0-10.43-0.43","","","","Rate your confidence","1",""
"541.2999999970198","i","choice","right","i","experimental","383","394167","0.0-4.0-8.44","true","45","3.4499999999999993","","",""
"1664.7999999970198","3","confid","","","html-slider-response","385","396336","0.0-4.0-10.44-0.44","","","","Rate your confidence","1",""
"376.30000001192093","e","choice","left","e","experimental","392","398530","0.0-4.0-8.45","true","46","3.4499999999999993","","",""
"1888","3","confid","","","html-slider-response","394","400923","0.0-4.0-10.45-0.45","","","","Rate your confidence","1",""
"325.79999999701977","e","choice","left","e","experimental","401","403045","0.0-4.0-8.46","true","47","3.349999999999999","","",""
"1734.4000000059605","4","confid","","","html-slider-response","403","405292","0.0-4.0-10.46-0.46","","","","Rate your confidence","1",""
"1019.4000000059605","e","choice","right","i","experimental","410","408102","0.0-4.0-8.47","false","48","3.349999999999999","","",""
"1669.2999999970198","2","confid","","","html-slider-response","412","410276","0.0-4.0-10.47-0.47","","","","Rate your confidence","1",""
"437.90000000596046","i","choice","right","i","experimental","419","412524","0.0-4.0-8.48","true","49","3.4499999999999993","","",""
"7242.29999999702","2","confid","","","html-slider-response","421","420271","0.0-4.0-10.48-0.48","","","","Rate your confidence","1",""
"312.5","e","choice","left","e","experimental","428","422390","0.0-4.0-8.49","true","50","3.4499999999999993","","",""
"1866.6000000089407","2","confid","","","html-slider-response","430","424762","0.0-4.0-10.49-0.49","","","","Rate your confidence","1",""
"661.7999999970198","i","choice","right","i","experimental","437","427227","0.0-4.0-8.50","true","51","3.349999999999999","","",""
"1907.300000011921","3","confid","","","html-slider-response","439","429639","0.0-4.0-10.50-0.50","","","","Rate your confidence","1",""
"269.6000000089407","e","choice","left","e","experimental","446","431700","0.0-4.0-8.51","true","52","3.349999999999999","","",""
"3777.2999999970198","2","confid","","","html-slider-response","448","435982","0.0-4.0-10.51-0.51","","","","Rate your confidence","1",""
"701","i","choice","right","i","experimental","455","438472","0.0-4.0-8.52","true","53","3.249999999999999","","",""
"4666.100000008941","2","confid","","","html-slider-response","457","443644","0.0-4.0-10.52-0.52","","","","Rate your confidence","1",""
"286.5","e","choice","left","e","experimental","464","445725","0.0-4.0-8.53","true","54","3.249999999999999","","",""
"2526.5","4","confid","","","html-slider-response","466","448756","0.0-4.0-10.53-0.53","","","","Rate your confidence","1",""
"158.70000000298023","i","choice","right","i","experimental","473","450705","0.0-4.0-8.54","true","55","3.149999999999999","","",""
"3413.199999988079","5","confid","","","html-slider-response","475","454624","0.0-4.0-10.54-0.54","","","","Rate your confidence","1",""
"579.2000000029802","e","choice","left","e","experimental","482","457003","0.0-4.0-8.55","true","56","3.149999999999999","","",""
"2034","3","confid","","","html-slider-response","484","459543","0.0-4.0-10.55-0.55","","","","Rate your confidence","1",""
"301","e","choice","right","i","experimental","491","461660","0.0-4.0-8.56","false","57","3.049999999999999","","",""
"2875","2","confid","","","html-slider-response","493","465041","0.0-4.0-10.56-0.56","","","","Rate your confidence","1",""
"545.8000000119209","e","choice","left","e","experimental","500","467387","0.0-4.0-8.57","true","58","3.149999999999999","","",""
"9722.79999999702","3","confid","","","html-slider-response","502","477616","0.0-4.0-10.57-0.57","","","","Rate your confidence","1",""
"1018.2000000029802","i","choice","right","i","experimental","509","480429","0.0-4.0-8.58","true","59","3.149999999999999","","",""
"2391.7999999970198","3","confid","","","html-slider-response","511","483324","0.0-4.0-10.58-0.58","","","","Rate your confidence","1",""
"422.29999999701977","e","choice","left","e","experimental","518","485539","0.0-4.0-8.59","true","60","3.049999999999999","","",""
"2674","2","confid","","","html-slider-response","520","488720","0.0-4.0-10.59-0.59","","","","Rate your confidence","1",""
"677.1000000089407","i","choice","left","e","experimental","527","491195","0.0-4.0-8.60","false","61","3.049999999999999","","",""
"3044.699999988079","2","confid","","","html-slider-response","529","494745","0.0-4.0-10.60-0.60","","","","Rate your confidence","1",""
"142.09999999403954","i","choice","right","i","experimental","536","496690","0.0-4.0-8.61","true","62","3.149999999999999","","",""
"2694","3","confid","","","html-slider-response","538","499888","0.0-4.0-10.61-0.61","","","","Rate your confidence","1",""
"456.5","e","choice","left","e","experimental","545","502154","0.0-4.0-8.62","true","63","3.149999999999999","","",""
"2886.7999999970198","3","confid","","","html-slider-response","547","505545","0.0-4.0-10.62-0.62","","","","Rate your confidence","1",""
"133.5","i","choice","right","i","experimental","554","507478","0.0-4.0-8.63","true","64","3.049999999999999","","",""
"2311.2000000029802","2","confid","","","html-slider-response","556","510313","0.0-4.0-10.63-0.63","","","","Rate your confidence","1",""
"1179.5","i","choice","right","i","experimental","563","513285","0.0-4.0-8.64","true","65","3.049999999999999","","",""
"2042","3","confid","","","html-slider-response","565","515831","0.0-4.0-10.64-0.64","","","","Rate your confidence","1",""
"135.1000000089407","i","choice","left","e","experimental","572","517761","0.0-4.0-8.65","false","66","2.949999999999999","","",""
"2891.4000000059605","3","confid","","","html-slider-response","574","521157","0.0-4.0-10.65-0.65","","","","Rate your confidence","1",""
"373.30000001192093","i","choice","right","i","experimental","581","523340","0.0-4.0-8.66","true","67","3.049999999999999","","",""
"2691.7000000029802","2","confid","","","html-slider-response","583","526537","0.0-4.0-10.66-0.66","","","","Rate your confidence","1",""
"1587.1000000089407","e","choice","left","e","experimental","590","529932","0.0-4.0-8.67","true","68","3.049999999999999","","",""
"2424.7999999970198","2","confid","","","html-slider-response","592","532863","0.0-4.0-10.67-0.67","","","","Rate your confidence","1",""
"29.900000005960464","i","choice","right","i","experimental","600","541108","0.0-4.0-8.68","true","69","2.949999999999999","","",""
"3196.0999999940395","3","confid","","","html-slider-response","602","544809","0.0-4.0-10.68-0.68","","","","Rate your confidence","1",""
"204.90000000596046","i","choice","left","e","experimental","609","546801","0.0-4.0-8.69","false","70","2.949999999999999","","",""
"3144.199999988079","2","confid","","","html-slider-response","611","550451","0.0-4.0-10.69-0.69","","","","Rate your confidence","1",""
"1497.5","i","choice","right","i","experimental","618","553762","0.0-4.0-8.70","true","71","3.049999999999999","","",""
"3968.7999999970198","2","confid","","","html-slider-response","620","558235","0.0-4.0-10.70-0.70","","","","Rate your confidence","1",""
"560","e","choice","left","e","experimental","627","560600","0.0-4.0-8.71","true","72","3.049999999999999","","",""
"1794.6000000089407","2","confid","","","html-slider-response","629","562900","0.0-4.0-10.71-0.71","","","","Rate your confidence","1",""
"1175.7000000029802","i","choice","right","i","experimental","636","565883","0.0-4.0-8.72","true","73","2.949999999999999","","",""
"4199.0999999940395","3","confid","","","html-slider-response","638","570598","0.0-4.0-10.72-0.72","","","","Rate your confidence","1",""
"42","i","choice","left","e","experimental","645","572450","0.0-4.0-8.73","false","74","2.949999999999999","","",""
"2964.9000000059605","2","confid","","","html-slider-response","647","575921","0.0-4.0-10.73-0.73","","","","Rate your confidence","1",""
"33","e","choice","left","e","experimental","654","577752","0.0-4.0-8.74","true","75","3.049999999999999","","",""
"3118.5","4","confid","","","html-slider-response","656","581375","0.0-4.0-10.74-0.74","","","","Rate your confidence","1",""
"143.79999999701977","i","choice","right","i","experimental","663","583313","0.0-4.0-8.75","true","76","3.049999999999999","","",""
"2171.5999999940395","3","confid","","","html-slider-response","665","585991","0.0-4.0-10.75-0.75","","","","Rate your confidence","1",""
"269.09999999403954","e","choice","left","e","experimental","672","588075","0.0-4.0-8.76","true","77","2.949999999999999","","",""
"1807.7999999970198","3","confid","","","html-slider-response","674","590389","0.0-4.0-10.76-0.76","","","","Rate your confidence","1",""
"103.3999999910593","i","choice","right","i","experimental","681","592309","0.0-4.0-8.77","true","78","2.949999999999999","","",""
"2174.2000000029802","3","confid","","","html-slider-response","683","594989","0.0-4.0-10.77-0.77","","","","Rate your confidence","1",""
"450.70000000298023","e","choice","right","i","experimental","690","597286","0.0-4.0-8.78","false","79","2.8499999999999988","","",""
"1720.199999988079","3","confid","","","html-slider-response","692","599510","0.0-4.0-10.78-0.78","","","","Rate your confidence","1",""
"434","i","choice","left","e","experimental","699","601740","0.0-4.0-8.79","false","80","2.949999999999999","","",""
"3009.5","2","confid","","","html-slider-response","701","605253","0.0-4.0-10.79-0.79","","","","Rate your confidence","1",""
"596","e","choice","left","e","experimental","708","607634","0.0-4.0-8.80","true","81","3.049999999999999","","",""
"2406.7000000029802","4","confid","","","html-slider-response","710","610547","0.0-4.0-10.80-0.80","","","","Rate your confidence","1",""
"821.0999999940395","e","choice","right","i","experimental","717","613162","0.0-4.0-8.81","false","82","3.049999999999999","","",""
"2151.3999999910593","2","confid","","","html-slider-response","719","615820","0.0-4.0-10.81-0.81","","","","Rate your confidence","1",""
"679.3000000119209","e","choice","right","i","experimental","726","618323","0.0-4.0-8.82","false","83","3.149999999999999","","",""
"2104","2","confid","","","html-slider-response","728","620933","0.0-4.0-10.82-0.82","","","","Rate your confidence","1",""
"101.09999999403954","e","choice","left","e","experimental","735","622841","0.0-4.0-8.83","true","84","3.249999999999999","","",""
"1839.300000011921","2","confid","","","html-slider-response","737","625186","0.0-4.0-10.83-0.83","","","","Rate your confidence","1",""
"79.29999999701977","e","choice","left","e","experimental","744","627092","0.0-4.0-8.84","true","85","3.249999999999999","","",""
"1706.5","2","confid","","","html-slider-response","746","629304","0.0-4.0-10.84-0.84","","","","Rate your confidence","1",""
"968.2000000029802","i","choice","right","i","experimental","753","632061","0.0-4.0-8.85","true","86","3.149999999999999","","",""
"1943.7999999970198","2","confid","","","html-slider-response","755","634511","0.0-4.0-10.85-0.85","","","","Rate your confidence","1",""
"943.0999999940395","e","choice","right","i","experimental","762","637263","0.0-4.0-8.86","false","87","3.149999999999999","","",""
"1965","2","confid","","","html-slider-response","764","639733","0.0-4.0-10.86-0.86","","","","Rate your confidence","1",""
"1388.5","i","choice","left","e","experimental","771","642929","0.0-4.0-8.87","false","88","3.249999999999999","","",""
"2057.7999999970198","2","confid","","","html-slider-response","773","645493","0.0-4.0-10.87-0.87","","","","Rate your confidence","1",""
"751.3999999910593","i","choice","right","i","experimental","780","648052","0.0-4.0-8.88","true","89","3.349999999999999","","",""
"1845.5999999940395","2","confid","","","html-slider-response","782","650405","0.0-4.0-10.88-0.88","","","","Rate your confidence","1",""
"1431.4000000059605","e","choice","left","e","experimental","789","653629","0.0-4.0-8.89","true","90","3.349999999999999","","",""
"3365.4000000059605","5","confid","","","html-slider-response","791","657500","0.0-4.0-10.89-0.89","","","","Rate your confidence","1",""
"562.2999999970198","e","choice","left","e","experimental","798","659862","0.0-4.0-8.90","true","91","3.249999999999999","","",""
"2104","4","confid","","","html-slider-response","800","662472","0.0-4.0-10.90-0.90","","","","Rate your confidence","1",""
"576.4000000059605","i","choice","right","i","experimental","807","664865","0.0-4.0-8.91","true","92","3.249999999999999","","",""
"2453.5","3","confid","","","html-slider-response","809","667824","0.0-4.0-10.91-0.91","","","","Rate your confidence","1",""
"621.2000000029802","e","choice","left","e","experimental","816","670255","0.0-4.0-8.92","true","93","3.149999999999999","","",""
"1627.2999999970198","2","confid","","","html-slider-response","818","672388","0.0-4.0-10.92-0.92","","","","Rate your confidence","1",""
"275.09999999403954","i","choice","right","i","experimental","825","674456","0.0-4.0-8.93","true","94","3.149999999999999","","",""
"1999.6000000089407","3","confid","","","html-slider-response","827","676960","0.0-4.0-10.93-0.93","","","","Rate your confidence","1",""
"427.8999999910593","i","choice","right","i","experimental","834","679183","0.0-4.0-8.94","true","95","3.049999999999999","","",""
"3613.0999999940395","2","confid","","","html-slider-response","836","683309","0.0-4.0-10.94-0.94","","","","Rate your confidence","1",""
"1277.9000000059605","e","choice","left","e","experimental","843","686397","0.0-4.0-8.95","true","96","3.049999999999999","","",""
"1794.800000011921","2","confid","","","html-slider-response","845","688698","0.0-4.0-10.95-0.95","","","","Rate your confidence","1",""
"770.0999999940395","i","choice","right","i","experimental","852","691277","0.0-4.0-8.96","true","97","2.949999999999999","","",""
"2340.2999999970198","2","confid","","","html-slider-response","854","694124","0.0-4.0-10.96-0.96","","","","Rate your confidence","1",""
"201","e","choice","left","e","experimental","861","696124","0.0-4.0-8.97","true","98","2.949999999999999","","",""
"4858.20000000298","2","confid","","","html-slider-response","863","701487","0.0-4.0-10.97-0.97","","","","Rate your confidence","1",""
"348.5","i","choice","left","e","experimental","870","703631","0.0-4.0-8.98","false","99","2.8499999999999988","","",""
"2226","2","confid","","","html-slider-response","872","706363","0.0-4.0-10.98-0.98","","","","Rate your confidence","1",""
"543.7000000029802","i","choice","right","i","experimental","879","708701","0.0-4.0-8.99","true","100","2.949999999999999","","",""
"2120.0999999940395","3","confid","","","html-slider-response","881","711325","0.0-4.0-10.99-0.99","","","","Rate your confidence","1",""
"386.90000000596046","i","choice","right","i","experimental","888","713524","0.0-4.0-8.100","true","101","2.949999999999999","","",""
"1707.5","3","confid","","","html-slider-response","890","715737","0.0-4.0-10.100-0.100","","","","Rate your confidence","1",""
"1097.9000000059605","e","choice","left","e","experimental","897","718642","0.0-4.0-8.101","true","102","2.8499999999999988","","",""
"2244.300000011921","2","confid","","","html-slider-response","899","721392","0.0-4.0-10.101-0.101","","","","Rate your confidence","1",""
"8956.79999999702","e","choice","left","e","experimental","906","732141","0.0-4.0-8.102","true","103","2.8499999999999988","","",""
"3617.0999999940395","2","confid","","","html-slider-response","908","736266","0.0-4.0-10.102-0.102","","","","Rate your confidence","1",""
"456.30000001192093","e","choice","right","i","experimental","915","738510","0.0-4.0-8.103","false","104","2.7499999999999987","","",""
"1800.0999999940395","3","confid","","","html-slider-response","917","740817","0.0-4.0-10.103-0.103","","","","Rate your confidence","1",""
"357.40000000596046","e","choice","left","e","experimental","924","742964","0.0-4.0-8.104","true","105","2.8499999999999988","","",""
"1679.3999999910593","3","confid","","","html-slider-response","926","745149","0.0-4.0-10.104-0.104","","","","Rate your confidence","1",""
"2697.7999999970198","e","choice","right","i","experimental","933","749641","0.0-4.0-8.105","false","106","2.8499999999999988","","",""
"2269.8999999910593","3","confid","","","html-slider-response","935","752418","0.0-4.0-10.105-0.105","","","","Rate your confidence","1",""
"436.59999999403954","e","choice","right","i","experimental","942","754649","0.0-4.0-8.106","false","107","2.949999999999999","","",""
"2793.5","3","confid","","","html-slider-response","944","757966","0.0-4.0-10.106-0.106","","","","Rate your confidence","1",""
"339.70000000298023","e","choice","left","e","experimental","951","760100","0.0-4.0-8.107","true","108","3.049999999999999","","",""
"3118.5","4","confid","","","html-slider-response","953","763724","0.0-4.0-10.107-0.107","","","","Rate your confidence","1",""
"1039.7000000029802","e","choice","right","i","experimental","960","766566","0.0-4.0-8.108","false","109","3.049999999999999","","",""
"5196.29999999702","3","confid","","","html-slider-response","962","772268","0.0-4.0-10.108-0.108","","","","Rate your confidence","1",""
"44.30000001192093","e","choice","left","e","experimental","969","774113","0.0-4.0-8.109","true","110","3.149999999999999","","",""
"2728.2000000029802","3","confid","","","html-slider-response","971","777346","0.0-4.0-10.109-0.109","","","","Rate your confidence","1",""
"818.0999999940395","e","choice","right","i","experimental","979","787184","0.0-4.0-8.110","false","111","3.149999999999999","","",""
"2919","2","confid","","","html-slider-response","981","790610","0.0-4.0-10.110-0.110","","","","Rate your confidence","1",""
"111.90000000596046","e","choice","left","e","experimental","988","792514","0.0-4.0-8.111","true","112","3.249999999999999","","",""
"2111.0999999940395","4","confid","","","html-slider-response","990","795131","0.0-4.0-10.111-0.111","","","","Rate your confidence","1",""
"144.29999999701977","e","choice","left","e","experimental","997","797075","0.0-4.0-8.112","true","113","3.249999999999999","","",""
"2454.699999988079","4","confid","","","html-slider-response","999","800049","0.0-4.0-10.112-0.112","","","","Rate your confidence","1",""
"505.09999999403954","e","choice","right","i","experimental","1006","802371","0.0-4.0-8.113","false","114","3.149999999999999","","",""
"2027.699999988079","3","confid","","","html-slider-response","1008","804904","0.0-4.0-10.113-0.113","","","","Rate your confidence","1",""
"254.90000000596046","e","choice","left","e","experimental","1015","806976","0.0-4.0-8.114","true","115","3.249999999999999","","",""
"2601.2999999970198","3","confid","","","html-slider-response","1017","810083","0.0-4.0-10.114-0.114","","","","Rate your confidence","1",""
"512.0999999940395","e","choice","right","i","experimental","1024","812384","0.0-4.0-8.115","false","116","3.249999999999999","","",""
"2685.4000000059605","3","confid","","","html-slider-response","1026","815594","0.0-4.0-10.115-0.115","","","","Rate your confidence","1",""
"1526.2000000029802","i","choice","right","i","experimental","1033","818908","0.0-4.0-8.116","true","117","3.349999999999999","","",""
"3878.9000000059605","3","confid","","","html-slider-response","1035","823292","0.0-4.0-10.116-0.116","","","","Rate your confidence","1",""
"1349.0999999940395","e","choice","left","e","experimental","1042","826437","0.0-4.0-8.117","true","118","3.349999999999999","","",""
"2498","2","confid","","","html-slider-response","1044","829442","0.0-4.0-10.117-0.117","","","","Rate your confidence","1",""
"471.20000000298023","e","choice","right","i","experimental","1051","831725","0.0-4.0-8.118","false","119","3.249999999999999","","",""
"5822","2","confid","","","html-slider-response","1053","838051","0.0-4.0-10.118-0.118","","","","Rate your confidence","1",""
"457.69999998807907","e","choice","left","e","experimental","1060","840304","0.0-4.0-8.119","true","120","3.349999999999999","","",""
"2252.5","4","confid","","","html-slider-response","1062","843061","0.0-4.0-10.119-0.119","","","","Rate your confidence","1",""
"265.30000001192093","e","choice","right","i","experimental","1069","845123","0.0-4.0-8.120","false","121","3.349999999999999","","",""
"2706.800000011921","3","confid","","","html-slider-response","1071","848336","0.0-4.0-10.120-0.120","","","","Rate your confidence","1",""
"748.6999999880791","e","choice","left","e","experimental","1078","850880","0.0-4.0-8.121","true","122","3.4499999999999993","","",""
"2706.2999999970198","3","confid","","","html-slider-response","1080","854093","0.0-4.0-10.121-0.121","","","","Rate your confidence","1",""
"876.2000000029802","e","choice","right","i","experimental","1087","856769","0.0-4.0-8.122","false","123","3.4499999999999993","","",""
"1774.0999999940395","3","confid","","","html-slider-response","1089","859048","0.0-4.0-10.122-0.122","","","","Rate your confidence","1",""
"247.70000000298023","e","choice","left","e","experimental","1096","861107","0.0-4.0-8.123","true","124","3.5499999999999994","","",""
"2904.5999999940395","3","confid","","","html-slider-response","1098","864517","0.0-4.0-10.123-0.123","","","","Rate your confidence","1",""
"2087.1000000089407","i","choice","right","i","experimental","1105","868400","0.0-4.0-8.124","true","125","3.5499999999999994","","",""
"2020.2999999970198","2","confid","","","html-slider-response","1107","870926","0.0-4.0-10.124-0.124","","","","Rate your confidence","1",""
"498.29999999701977","e","choice","left","e","experimental","1114","873212","0.0-4.0-8.125","true","126","3.4499999999999993","","",""
"3617.2999999970198","3","confid","","","html-slider-response","1116","877335","0.0-4.0-10.125-0.125","","","","Rate your confidence","1",""
"559","e","choice","left","e","experimental","1123","879689","0.0-4.0-8.126","true","127","3.4499999999999993","","",""
"4606.5999999940395","3","confid","","","html-slider-response","1125","884801","0.0-4.0-10.126-0.126","","","","Rate your confidence","1",""
"1030","e","choice","right","i","experimental","1132","887654","0.0-4.0-8.127","false","128","3.349999999999999","","",""
"4087.800000011921","2","confid","","","html-slider-response","1134","892247","0.0-4.0-10.127-0.127","","","","Rate your confidence","1",""
"1275.7999999970198","e","choice","right","i","experimental","1141","895329","0.0-4.0-8.128","false","129","3.4499999999999993","","",""
"2907.699999988079","2","confid","","","html-slider-response","1143","898742","0.0-4.0-10.128-0.128","","","","Rate your confidence","1",""
"129.79999999701977","e","choice","left","e","experimental","1150","900665","0.0-4.0-8.129","true","130","3.5499999999999994","","",""
"3185.4000000059605","2","confid","","","html-slider-response","1152","904357","0.0-4.0-10.129-0.129","","","","Rate your confidence","1",""
"542.5999999940395","e","choice","right","i","experimental","1159","906688","0.0-4.0-8.130","false","131","3.5499999999999994","","",""
"2285.5","2","confid","","","html-slider-response","1161","909479","0.0-4.0-10.130-0.130","","","","Rate your confidence","1",""
"528.5","e","choice","left","e","experimental","1168","911805","0.0-4.0-8.131","true","132","3.6499999999999995","","",""
"2603.7999999970198","3","confid","","","html-slider-response","1170","914933","0.0-4.0-10.131-0.131","","","","Rate your confidence","1",""
"1022.5","e","choice","right","i","experimental","1177","917750","0.0-4.0-8.132","false","133","3.6499999999999995","","",""
"62400.19999998808","3","confid","","","html-slider-response","1179","980653","0.0-4.0-10.132-0.132","","","","Rate your confidence","1",""
"359.8999999910593","e","choice","left","e","experimental","1186","982829","0.0-4.0-8.133","true","134","3.7499999999999996","","",""
"15026.59999999404","2","confid","","","html-slider-response","1188","998362","0.0-4.0-10.133-0.133","","","","Rate your confidence","1",""
"2530.5","e","choice","left","e","experimental","1195","1002688","0.0-4.0-8.134","true","135","3.7499999999999996","","",""
"3743.3999999910593","3","confid","","","html-slider-response","1197","1006935","0.0-4.0-10.134-0.134","","","","Rate your confidence","1",""
"186","i","choice","right","i","experimental","1204","1008920","0.0-4.0-8.135","true","136","3.6499999999999995","","",""
"4334.199999988079","3","confid","","","html-slider-response","1206","1013764","0.0-4.0-10.135-0.135","","","","Rate your confidence","1",""
"486.3999999910593","e","choice","left","e","experimental","1213","1016044","0.0-4.0-8.136","true","137","3.6499999999999995","","",""
"1889.5","3","confid","","","html-slider-response","1215","1018438","0.0-4.0-10.136-0.136","","","","Rate your confidence","1",""
"164","i","choice","right","i","experimental","1222","1020398","0.0-4.0-8.137","true","138","3.5499999999999994","","",""
"9162.70000000298","3","confid","","","html-slider-response","1224","1030074","0.0-4.0-10.137-0.137","","","","Rate your confidence","1",""
"208.20000000298023","e","choice","left","e","experimental","1231","1032071","0.0-4.0-8.138","true","139","3.5499999999999994","","",""
"2770.6000000089407","2","confid","","","html-slider-response","1233","1035348","0.0-4.0-10.138-0.138","","","","Rate your confidence","1",""
"434.6000000089407","e","choice","right","i","experimental","1240","1037579","0.0-4.0-8.139","false","140","3.4499999999999993","","",""
"1950.4000000059605","3","confid","","","html-slider-response","1242","1040036","0.0-4.0-10.139-0.139","","","","Rate your confidence","1",""
"2081.2999999970198","i","choice","right","i","experimental","1249","1043935","0.0-4.0-8.140","true","141","3.5499999999999994","","",""
"2271.1000000089407","2","confid","","","html-slider-response","1251","1046713","0.0-4.0-10.140-0.140","","","","Rate your confidence","1",""
"372.3999999910593","e","choice","left","e","experimental","1258","1048883","0.0-4.0-8.141","true","142","3.5499999999999994","","",""
"2719.6000000089407","2","confid","","","html-slider-response","1260","1052126","0.0-4.0-10.141-0.141","","","","Rate your confidence","1",""
"338.90000000596046","i","choice","right","i","experimental","1267","1054264","0.0-4.0-8.142","true","143","3.4499999999999993","","",""
"1843.300000011921","3","confid","","","html-slider-response","1269","1056612","0.0-4.0-10.142-0.142","","","","Rate your confidence","1",""
"386.29999999701977","e","choice","left","e","experimental","1276","1058793","0.0-4.0-8.143","true","144","3.4499999999999993","","",""
"2233.7999999970198","2","confid","","","html-slider-response","1278","1061531","0.0-4.0-10.143-0.143","","","","Rate your confidence","1",""
"240","e","choice","left","e","experimental","1285","1063579","0.0-4.0-8.144","true","145","3.349999999999999","","",""
"1966.9000000059605","2","confid","","","html-slider-response","1287","1066052","0.0-4.0-10.144-0.144","","","","Rate your confidence","1",""
"31.900000005960464","i","choice","right","i","experimental","1294","1067891","0.0-4.0-8.145","true","146","3.349999999999999","","",""
"2060.2999999970198","2","confid","","","html-slider-response","1296","1070458","0.0-4.0-10.145-0.145","","","","Rate your confidence","1",""
"433.3999999910593","e","choice","right","i","experimental","1303","1072688","0.0-4.0-8.146","false","147","3.249999999999999","","",""
"2487.5","2","confid","","","html-slider-response","1305","1075696","0.0-4.0-10.146-0.146","","","","Rate your confidence","1",""
"167.69999998807907","e","choice","left","e","experimental","1312","1077654","0.0-4.0-8.147","true","148","3.349999999999999","","",""
"2716","3","confid","","","html-slider-response","1314","1080876","0.0-4.0-10.147-0.147","","","","Rate your confidence","1",""
"93.3999999910593","i","choice","right","i","experimental","1321","1082779","0.0-4.0-8.148","true","149","3.349999999999999","","",""
"1793.9000000059605","2","confid","","","html-slider-response","1323","1085078","0.0-4.0-10.148-0.148","","","","Rate your confidence","1",""
"234.59999999403954","e","choice","left","e","experimental","1330","1087112","0.0-4.0-8.149","true","150","3.249999999999999","","",""
"2098.7999999970198","2","confid","","","html-slider-response","1332","1089716","0.0-4.0-10.149-0.149","","","","Rate your confidence","1",""
"552.5999999940395","e","choice","left","e","experimental","1339","1092060","0.0-4.0-8.150","true","151","3.249999999999999","","",""
"5869.5999999940395","2","confid","","","html-slider-response","1341","1098455","0.0-4.0-10.150-0.150","","","","Rate your confidence","1",""
"567.7000000029802","e","choice","right","i","experimental","1348","1100815","0.0-4.0-8.151","false","152","3.149999999999999","","",""
"1901.699999988079","2","confid","","","html-slider-response","1350","1103223","0.0-4.0-10.151-0.151","","","","Rate your confidence","1",""
"388","e","choice","left","e","experimental","1358","1106846","0.0-4.0-8.152","true","153","3.249999999999999","","",""
"2351.5","4","confid","","","html-slider-response","1360","1109703","0.0-4.0-10.152-0.152","","","","Rate your confidence","1",""
"134.59999999403954","i","choice","right","i","experimental","1367","1111649","0.0-4.0-8.153","true","154","3.249999999999999","","",""
"3812.7000000029802","2","confid","","","html-slider-response","1369","1115969","0.0-4.0-10.153-0.153","","","","Rate your confidence","1",""
"369","e","choice","left","e","experimental","1376","1118139","0.0-4.0-8.154","true","155","3.149999999999999","","",""
"2670.2000000029802","3","confid","","","html-slider-response","1378","1121316","0.0-4.0-10.154-0.154","","","","Rate your confidence","1",""
"329.80000001192093","i","choice","right","i","experimental","1385","1123439","0.0-4.0-8.155","true","156","3.149999999999999","","",""
"1702.2999999970198","3","confid","","","html-slider-response","1387","1125649","0.0-4.0-10.155-0.155","","","","Rate your confidence","1",""
"431.3999999910593","e","choice","left","e","experimental","1394","1127876","0.0-4.0-8.156","true","157","3.049999999999999","","",""
"1825.6000000089407","2","confid","","","html-slider-response","1396","1130207","0.0-4.0-10.156-0.156","","","","Rate your confidence","1",""
"308.70000000298023","i","choice","right","i","experimental","1403","1132327","0.0-4.0-8.157","true","158","3.049999999999999","","",""
"2373.7999999970198","2","confid","","","html-slider-response","1405","1135207","0.0-4.0-10.157-0.157","","","","Rate your confidence","1",""
"313.3999999910593","e","choice","left","e","experimental","1412","1137340","0.0-4.0-8.158","true","159","2.949999999999999","","",""
"1826.5","2","confid","","","html-slider-response","1414","1139689","0.0-4.0-10.158-0.158","","","","Rate your confidence","1",""
"21.100000008940697","i","choice","right","i","experimental","1421","1141512","0.0-4.0-8.159","true","160","2.949999999999999","","",""
"2352","3","confid","","","html-slider-response","1423","1144371","0.0-4.0-10.159-0.159","","","","Rate your confidence","1",""
"240.5","i","choice","left","e","experimental","1430","1146405","0.0-4.0-8.160","false","161","2.8499999999999988","","",""
"2871.800000011921","2","confid","","","html-slider-response","1432","1149782","0.0-4.0-10.160-0.160","","","","Rate your confidence","1",""
"1247.1000000089407","i","choice","right","i","experimental","1439","1152852","0.0-4.0-8.161","true","162","2.949999999999999","","",""
"1400.2000000029802","3","confid","","","html-slider-response","1441","1154760","0.0-4.0-10.161-0.161","","","","Rate your confidence","1",""
"454.90000000596046","e","choice","left","e","experimental","1448","1157027","0.0-4.0-8.162","true","163","2.949999999999999","","",""
"1835.3999999910593","3","confid","","","html-slider-response","1450","1159368","0.0-4.0-10.162-0.162","","","","Rate your confidence","1",""
"155.20000000298023","i","choice","right","i","experimental","1457","1161325","0.0-4.0-8.163","true","164","2.8499999999999988","","",""
"2486.5999999940395","2","confid","","","html-slider-response","1459","1164317","0.0-4.0-10.163-0.163","","","","Rate your confidence","1",""
"419.80000001192093","e","choice","right","i","experimental","1466","1166533","0.0-4.0-8.164","false","165","2.8499999999999988","","",""
"1632.199999988079","2","confid","","","html-slider-response","1468","1168671","0.0-4.0-10.164-0.164","","","","Rate your confidence","1",""
"469.3999999910593","e","choice","left","e","experimental","1475","1170939","0.0-4.0-8.165","true","166","2.949999999999999","","",""
"1819.0999999940395","2","confid","","","html-slider-response","1477","1173266","0.0-4.0-10.165-0.165","","","","Rate your confidence","1",""
"213.3999999910593","i","choice","right","i","experimental","1484","1175289","0.0-4.0-8.166","true","167","2.949999999999999","","",""
"1724.2000000029802","2","confid","","","html-slider-response","1486","1177520","0.0-4.0-10.166-0.166","","","","Rate your confidence","1",""
"794.2999999970198","e","choice","left","e","experimental","1493","1180115","0.0-4.0-8.167","true","168","2.8499999999999988","","",""
"2721","2","confid","","","html-slider-response","1495","1183342","0.0-4.0-10.167-0.167","","","","Rate your confidence","1",""
"367.70000000298023","e","choice","right","i","experimental","1502","1185522","0.0-4.0-8.168","false","169","2.8499999999999988","","",""
"2126.6000000089407","2","confid","","","html-slider-response","1504","1188155","0.0-4.0-10.168-0.168","","","","Rate your confidence","1",""
"398.5","e","choice","left","e","experimental","1511","1190349","0.0-4.0-8.169","true","170","2.949999999999999","","",""
"4264.20000000298","2","confid","","","html-slider-response","1513","1195120","0.0-4.0-10.169-0.169","","","","Rate your confidence","1",""
"554.7999999970198","e","choice","left","e","experimental","1520","1197472","0.0-4.0-8.170","true","171","2.949999999999999","","",""
"2314.7999999970198","2","confid","","","html-slider-response","1522","1200293","0.0-4.0-10.170-0.170","","","","Rate your confidence","1",""
"702.9000000059605","e","choice","right","i","experimental","1529","1202799","0.0-4.0-8.171","false","172","2.8499999999999988","","",""
"2978.7999999970198","2","confid","","","html-slider-response","1531","1206284","0.0-4.0-10.171-0.171","","","","Rate your confidence","1",""
"318.40000000596046","e","choice","right","i","experimental","1538","1208414","0.0-4.0-8.172","false","173","2.949999999999999","","",""
"3381.1000000089407","2","confid","","","html-slider-response","1540","1212302","0.0-4.0-10.172-0.172","","","","Rate your confidence","1",""
"156.90000000596046","i","choice","left","e","experimental","1547","1214275","0.0-4.0-8.173","false","174","3.049999999999999","","",""
"5305.699999988079","2","confid","","","html-slider-response","1549","1220086","0.0-4.0-10.173-0.173","","","","Rate your confidence","1",""
"1200.9000000059605","i","choice","right","i","experimental","1556","1223081","0.0-4.0-8.174","true","175","3.149999999999999","","",""
"1568.5999999940395","2","confid","","","html-slider-response","1558","1225155","0.0-4.0-10.174-0.174","","","","Rate your confidence","1",""
"404.29999999701977","e","choice","left","e","experimental","1565","1227360","0.0-4.0-8.175","true","176","3.149999999999999","","",""
"1773.9000000059605","3","confid","","","html-slider-response","1567","1229642","0.0-4.0-10.175-0.175","","","","Rate your confidence","1",""
"408.1000000089407","e","choice","left","e","experimental","1574","1231849","0.0-4.0-8.176","true","177","3.049999999999999","","",""
"1784.0999999940395","3","confid","","","html-slider-response","1576","1234141","0.0-4.0-10.176-0.176","","","","Rate your confidence","1",""
"644.5999999940395","e","choice","right","i","experimental","1583","1236600","0.0-4.0-8.177","false","178","3.049999999999999","","",""
"4609.9000000059605","2","confid","","","html-slider-response","1585","1241715","0.0-4.0-10.177-0.177","","","","Rate your confidence","1",""
"511.5","e","choice","right","i","experimental","1592","1244028","0.0-4.0-8.178","false","179","3.149999999999999","","",""
"1757.7000000029802","2","confid","","","html-slider-response","1594","1246294","0.0-4.0-10.178-0.178","","","","Rate your confidence","1",""
"393.1000000089407","e","choice","left","e","experimental","1601","1248486","0.0-4.0-8.179","true","180","3.249999999999999","","",""
"1789.8999999910593","3","confid","","","html-slider-response","1603","1250782","0.0-4.0-10.179-0.179","","","","Rate your confidence","1",""
"442.40000000596046","e","choice","right","i","experimental","1610","1253018","0.0-4.0-8.180","false","181","3.249999999999999","","",""
"2493.300000011921","2","confid","","","html-slider-response","1612","1256018","0.0-4.0-10.180-0.180","","","","Rate your confidence","1",""
"163.40000000596046","e","choice","left","e","experimental","1619","1257986","0.0-4.0-8.181","true","182","3.349999999999999","","",""
"2483.3999999910593","3","confid","","","html-slider-response","1621","1260975","0.0-4.0-10.181-0.181","","","","Rate your confidence","1",""
"460.5","e","choice","left","e","experimental","1628","1263253","0.0-4.0-8.182","true","183","3.349999999999999","","",""
"2208.9000000059605","5","confid","","","html-slider-response","1630","1265966","0.0-4.0-10.182-0.182","","","","Rate your confidence","1",""
"551.9000000059605","e","choice","right","i","experimental","1637","1268321","0.0-4.0-8.183","false","184","3.249999999999999","","",""
"1632.7000000029802","3","confid","","","html-slider-response","1639","1270459","0.0-4.0-10.183-0.183","","","","Rate your confidence","1",""
"10778","e","choice","right","i","experimental","1646","1283035","0.0-4.0-8.184","false","185","3.349999999999999","","",""
"3587.0999999940395","2","confid","","","html-slider-response","1648","1287128","0.0-4.0-10.184-0.184","","","","Rate your confidence","1",""
"258.30000001192093","e","choice","left","e","experimental","1655","1289175","0.0-4.0-8.185","true","186","3.4499999999999993","","",""
"2112.4000000059605","4","confid","","","html-slider-response","1657","1291792","0.0-4.0-10.185-0.185","","","","Rate your confidence","1",""
"407.3999999910593","e","choice","right","i","experimental","1664","1294000","0.0-4.0-8.186","false","187","3.4499999999999993","","",""
"1887.3999999910593","2","confid","","","html-slider-response","1666","1296394","0.0-4.0-10.186-0.186","","","","Rate your confidence","1",""
"151.79999999701977","e","choice","left","e","experimental","1673","1298351","0.0-4.0-8.187","true","188","3.5499999999999994","","",""
"1813.9000000059605","3","confid","","","html-slider-response","1675","1300669","0.0-4.0-10.187-0.187","","","","Rate your confidence","1",""
"446.3999999910593","e","choice","right","i","experimental","1682","1302918","0.0-4.0-8.188","false","189","3.5499999999999994","","",""
"2443","2","confid","","","html-slider-response","1684","1305884","0.0-4.0-10.188-0.188","","","","Rate your confidence","1",""
"141.29999999701977","e","choice","left","e","experimental","1691","1307826","0.0-4.0-8.189","true","190","3.6499999999999995","","",""
"2347.6000000089407","3","confid","","","html-slider-response","1693","1310680","0.0-4.0-10.189-0.189","","","","Rate your confidence","1",""
"53","e","choice","left","e","experimental","1700","1312551","0.0-4.0-8.190","true","191","3.6499999999999995","","",""
"2219.5999999940395","2","confid","","","html-slider-response","1702","1315282","0.0-4.0-10.190-0.190","","","","Rate your confidence","1",""
"909.4000000059605","e","choice","right","i","experimental","1709","1317995","0.0-4.0-8.191","false","192","3.5499999999999994","","",""
"3941.5","2","confid","","","html-slider-response","1711","1322442","0.0-4.0-10.191-0.191","","","","Rate your confidence","1",""
"386.3999999910593","i","choice","right","i","experimental","1718","1324626","0.0-4.0-8.192","true","193","3.6499999999999995","","",""
"1841.5999999940395","2","confid","","","html-slider-response","1720","1326973","0.0-4.0-10.192-0.192","","","","Rate your confidence","1",""
"529.9000000059605","e","choice","left","e","experimental","1727","1329301","0.0-4.0-8.193","true","194","3.6499999999999995","","",""
"1648.0999999940395","3","confid","","","html-slider-response","1729","1331457","0.0-4.0-10.193-0.193","","","","Rate your confidence","1","98397"
