"rt","response","task","target_side","correct_response","trial_type","trial_index","time_elapsed","internal_node_id","correct","trial_number","n_dots","stimulus","slider_start","participant"
"2849","i","choice","left","e","practice","10","153870","0.0-4.0-8.0","false","1","4.25","","",""
"889.9999999999418","e","choice","right","i","practice","18","157058","0.0-4.0-8.1","false","2","4.65","","",""
"788","i","choice","right","i","practice","26","160143","0.0-4.0-8.2","true","3","5.050000000000001","","",""
"472","e","choice","left","e","practice","34","162911","0.0-4.0-8.3","true","4","5.050000000000001","","",""
"833","i","choice","right","i","practice","42","166042","0.0-4.0-8.4","true","5","4.65","","",""
"702","e","choice","left","e","practice","50","169044","0.0-4.0-8.5","true","6","4.65","","",""
"408.0000000000582","e","choice","left","e","practice","58","171752","0.0-4.0-8.6","true","7","4.45","","",""
"1355","i","choice","right","i","practice","66","175410","0.0-4.0-8.7","true","8","4.45","","",""
"765","e","choice","left","e","practice","74","178474","0.0-4.0-8.8","true","9","4.25","","",""
"421","i","choice","right","i","practice","82","181197","0.0-4.0-8.9","true","10","4.25","","",""
"674","i","choice","right","i","practice","90","184171","0.0-4.0-8.10","true","11","4.05","","",""
"333","e","choice","left","e","practice","98","186799","0.0-4.0-8.11","true","12","4.05","","",""
"506","e","choice","left","e","practice","106","189605","0.0-4.0-8.12","true","13","3.9499999999999997","","",""
"739","e","choice","right","i","practice","114","192639","0.0-4.0-8.13","false","14","3.9499999999999997","","",""
"379","i","choice","right","i","practice","122","195316","0.0-4.0-8.14","true","15","4.05","","",""
"336","e","choice","left","e","practice","130","197950","0.0-4.0-8.15","true","16","4.05","","",""
"320.0000000000582","i","choice","right","i","practice","138","200568","0.0-4.0-8.16","true","17","3.9499999999999997","","",""
"15","e","choice","left","e","practice","146","202884","0.0-4.0-8.17","true","18","3.9499999999999997","","",""
"193","i","choice","right","i","practice","154","205376","0.0-4.0-8.18","true","19","3.8499999999999996","","",""
"669.9999999999418","e","choice","left","e","practice","162","208340","0.0-4.0-8.19","true","20","3.8499999999999996","","",""
"158.0000000000582","i","choice","right","i","practice","170","210789","0.0-4.0-8.20","true","21","3.7499999999999996","","",""
"59","e","choice","left","e","practice","178","213146","0.0-4.0-8.21","true","22","3.7499999999999996","","",""
"281","e","choice","left","e","practice","186","215717","0.0-4.0-8.22","true","23","3.6499999999999995","","",""
"406","i","choice","right","i","practice","194","218414","0.0-4.0-8.23","true","24","3.6499999999999995","","",""
"557","e","choice","left","e","practice","202","221261","0.0-4.0-8.24","true","25","3.5499999999999994","","",""
"495","i","choice","right","i","practice","210","224052","0.0-4.0-8.25","true","26","3.5499999999999994","","",""
"834","e","choice","left","e","experimental","221","259836","0.0-4.0-8.26","true","27","3.4499999999999993","","",""
"5805","5","confid","","","html-slider-response","223","266146","0.0-4.0-10.26-0.26","","","","Rate your confidence","1",""
"894","i","choice","right","i","experimental","230","268818","0.0-4.0-8.27","true","28","3.4499999999999993","","",""
"3045","3","confid","","","html-slider-response","232","272370","0.0-4.0-10.27-0.27","","","","Rate your confidence","1",""
"618","i","choice","right","i","experimental","239","274782","0.0-4.0-8.28","true","29","3.349999999999999","","",""
"6996.000000000058","6","confid","","","html-slider-response","241","282284","0.0-4.0-10.28-0.28","","","","Rate your confidence","1",""
"792","e","choice","left","e","experimental","248","284872","0.0-4.0-8.29","true","30","3.349999999999999","","",""
"3165","4","confid","","","html-slider-response","250","288543","0.0-4.0-10.29-0.29","","","","Rate your confidence","1",""
"660","e","choice","left","e","experimental","257","290997","0.0-4.0-8.30","true","31","3.249999999999999","","",""
"4887","5","confid","","","html-slider-response","259","296394","0.0-4.0-10.30-0.30","","","","Rate your confidence","1",""
"450","i","choice","right","i","experimental","266","298638","0.0-4.0-8.31","true","32","3.249999999999999","","",""
"4644","6","confid","","","html-slider-response","268","303791","0.0-4.0-10.31-0.31","","","","Rate your confidence","1",""
"572","e","choice","left","e","experimental","275","306157","0.0-4.0-8.32","true","33","3.149999999999999","","",""
"3647","6","confid","","","html-slider-response","277","310313","0.0-4.0-10.32-0.32","","","","Rate your confidence","1",""
"340.0000000000582","i","choice","right","i","experimental","284","312446","0.0-4.0-8.33","true","34","3.149999999999999","","",""
"2900","6","confid","","","html-slider-response","286","315851","0.0-4.0-10.33-0.33","","","","Rate your confidence","1",""
"619","i","choice","right","i","experimental","293","318265","0.0-4.0-8.34","true","35","3.049999999999999","","",""
"2920","5","confid","","","html-slider-response","295","321694","0.0-4.0-10.34-0.34","","","","Rate your confidence","1",""
"638","e","choice","left","e","experimental","302","324126","0.0-4.0-8.35","true","36","3.049999999999999","","",""
"5515","2","confid","","","html-slider-response","304","330148","0.0-4.0-10.35-0.35","","","","Rate your confidence","1",""
"297","i","choice","right","i","experimental","311","332238","0.0-4.0-8.36","true","37","2.949999999999999","","",""
"2921","6","confid","","","html-slider-response","313","335669","0.0-4.0-10.36-0.36","","","","Rate your confidence","1",""
"440","e","choice","left","e","experimental","320","337904","0.0-4.0-8.37","true","38","2.949999999999999","","",""
"3972.000000000058","6","confid","","","html-slider-response","322","342382","0.0-4.0-10.37-0.37","","","","Rate your confidence","1",""
"724.0000000000582","i","choice","right","i","experimental","329","344907","0.0-4.0-8.38","true","39","2.8499999999999988","","",""
"2835.000000000058","4","confid","","","html-slider-response","331","348254","0.0-4.0-10.38-0.38","","","","Rate your confidence","1",""
"5672","e","choice","left","e","experimental","338","355719","0.0-4.0-8.39","true","40","2.8499999999999988","","",""
"4920","1","confid","","","html-slider-response","340","361146","0.0-4.0-10.39-0.39","","","","Rate your confidence","1",""
"879","e","choice","right","i","experimental","347","363821","0.0-4.0-8.40","false","41","2.7499999999999987","","",""
"4169","6","confid","","","html-slider-response","349","368495","0.0-4.0-10.40-0.40","","","","Rate your confidence","1",""
"2691","e","choice","left","e","experimental","356","372976","0.0-4.0-8.41","true","42","2.8499999999999988","","",""
"2552.000000000058","3","confid","","","html-slider-response","358","376037","0.0-4.0-10.41-0.41","","","","Rate your confidence","1",""
"1000","i","choice","right","i","experimental","365","378830","0.0-4.0-8.42","true","43","2.8499999999999988","","",""
"3068","5","confid","","","html-slider-response","367","382405","0.0-4.0-10.42-0.42","","","","Rate your confidence","1",""
"1169","e","choice","left","e","experimental","374","385369","0.0-4.0-8.43","true","44","2.7499999999999987","","",""
"6023","6","confid","","","html-slider-response","376","391901","0.0-4.0-10.43-0.43","","","","Rate your confidence","1",""
"1925.9999999999418","e","choice","left","e","experimental","383","395620","0.0-4.0-8.44","true","45","2.7499999999999987","","",""
"2897","1","confid","","","html-slider-response","385","399024","0.0-4.0-10.44-0.44","","","","Rate your confidence","1",""
"1619.0000000000582","i","choice","right","i","experimental","392","402435","0.0-4.0-8.45","true","46","2.6499999999999986","","",""
"2894","6","confid","","","html-slider-response","394","405835","0.0-4.0-10.45-0.45","","","","Rate your confidence","1",""
"1881","i","choice","right","i","experimental","401","409509","0.0-4.0-8.46","true","47","2.6499999999999986","","",""
"2171.9999999998836","1","confid","","","html-slider-response","403","412187","0.0-4.0-10.46-0.46","","","","Rate your confidence","1",""
"1653","e","choice","left","e","experimental","410","415638","0.0-4.0-8.47","true","48","2.5499999999999985","","",""
"2880","4","confid","","","html-slider-response","412","419026","0.0-4.0-10.47-0.47","","","","Rate your confidence","1",""
"753","e","choice","right","i","experimental","419","421574","0.0-4.0-8.48","false","49","2.5499999999999985","","",""
"2881","6","confid","","","html-slider-response","421","424962","0.0-4.0-10.48-0.48","","","","Rate your confidence","1",""
"1967.9999999998836","i","choice","left","e","experimental","428","428729","0.0-4.0-8.49","false","50","2.6499999999999986","","",""
"1625","1","confid","","","html-slider-response","430","430859","0.0-4.0-10.49-0.49","","","","Rate your confidence","1",""
"859","i","choice","right","i","experimental","437","433512","0.0-4.0-8.50","true","51","2.7499999999999987","","",""
"2343","4","confid","","","html-slider-response","439","436360","0.0-4.0-10.50-0.50","","","","Rate your confidence","1",""
"1640","e","choice","left","e","experimental","446","439795","0.0-4.0-8.51","true","52","2.7499999999999987","","",""
"3096","2","confid","","","html-slider-response","448","443398","0.0-4.0-10.51-0.51","","","","Rate your confidence","1",""
"1807","i","choice","right","i","experimental","455","447001","0.0-4.0-8.52","true","53","2.6499999999999986","","",""
"2429","4","confid","","","html-slider-response","457","449938","0.0-4.0-10.52-0.52","","","","Rate your confidence","1",""
"1450","e","choice","left","e","experimental","464","453181","0.0-4.0-8.53","true","54","2.6499999999999986","","",""
"3532.9999999998836","6","confid","","","html-slider-response","466","457223","0.0-4.0-10.53-0.53","","","","Rate your confidence","1",""
"1092","i","choice","left","e","experimental","473","460108","0.0-4.0-8.54","false","55","2.5499999999999985","","",""
"2865","5","confid","","","html-slider-response","475","463479","0.0-4.0-10.54-0.54","","","","Rate your confidence","1",""
"1363","i","choice","right","i","experimental","482","466636","0.0-4.0-8.55","true","56","2.6499999999999986","","",""
"2987","5","confid","","","html-slider-response","484","470128","0.0-4.0-10.55-0.55","","","","Rate your confidence","1",""
"924","e","choice","left","e","experimental","491","472851","0.0-4.0-8.56","true","57","2.6499999999999986","","",""
"3183","6","confid","","","html-slider-response","493","476540","0.0-4.0-10.56-0.56","","","","Rate your confidence","1",""
"823","e","choice","right","i","experimental","500","479160","0.0-4.0-8.57","false","58","2.5499999999999985","","",""
"3548","6","confid","","","html-slider-response","502","483214","0.0-4.0-10.57-0.57","","","","Rate your confidence","1",""
"1112","e","choice","left","e","experimental","509","486120","0.0-4.0-8.58","true","59","2.6499999999999986","","",""
"2967","6","confid","","","html-slider-response","511","489594","0.0-4.0-10.58-0.58","","","","Rate your confidence","1",""
"870","e","choice","right","i","experimental","518","492261","0.0-4.0-8.59","false","60","2.6499999999999986","","",""
"2368","2","confid","","","html-slider-response","520","495137","0.0-4.0-10.59-0.59","","","","Rate your confidence","1",""
"1210.0000000001164","e","choice","left","e","experimental","527","498139","0.0-4.0-8.60","true","61","2.7499999999999987","","",""
"2898","6","confid","","","html-slider-response","529","501546","0.0-4.0-10.60-0.60","","","","Rate your confidence","1",""
"1027.0000000001164","i","choice","right","i","experimental","536","504365","0.0-4.0-8.61","true","62","2.7499999999999987","","",""
"4649","6","confid","","","html-slider-response","538","509519","0.0-4.0-10.61-0.61","","","","Rate your confidence","1",""
"1207","i","choice","right","i","experimental","545","512521","0.0-4.0-8.62","true","63","2.6499999999999986","","",""
"3507","6","confid","","","html-slider-response","547","516533","0.0-4.0-10.62-0.62","","","","Rate your confidence","1",""
"1470","e","choice","left","e","experimental","554","519795","0.0-4.0-8.63","true","64","2.6499999999999986","","",""
"3188.0000000001164","3","confid","","","html-slider-response","556","523490","0.0-4.0-10.63-0.63","","","","Rate your confidence","1",""
"1192","i","choice","right","i","experimental","563","526476","0.0-4.0-8.64","true","65","2.5499999999999985","","",""
"2201","5","confid","","","html-slider-response","565","529186","0.0-4.0-10.64-0.64","","","","Rate your confidence","1",""
"1569","i","choice","left","e","experimental","572","532553","0.0-4.0-8.65","false","66","2.5499999999999985","","",""
"2346","4","confid","","","html-slider-response","574","535405","0.0-4.0-10.65-0.65","","","","Rate your confidence","1",""
"1124.0000000001164","i","choice","right","i","experimental","581","538323","0.0-4.0-8.66","true","67","2.6499999999999986","","",""
"2732","5","confid","","","html-slider-response","583","541561","0.0-4.0-10.66-0.66","","","","Rate your confidence","1",""
"1359","i","choice","left","e","experimental","590","544714","0.0-4.0-8.67","false","68","2.6499999999999986","","",""
"3060","4","confid","","","html-slider-response","592","548283","0.0-4.0-10.67-0.67","","","","Rate your confidence","1",""
"638","i","choice","left","e","experimental","600","629197","0.0-4.0-8.68","false","69","2.7499999999999987","","",""
"2790","6","confid","","","html-slider-response","602","632494","0.0-4.0-10.68-0.68","","","","Rate your confidence","1",""
"696","i","choice","right","i","experimental","609","634984","0.0-4.0-8.69","true","70","2.8499999999999988","","",""
"3067","6","confid","","","html-slider-response","611","638557","0.0-4.0-10.69-0.69","","","","Rate your confidence","1",""
"650","i","choice","right","i","experimental","618","640997","0.0-4.0-8.70","true","71","2.8499999999999988","","",""
"2523","6","confid","","","html-slider-response","620","644025","0.0-4.0-10.70-0.70","","","","Rate your confidence","1",""
"1554.0000000001164","e","choice","left","e","experimental","627","647374","0.0-4.0-8.71","true","72","2.7499999999999987","","",""
"2502","4","confid","","","html-slider-response","629","650382","0.0-4.0-10.71-0.71","","","","Rate your confidence","1",""
"531","i","choice","right","i","experimental","636","652718","0.0-4.0-8.72","true","73","2.7499999999999987","","",""
"2496","6","confid","","","html-slider-response","638","655722","0.0-4.0-10.72-0.72","","","","Rate your confidence","1",""
"617","i","choice","left","e","experimental","645","658139","0.0-4.0-8.73","false","74","2.6499999999999986","","",""
"2650","6","confid","","","html-slider-response","647","661294","0.0-4.0-10.73-0.73","","","","Rate your confidence","1",""
"615.9999999998836","i","choice","left","e","experimental","654","663707","0.0-4.0-8.74","false","75","2.7499999999999987","","",""
"2891","6","confid","","","html-slider-response","656","667101","0.0-4.0-10.74-0.74","","","","Rate your confidence","1",""
"534.0000000001164","i","choice","right","i","experimental","663","669431","0.0-4.0-8.75","true","76","2.8499999999999988","","",""
"4125","6","confid","","","html-slider-response","665","674063","0.0-4.0-10.75-0.75","","","","Rate your confidence","1",""
"2106","i","choice","left","e","experimental","672","677964","0.0-4.0-8.76","false","77","2.8499999999999988","","",""
"2997","2","confid","","","html-slider-response","674","681465","0.0-4.0-10.76-0.76","","","","Rate your confidence","1",""
"388.0000000001164","i","choice","right","i","experimental","681","683648","0.0-4.0-8.77","true","78","2.949999999999999","","",""
"3918","6","confid","","","html-slider-response","683","688071","0.0-4.0-10.77-0.77","","","","Rate your confidence","1",""
"544","i","choice","right","i","experimental","690","690411","0.0-4.0-8.78","true","79","2.949999999999999","","",""
"3118","6","confid","","","html-slider-response","692","694036","0.0-4.0-10.78-0.78","","","","Rate your confidence","1",""
"669.9999999998836","i","choice","left","e","experimental","699","696498","0.0-4.0-8.79","false","80","2.8499999999999988","","",""
"3435","4","confid","","","html-slider-response","701","700439","0.0-4.0-10.79-0.79","","","","Rate your confidence","1",""
"1276","i","choice","left","e","experimental","708","703515","0.0-4.0-8.80","false","81","2.949999999999999","","",""
"2166","3","confid","","","html-slider-response","710","706189","0.0-4.0-10.80-0.80","","","","Rate your confidence","1",""
"2171","i","choice","right","i","experimental","717","710153","0.0-4.0-8.81","true","82","3.049999999999999","","",""
"3398","3","confid","","","html-slider-response","719","714057","0.0-4.0-10.81-0.81","","","","Rate your confidence","1",""
"652","i","choice","right","i","experimental","726","716502","0.0-4.0-8.82","true","83","3.049999999999999","","",""
"3664","4","confid","","","html-slider-response","728","720672","0.0-4.0-10.82-0.82","","","","Rate your confidence","1",""
"805","e","choice","left","e","experimental","735","723273","0.0-4.0-8.83","true","84","2.949999999999999","","",""
"2261","5","confid","","","html-slider-response","737","726039","0.0-4.0-10.83-0.83","","","","Rate your confidence","1",""
"1248","e","choice","left","e","experimental","744","729078","0.0-4.0-8.84","true","85","2.949999999999999","","",""
"2148","4","confid","","","html-slider-response","746","731733","0.0-4.0-10.84-0.84","","","","Rate your confidence","1",""
"1576","i","choice","right","i","experimental","753","735103","0.0-4.0-8.85","true","86","2.8499999999999988","","",""
"2310","1","confid","","","html-slider-response","755","737921","0.0-4.0-10.85-0.85","","","","Rate your confidence","1",""
"951","e","choice","left","e","experimental","762","740666","0.0-4.0-8.86","true","87","2.8499999999999988","","",""
"3356","3","confid","","","html-slider-response","764","744528","0.0-4.0-10.86-0.86","","","","Rate your confidence","1",""
"644.9999999998836","i","choice","right","i","experimental","771","746968","0.0-4.0-8.87","true","88","2.7499999999999987","","",""
"2337","4","confid","","","html-slider-response","773","749810","0.0-4.0-10.87-0.87","","","","Rate your confidence","1",""
"2519","e","choice","left","e","experimental","780","754123","0.0-4.0-8.88","true","89","2.7499999999999987","","",""
"2414","2","confid","","","html-slider-response","782","757047","0.0-4.0-10.88-0.88","","","","Rate your confidence","1",""
"638.9999999998836","i","choice","right","i","experimental","789","759481","0.0-4.0-8.89","true","90","2.6499999999999986","","",""
"1688","6","confid","","","html-slider-response","791","761678","0.0-4.0-10.89-0.89","","","","Rate your confidence","1",""
"1694","e","choice","left","e","experimental","798","765163","0.0-4.0-8.90","true","91","2.6499999999999986","","",""
"1787","6","confid","","","html-slider-response","800","767455","0.0-4.0-10.90-0.90","","","","Rate your confidence","1",""
"971","e","choice","right","i","experimental","807","770222","0.0-4.0-8.91","false","92","2.5499999999999985","","",""
"4548","3","confid","","","html-slider-response","809","775276","0.0-4.0-10.91-0.91","","","","Rate your confidence","1",""
"847","i","choice","right","i","experimental","816","777918","0.0-4.0-8.92","true","93","2.6499999999999986","","",""
"2135","6","confid","","","html-slider-response","818","780560","0.0-4.0-10.92-0.92","","","","Rate your confidence","1",""
"957","e","choice","left","e","experimental","825","783312","0.0-4.0-8.93","true","94","2.6499999999999986","","",""
"2315.0000000001164","4","confid","","","html-slider-response","827","786132","0.0-4.0-10.93-0.93","","","","Rate your confidence","1",""
"1628","i","choice","left","e","experimental","834","789556","0.0-4.0-8.94","false","95","2.5499999999999985","","",""
"2250","3","confid","","","html-slider-response","836","792313","0.0-4.0-10.94-0.94","","","","Rate your confidence","1",""
"921","e","choice","right","i","experimental","843","795032","0.0-4.0-8.95","false","96","2.6499999999999986","","",""
"2194","3","confid","","","html-slider-response","845","797737","0.0-4.0-10.95-0.95","","","","Rate your confidence","1",""
"10096","i","choice","right","i","experimental","852","809626","0.0-4.0-8.96","true","97","2.7499999999999987","","",""
"2882","6","confid","","","html-slider-response","854","813015","0.0-4.0-10.96-0.96","","","","Rate your confidence","1",""
"2276.9999999998836","e","choice","left","e","experimental","861","817087","0.0-4.0-8.97","true","98","2.7499999999999987","","",""
"2158","4","confid","","","html-slider-response","863","819756","0.0-4.0-10.97-0.97","","","","Rate your confidence","1",""
"677.0000000001164","i","choice","left","e","experimental","870","822229","0.0-4.0-8.98","false","99","2.6499999999999986","","",""
"1502.9999999998836","4","confid","","","html-slider-response","872","824237","0.0-4.0-10.98-0.98","","","","Rate your confidence","1",""
"1125","e","choice","right","i","experimental","879","827152","0.0-4.0-8.99","false","100","2.7499999999999987","","",""
"3539","2","confid","","","html-slider-response","881","831199","0.0-4.0-10.99-0.99","","","","Rate your confidence","1",""
"3110","e","choice","left","e","experimental","888","836106","0.0-4.0-8.100","true","101","2.8499999999999988","","",""
"3210","2","confid","","","html-slider-response","890","839823","0.0-4.0-10.100-0.100","","","","Rate your confidence","1",""
"1623.0000000001164","i","choice","right","i","experimental","897","843243","0.0-4.0-8.101","true","102","2.8499999999999988","","",""
"2796.0000000001164","1","confid","","","html-slider-response","899","846546","0.0-4.0-10.101-0.101","","","","Rate your confidence","1",""
"989","i","choice","left","e","experimental","906","849329","0.0-4.0-8.102","false","103","2.7499999999999987","","",""
"1774","4","confid","","","html-slider-response","908","851613","0.0-4.0-10.102-0.102","","","","Rate your confidence","1",""
"970","i","choice","right","i","experimental","915","854380","0.0-4.0-8.103","true","104","2.8499999999999988","","",""
"1574.0000000001164","3","confid","","","html-slider-response","917","856461","0.0-4.0-10.103-0.103","","","","Rate your confidence","1",""
"633","e","choice","left","e","experimental","924","858890","0.0-4.0-8.104","true","105","2.8499999999999988","","",""
"1635.9999999998836","4","confid","","","html-slider-response","926","861034","0.0-4.0-10.104-0.104","","","","Rate your confidence","1",""
"899","e","choice","right","i","experimental","933","863725","0.0-4.0-8.105","false","106","2.7499999999999987","","",""
"1625.9999999998836","4","confid","","","html-slider-response","935","865856","0.0-4.0-10.105-0.105","","","","Rate your confidence","1",""
"761","e","choice","left","e","experimental","942","868415","0.0-4.0-8.106","true","107","2.8499999999999988","","",""
"1620","4","confid","","","html-slider-response","944","870544","0.0-4.0-10.106-0.106","","","","Rate your confidence","1",""
"807","i","choice","right","i","experimental","951","873143","0.0-4.0-8.107","true","108","2.8499999999999988","","",""
"1294","5","confid","","","html-slider-response","953","874943","0.0-4.0-10.107-0.107","","","","Rate your confidence","1",""
"574.9999999998836","e","choice","left","e","experimental","960","877310","0.0-4.0-8.108","true","109","2.7499999999999987","","",""
"2245","4","confid","","","html-slider-response","962","880061","0.0-4.0-10.108-0.108","","","","Rate your confidence","1",""
"696","e","choice","right","i","experimental","969","882559","0.0-4.0-8.109","false","110","2.7499999999999987","","",""
"2896.0000000001164","4","confid","","","html-slider-response","971","885962","0.0-4.0-10.109-0.109","","","","Rate your confidence","1",""
"586","i","choice","left","e","experimental","979","1050235","0.0-4.0-8.110","false","111","2.8499999999999988","","",""
"2248.999999999767","6","confid","","","html-slider-response","981","1052994","0.0-4.0-10.110-0.110","","","","Rate your confidence","1",""
"555","i","choice","right","i","experimental","988","1055343","0.0-4.0-8.111","true","112","2.949999999999999","","",""
"3392","6","confid","","","html-slider-response","990","1059247","0.0-4.0-10.111-0.111","","","","Rate your confidence","1",""
"754","e","choice","left","e","experimental","997","1061797","0.0-4.0-8.112","true","113","2.949999999999999","","",""
"1920.0000000002328","4","confid","","","html-slider-response","999","1064228","0.0-4.0-10.112-0.112","","","","Rate your confidence","1",""
"878","i","choice","right","i","experimental","1006","1066901","0.0-4.0-8.113","true","114","2.8499999999999988","","",""
"2486.999999999767","3","confid","","","html-slider-response","1008","1069896","0.0-4.0-10.113-0.113","","","","Rate your confidence","1",""
"862","i","choice","right","i","experimental","1015","1072555","0.0-4.0-8.114","true","115","2.8499999999999988","","",""
"1737","4","confid","","","html-slider-response","1017","1074800","0.0-4.0-10.114-0.114","","","","Rate your confidence","1",""
"119","e","choice","left","e","experimental","1024","1076716","0.0-4.0-8.115","true","116","2.7499999999999987","","",""
"2541","4","confid","","","html-slider-response","1026","1079764","0.0-4.0-10.115-0.115","","","","Rate your confidence","1",""
"590","i","choice","right","i","experimental","1033","1082151","0.0-4.0-8.116","true","117","2.7499999999999987","","",""
"2775","3","confid","","","html-slider-response","1035","1085436","0.0-4.0-10.116-0.116","","","","Rate your confidence","1",""
"503","i","choice","left","e","experimental","1042","1087735","0.0-4.0-8.117","false","118","2.6499999999999986","","",""
"2616","4","confid","","","html-slider-response","1044","1090856","0.0-4.0-10.117-0.117","","","","Rate your confidence","1",""
"788","i","choice","left","e","experimental","1051","1093439","0.0-4.0-8.118","false","119","2.7499999999999987","","",""
"2606","5","confid","","","html-slider-response","1053","1096555","0.0-4.0-10.118-0.118","","","","Rate your confidence","1",""
"790","i","choice","right","i","experimental","1060","1099143","0.0-4.0-8.119","true","120","2.8499999999999988","","",""
"2505","4","confid","","","html-slider-response","1062","1102158","0.0-4.0-10.119-0.119","","","","Rate your confidence","1",""
"274","e","choice","left","e","experimental","1069","1104233","0.0-4.0-8.120","true","121","2.8499999999999988","","",""
"1895","4","confid","","","html-slider-response","1071","1106638","0.0-4.0-10.120-0.120","","","","Rate your confidence","1",""
"815","i","choice","right","i","experimental","1078","1109246","0.0-4.0-8.121","true","122","2.7499999999999987","","",""
"2099","2","confid","","","html-slider-response","1080","1111852","0.0-4.0-10.121-0.121","","","","Rate your confidence","1",""
"199","e","choice","left","e","experimental","1087","1113844","0.0-4.0-8.122","true","123","2.7499999999999987","","",""
"2012.9999999997672","3","confid","","","html-slider-response","1089","1116366","0.0-4.0-10.122-0.122","","","","Rate your confidence","1",""
"342","e","choice","right","i","experimental","1096","1118498","0.0-4.0-8.123","false","124","2.6499999999999986","","",""
"1653","4","confid","","","html-slider-response","1098","1120657","0.0-4.0-10.123-0.123","","","","Rate your confidence","1",""
"420","e","choice","left","e","experimental","1105","1122861","0.0-4.0-8.124","true","125","2.7499999999999987","","",""
"1519","5","confid","","","html-slider-response","1107","1124885","0.0-4.0-10.124-0.124","","","","Rate your confidence","1",""
"296","e","choice","right","i","experimental","1114","1126969","0.0-4.0-8.125","false","126","2.7499999999999987","","",""
"2040.0000000002328","5","confid","","","html-slider-response","1116","1129514","0.0-4.0-10.125-0.125","","","","Rate your confidence","1",""
"298.99999999976717","e","choice","right","i","experimental","1123","1131611","0.0-4.0-8.126","false","127","2.8499999999999988","","",""
"2619","4","confid","","","html-slider-response","1125","1134736","0.0-4.0-10.126-0.126","","","","Rate your confidence","1",""
"386","e","choice","left","e","experimental","1132","1136917","0.0-4.0-8.127","true","128","2.949999999999999","","",""
"2189","4","confid","","","html-slider-response","1134","1139613","0.0-4.0-10.127-0.127","","","","Rate your confidence","1",""
"413","e","choice","left","e","experimental","1141","1141819","0.0-4.0-8.128","true","129","2.949999999999999","","",""
"1611","4","confid","","","html-slider-response","1143","1143936","0.0-4.0-10.128-0.128","","","","Rate your confidence","1",""
"738.9999999997672","i","choice","right","i","experimental","1150","1146455","0.0-4.0-8.129","true","130","2.8499999999999988","","",""
"1982","2","confid","","","html-slider-response","1152","1148942","0.0-4.0-10.129-0.129","","","","Rate your confidence","1",""
"648","i","choice","right","i","experimental","1159","1151376","0.0-4.0-8.130","true","131","2.8499999999999988","","",""
"1810","4","confid","","","html-slider-response","1161","1153693","0.0-4.0-10.130-0.130","","","","Rate your confidence","1",""
"294","e","choice","left","e","experimental","1168","1155772","0.0-4.0-8.131","true","132","2.7499999999999987","","",""
"1419","6","confid","","","html-slider-response","1170","1157697","0.0-4.0-10.131-0.131","","","","Rate your confidence","1",""
"812","e","choice","left","e","experimental","1177","1160302","0.0-4.0-8.132","true","133","2.7499999999999987","","",""
"3571","1","confid","","","html-slider-response","1179","1164381","0.0-4.0-10.132-0.132","","","","Rate your confidence","1",""
"688","i","choice","right","i","experimental","1186","1166859","0.0-4.0-8.133","true","134","2.6499999999999986","","",""
"3612","3","confid","","","html-slider-response","1188","1170979","0.0-4.0-10.133-0.133","","","","Rate your confidence","1",""
"632","i","choice","right","i","experimental","1195","1173399","0.0-4.0-8.134","true","135","2.6499999999999986","","",""
"2452","6","confid","","","html-slider-response","1197","1176356","0.0-4.0-10.134-0.134","","","","Rate your confidence","1",""
"771","e","choice","left","e","experimental","1204","1178913","0.0-4.0-8.135","true","136","2.5499999999999985","","",""
"2331.999999999767","6","confid","","","html-slider-response","1206","1181752","0.0-4.0-10.135-0.135","","","","Rate your confidence","1",""
"699","e","choice","left","e","experimental","1213","1184242","0.0-4.0-8.136","true","137","2.5499999999999985","","",""
"1840","5","confid","","","html-slider-response","1215","1186590","0.0-4.0-10.136-0.136","","","","Rate your confidence","1",""
"528","i","choice","right","i","experimental","1222","1188910","0.0-4.0-8.137","true","138","2.4499999999999984","","",""
"1781","4","confid","","","html-slider-response","1224","1191198","0.0-4.0-10.137-0.137","","","","Rate your confidence","1",""
"518.0000000002328","e","choice","left","e","experimental","1231","1193507","0.0-4.0-8.138","true","139","2.4499999999999984","","",""
"1478","4","confid","","","html-slider-response","1233","1195492","0.0-4.0-10.138-0.138","","","","Rate your confidence","1",""
"916.9999999997672","e","choice","right","i","experimental","1240","1198202","0.0-4.0-8.139","false","140","2.3499999999999983","","",""
"1316.9999999997672","3","confid","","","html-slider-response","1242","1200025","0.0-4.0-10.139-0.139","","","","Rate your confidence","1",""
"565","e","choice","right","i","experimental","1249","1202384","0.0-4.0-8.140","false","141","2.4499999999999984","","",""
"1473","4","confid","","","html-slider-response","1251","1204365","0.0-4.0-10.140-0.140","","","","Rate your confidence","1",""
"755","e","choice","left","e","experimental","1258","1206912","0.0-4.0-8.141","true","142","2.5499999999999985","","",""
"2201","6","confid","","","html-slider-response","1260","1209619","0.0-4.0-10.141-0.141","","","","Rate your confidence","1",""
"1052","i","choice","right","i","experimental","1267","1212465","0.0-4.0-8.142","true","143","2.5499999999999985","","",""
"3037","1","confid","","","html-slider-response","1269","1216009","0.0-4.0-10.142-0.142","","","","Rate your confidence","1",""
"687.0000000002328","i","choice","left","e","experimental","1276","1218488","0.0-4.0-8.143","false","144","2.4499999999999984","","",""
"2948","1","confid","","","html-slider-response","1278","1221943","0.0-4.0-10.143-0.143","","","","Rate your confidence","1",""
"911","i","choice","left","e","experimental","1285","1224655","0.0-4.0-8.144","false","145","2.5499999999999985","","",""
"2814","1","confid","","","html-slider-response","1287","1227976","0.0-4.0-10.144-0.144","","","","Rate your confidence","1",""
"1610","e","choice","right","i","experimental","1294","1231381","0.0-4.0-8.145","false","146","2.6499999999999986","","",""
"2419","2","confid","","","html-slider-response","1296","1234305","0.0-4.0-10.145-0.145","","","","Rate your confidence","1",""
"1633","e","choice","right","i","experimental","1303","1237734","0.0-4.0-8.146","false","147","2.7499999999999987","","",""
"1760","1","confid","","","html-slider-response","1305","1240002","0.0-4.0-10.146-0.146","","","","Rate your confidence","1",""
"987","e","choice","left","e","experimental","1312","1242780","0.0-4.0-8.147","true","148","2.8499999999999988","","",""
"1548","5","confid","","","html-slider-response","1314","1244839","0.0-4.0-10.147-0.147","","","","Rate your confidence","1",""
"611","e","choice","left","e","experimental","1321","1247241","0.0-4.0-8.148","true","149","2.8499999999999988","","",""
"1432","1","confid","","","html-slider-response","1323","1249183","0.0-4.0-10.148-0.148","","","","Rate your confidence","1",""
"602","i","choice","right","i","experimental","1330","1251576","0.0-4.0-8.149","true","150","2.7499999999999987","","",""
"1624","6","confid","","","html-slider-response","1332","1253707","0.0-4.0-10.149-0.149","","","","Rate your confidence","1",""
"374.00000000023283","e","choice","left","e","experimental","1339","1255873","0.0-4.0-8.150","true","151","2.7499999999999987","","",""
"1453","3","confid","","","html-slider-response","1341","1257833","0.0-4.0-10.150-0.150","","","","Rate your confidence","1",""
"810.0000000002328","i","choice","right","i","experimental","1348","1260432","0.0-4.0-8.151","true","152","2.6499999999999986","","",""
"1549","5","confid","","","html-slider-response","1350","1262488","0.0-4.0-10.151-0.151","","","","Rate your confidence","1",""
"913","i","choice","left","e","experimental","1358","1327871","0.0-4.0-8.152","false","153","2.6499999999999986","","",""
"1921","1","confid","","","html-slider-response","1360","1330298","0.0-4.0-10.152-0.152","","","","Rate your confidence","1",""
"735","i","choice","right","i","experimental","1367","1332825","0.0-4.0-8.153","true","154","2.7499999999999987","","",""
"3127","4","confid","","","html-slider-response","1369","1336458","0.0-4.0-10.153-0.153","","","","Rate your confidence","1",""
"1653","e","choice","left","e","experimental","1376","1339904","0.0-4.0-8.154","true","155","2.7499999999999987","","",""
"1796","4","confid","","","html-slider-response","1378","1342207","0.0-4.0-10.154-0.154","","","","Rate your confidence","1",""
"667.9999999997672","e","choice","right","i","experimental","1385","1344669","0.0-4.0-8.155","false","156","2.6499999999999986","","",""
"2329","4","confid","","","html-slider-response","1387","1347506","0.0-4.0-10.155-0.155","","","","Rate your confidence","1",""
"1434.9999999997672","e","choice","left","e","experimental","1394","1350734","0.0-4.0-8.156","true","157","2.7499999999999987","","",""
"2197.999999999767","2","confid","","","html-slider-response","1396","1353440","0.0-4.0-10.156-0.156","","","","Rate your confidence","1",""
"708","i","choice","right","i","experimental","1403","1355942","0.0-4.0-8.157","true","158","2.7499999999999987","","",""
"1458","6","confid","","","html-slider-response","1405","1357907","0.0-4.0-10.157-0.157","","","","Rate your confidence","1",""
"969","e","choice","left","e","experimental","1412","1360667","0.0-4.0-8.158","true","159","2.6499999999999986","","",""
"2370","1","confid","","","html-slider-response","1414","1363543","0.0-4.0-10.158-0.158","","","","Rate your confidence","1",""
"558","i","choice","right","i","experimental","1421","1365893","0.0-4.0-8.159","true","160","2.6499999999999986","","",""
"3073","5","confid","","","html-slider-response","1423","1369472","0.0-4.0-10.159-0.159","","","","Rate your confidence","1",""
"1269.9999999997672","i","choice","left","e","experimental","1430","1372532","0.0-4.0-8.160","false","161","2.5499999999999985","","",""
"1452","3","confid","","","html-slider-response","1432","1374491","0.0-4.0-10.160-0.160","","","","Rate your confidence","1",""
"679","e","choice","right","i","experimental","1439","1376962","0.0-4.0-8.161","false","162","2.6499999999999986","","",""
"1689","4","confid","","","html-slider-response","1441","1379156","0.0-4.0-10.161-0.161","","","","Rate your confidence","1",""
"481","e","choice","left","e","experimental","1448","1381430","0.0-4.0-8.162","true","163","2.7499999999999987","","",""
"2347","5","confid","","","html-slider-response","1450","1384287","0.0-4.0-10.162-0.162","","","","Rate your confidence","1",""
"567.9999999997672","e","choice","right","i","experimental","1457","1386648","0.0-4.0-8.163","false","164","2.7499999999999987","","",""
"1353","5","confid","","","html-slider-response","1459","1388508","0.0-4.0-10.163-0.163","","","","Rate your confidence","1",""
"610.9999999997672","e","choice","left","e","experimental","1466","1390912","0.0-4.0-8.164","true","165","2.8499999999999988","","",""
"1665","6","confid","","","html-slider-response","1468","1393087","0.0-4.0-10.164-0.164","","","","Rate your confidence","1",""
"436","i","choice","right","i","experimental","1475","1395313","0.0-4.0-8.165","true","166","2.8499999999999988","","",""
"2212","6","confid","","","html-slider-response","1477","1398033","0.0-4.0-10.165-0.165","","","","Rate your confidence","1",""
"1380","e","choice","right","i","experimental","1484","1401203","0.0-4.0-8.166","false","167","2.7499999999999987","","",""
"1524","1","confid","","","html-slider-response","1486","1403234","0.0-4.0-10.166-0.166","","","","Rate your confidence","1",""
"2213","i","choice","left","e","experimental","1493","1407239","0.0-4.0-8.167","false","168","2.8499999999999988","","",""
"1933","4","confid","","","html-slider-response","1495","1409678","0.0-4.0-10.167-0.167","","","","Rate your confidence","1",""
"1271.9999999997672","i","choice","left","e","experimental","1502","1412737","0.0-4.0-8.168","false","169","2.949999999999999","","",""
"3248","5","confid","","","html-slider-response","1504","1416492","0.0-4.0-10.168-0.168","","","","Rate your confidence","1",""
"1201","i","choice","right","i","experimental","1511","1419488","0.0-4.0-8.169","true","170","3.049999999999999","","",""
"2097","6","confid","","","html-slider-response","1513","1422093","0.0-4.0-10.169-0.169","","","","Rate your confidence","1",""
"607","e","choice","left","e","experimental","1520","1424489","0.0-4.0-8.170","true","171","3.049999999999999","","",""
"1796.0000000002328","4","confid","","","html-slider-response","1522","1426792","0.0-4.0-10.170-0.170","","","","Rate your confidence","1",""
"476.00000000023283","i","choice","right","i","experimental","1529","1429061","0.0-4.0-8.171","true","172","2.949999999999999","","",""
"3122","5","confid","","","html-slider-response","1531","1432688","0.0-4.0-10.171-0.171","","","","Rate your confidence","1",""
"285","i","choice","right","i","experimental","1538","1434766","0.0-4.0-8.172","true","173","2.949999999999999","","",""
"1484","6","confid","","","html-slider-response","1540","1436757","0.0-4.0-10.172-0.172","","","","Rate your confidence","1",""
"398","i","choice","left","e","experimental","1547","1438947","0.0-4.0-8.173","false","174","2.8499999999999988","","",""
"2509","6","confid","","","html-slider-response","1549","1441962","0.0-4.0-10.173-0.173","","","","Rate your confidence","1",""
"439","e","choice","left","e","experimental","1556","1444194","0.0-4.0-8.174","true","175","2.949999999999999","","",""
"2098","6","confid","","","html-slider-response","1558","1446799","0.0-4.0-10.174-0.174","","","","Rate your confidence","1",""
"297","i","choice","right","i","experimental","1565","1448882","0.0-4.0-8.175","true","176","2.949999999999999","","",""
"3076.999999999767","6","confid","","","html-slider-response","1567","1452467","0.0-4.0-10.175-0.175","","","","Rate your confidence","1",""
"759","e","choice","left","e","experimental","1574","1455018","0.0-4.0-8.176","true","177","2.8499999999999988","","",""
"2266","4","confid","","","html-slider-response","1576","1457792","0.0-4.0-10.176-0.176","","","","Rate your confidence","1",""
"524","i","choice","right","i","experimental","1583","1460109","0.0-4.0-8.177","true","178","2.8499999999999988","","",""
"1740","5","confid","","","html-slider-response","1585","1462355","0.0-4.0-10.177-0.177","","","","Rate your confidence","1",""
"515.9999999997672","e","choice","left","e","experimental","1592","1464665","0.0-4.0-8.178","true","179","2.7499999999999987","","",""
"1601.0000000002328","5","confid","","","html-slider-response","1594","1466774","0.0-4.0-10.178-0.178","","","","Rate your confidence","1",""
"439","i","choice","right","i","experimental","1601","1469004","0.0-4.0-8.179","true","180","2.7499999999999987","","",""
"1674","5","confid","","","html-slider-response","1603","1471186","0.0-4.0-10.179-0.179","","","","Rate your confidence","1",""
"628","e","choice","left","e","experimental","1610","1473606","0.0-4.0-8.180","true","181","2.6499999999999986","","",""
"2634","5","confid","","","html-slider-response","1612","1476745","0.0-4.0-10.180-0.180","","","","Rate your confidence","1",""
"826","i","choice","right","i","experimental","1619","1479367","0.0-4.0-8.181","true","182","2.6499999999999986","","",""
"1901","1","confid","","","html-slider-response","1621","1481774","0.0-4.0-10.181-0.181","","","","Rate your confidence","1",""
"588.9999999997672","e","choice","left","e","experimental","1628","1484152","0.0-4.0-8.182","true","183","2.5499999999999985","","",""
"2223","5","confid","","","html-slider-response","1630","1486883","0.0-4.0-10.182-0.182","","","","Rate your confidence","1",""
"566","i","choice","right","i","experimental","1637","1489238","0.0-4.0-8.183","true","184","2.5499999999999985","","",""
"1700","5","confid","","","html-slider-response","1639","1491445","0.0-4.0-10.183-0.183","","","","Rate your confidence","1",""
"444.99999999976717","e","choice","left","e","experimental","1646","1493682","0.0-4.0-8.184","true","185","2.4499999999999984","","",""
"3076.000000000233","6","confid","","","html-slider-response","1648","1497266","0.0-4.0-10.184-0.184","","","","Rate your confidence","1",""
"552","e","choice","right","i","experimental","1655","1499610","0.0-4.0-8.185","false","186","2.4499999999999984","","",""
"2180.000000000233","4","confid","","","html-slider-response","1657","1502294","0.0-4.0-10.185-0.185","","","","Rate your confidence","1",""
"526.0000000002328","i","choice","left","e","experimental","1664","1504612","0.0-4.0-8.186","false","187","2.5499999999999985","","",""
"2283.999999999767","5","confid","","","html-slider-response","1666","1507406","0.0-4.0-10.186-0.186","","","","Rate your confidence","1",""
"690","i","choice","right","i","experimental","1673","1509885","0.0-4.0-8.187","true","188","2.6499999999999986","","",""
"1913","5","confid","","","html-slider-response","1675","1512305","0.0-4.0-10.187-0.187","","","","Rate your confidence","1",""
"526","e","choice","left","e","experimental","1682","1514621","0.0-4.0-8.188","true","189","2.6499999999999986","","",""
"1614","5","confid","","","html-slider-response","1684","1516741","0.0-4.0-10.188-0.188","","","","Rate your confidence","1",""
"608.0000000002328","i","choice","right","i","experimental","1691","1519140","0.0-4.0-8.189","true","190","2.5499999999999985","","",""
"1980","4","confid","","","html-slider-response","1693","1521627","0.0-4.0-10.189-0.189","","","","Rate your confidence","1",""
"908","e","choice","left","e","experimental","1700","1524321","0.0-4.0-8.190","true","191","2.5499999999999985","","",""
"1708.0000000002328","1","confid","","","html-slider-response","1702","1526536","0.0-4.0-10.190-0.190","","","","Rate your confidence","1",""
"1100.0000000002328","e","choice","right","i","experimental","1709","1529430","0.0-4.0-8.191","false","192","2.4499999999999984","","",""
"1500","1","confid","","","html-slider-response","1711","1531435","0.0-4.0-10.191-0.191","","","","Rate your confidence","1",""
"1792.0000000002328","i","choice","left","e","experimental","1718","1535016","0.0-4.0-8.192","false","193","2.5499999999999985","","",""
"1540","1","confid","","","html-slider-response","1720","1537063","0.0-4.0-10.192-0.192","","","","Rate your confidence","1",""
"948.9999999997672","e","choice","right","i","experimental","1727","1539802","0.0-4.0-8.193","false","194","2.6499999999999986","","",""
"1862","1","confid","","","html-slider-response","1729","1542172","0.0-4.0-10.193-0.193","","","","Rate your confidence","1","84245"
