"rt","response","task","target_side","correct_response","trial_type","trial_index","time_elapsed","internal_node_id","correct","trial_number","n_dots","stimulus","slider_start","participant"
"729.3999996185303","e","choice","left","e","practice","10","199364","0.0-4.0-8.0","true","1","4.25","","",""
"307.19999980926514","i","choice","right","i","practice","18","201951","0.0-4.0-8.1","true","2","4.25","","",""
"430.30000019073486","i","choice","right","i","practice","26","204657","0.0-4.0-8.2","true","3","3.85","","",""
"438.5999994277954","e","choice","left","e","practice","34","207372","0.0-4.0-8.3","true","4","3.85","","",""
"329.5","i","choice","right","i","practice","42","209980","0.0-4.0-8.4","true","5","3.45","","",""
"356.6000003814697","i","choice","left","e","practice","50","212613","0.0-4.0-8.5","false","6","3.45","","",""
"708.3999996185303","e","choice","left","e","practice","58","215600","0.0-4.0-8.6","true","7","3.6500000000000004","","",""
"1782.1000003814697","i","choice","right","i","practice","66","219656","0.0-4.0-8.7","true","8","3.6500000000000004","","",""
"277","i","choice","right","i","practice","74","222210","0.0-4.0-8.8","true","9","3.45","","",""
"1481.3999996185303","e","choice","left","e","practice","82","225980","0.0-4.0-8.9","true","10","3.45","","",""
"243.79999923706055","i","choice","right","i","practice","90","228515","0.0-4.0-8.10","true","11","3.25","","",""
"151.10000038146973","i","choice","left","e","practice","98","230977","0.0-4.0-8.11","false","12","3.25","","",""
"289.70000076293945","i","choice","left","e","practice","106","233575","0.0-4.0-8.12","false","13","3.35","","",""
"129.30000019073486","i","choice","right","i","practice","114","236024","0.0-4.0-8.13","true","14","3.45","","",""
"349.4000005722046","e","choice","left","e","practice","122","238675","0.0-4.0-8.14","true","15","3.45","","",""
"1338.8999996185303","i","choice","right","i","practice","130","242324","0.0-4.0-8.15","true","16","3.35","","",""
"729.3999996185303","e","choice","left","e","practice","138","245348","0.0-4.0-8.16","true","17","3.35","","",""
"504.1000003814697","e","choice","right","i","practice","146","248153","0.0-4.0-8.17","false","18","3.25","","",""
"104.90000057220459","e","choice","right","i","practice","154","250559","0.0-4.0-8.18","false","19","3.35","","",""
"258.6000003814697","e","choice","left","e","practice","162","253110","0.0-4.0-8.19","true","20","3.45","","",""
"527.5999994277954","i","choice","right","i","practice","170","255952","0.0-4.0-8.20","true","21","3.45","","",""
"415","e","choice","left","e","practice","178","258676","0.0-4.0-8.21","true","22","3.35","","",""
"193.69999980926514","i","choice","right","i","practice","186","261170","0.0-4.0-8.22","true","23","3.35","","",""
"38.30000019073486","e","choice","left","e","practice","194","263504","0.0-4.0-8.23","true","24","3.25","","",""
"279.79999923706055","i","choice","left","e","practice","202","266089","0.0-4.0-8.24","false","25","3.25","","",""
"51.79999923706055","i","choice","right","i","practice","210","268438","0.0-4.0-8.25","true","26","3.35","","",""
"822.1999998092651","e","choice","left","e","experimental","221","294822","0.0-4.0-8.26","true","27","3.35","","",""
"4642.099999427795","3","confid","","","html-slider-response","223","299972","0.0-4.0-10.26-0.26","","","","Rate your confidence","1",""
"320.4000005722046","i","choice","right","i","experimental","230","302107","0.0-4.0-8.27","true","28","3.25","","",""
"3050.6000003814697","4","confid","","","html-slider-response","232","305666","0.0-4.0-10.27-0.27","","","","Rate your confidence","1",""
"1244.9000005722046","i","choice","right","i","experimental","239","308708","0.0-4.0-8.28","true","29","3.25","","",""
"4423.5","3","confid","","","html-slider-response","241","313639","0.0-4.0-10.28-0.28","","","","Rate your confidence","1",""
"3436","e","choice","left","e","experimental","248","318884","0.0-4.0-8.29","true","30","3.15","","",""
"4387.299999237061","2","confid","","","html-slider-response","250","323776","0.0-4.0-10.29-0.29","","","","Rate your confidence","1",""
"898.7999992370605","e","choice","left","e","experimental","257","326485","0.0-4.0-8.30","true","31","3.15","","",""
"2691.7999992370605","4","confid","","","html-slider-response","259","329683","0.0-4.0-10.30-0.30","","","","Rate your confidence","1",""
"528.3999996185303","i","choice","right","i","experimental","266","332016","0.0-4.0-8.31","true","32","3.05","","",""
"3609.5999994277954","4","confid","","","html-slider-response","268","336132","0.0-4.0-10.31-0.31","","","","Rate your confidence","1",""
"733.5","i","choice","left","e","experimental","275","338668","0.0-4.0-8.32","false","33","3.05","","",""
"3274.2999992370605","3","confid","","","html-slider-response","277","342449","0.0-4.0-10.32-0.32","","","","Rate your confidence","1",""
"668.3999996185303","e","choice","right","i","experimental","284","344918","0.0-4.0-8.33","false","34","3.15","","",""
"4545.10000038147","2","confid","","","html-slider-response","286","349972","0.0-4.0-10.33-0.33","","","","Rate your confidence","1",""
"277.79999923706055","i","choice","right","i","experimental","293","352050","0.0-4.0-8.34","true","35","3.25","","",""
"2939.8999996185303","5","confid","","","html-slider-response","295","355505","0.0-4.0-10.34-0.34","","","","Rate your confidence","1",""
"707.3000001907349","e","choice","left","e","experimental","302","358011","0.0-4.0-8.35","true","36","3.25","","",""
"2537.800000190735","3","confid","","","html-slider-response","304","361056","0.0-4.0-10.35-0.35","","","","Rate your confidence","1",""
"1138.6999998092651","e","choice","left","e","experimental","311","364002","0.0-4.0-8.36","true","37","3.15","","",""
"8034.39999961853","3","confid","","","html-slider-response","313","372543","0.0-4.0-10.36-0.36","","","","Rate your confidence","1",""
"591.1000003814697","i","choice","right","i","experimental","320","374933","0.0-4.0-8.37","true","38","3.15","","",""
"3790.300000190735","4","confid","","","html-slider-response","322","379233","0.0-4.0-10.37-0.37","","","","Rate your confidence","1",""
"610.1000003814697","i","choice","left","e","experimental","329","381645","0.0-4.0-8.38","false","39","3.05","","",""
"3181.300000190735","2","confid","","","html-slider-response","331","385332","0.0-4.0-10.38-0.38","","","","Rate your confidence","1",""
"150.39999961853027","i","choice","right","i","experimental","338","387287","0.0-4.0-8.39","true","40","3.15","","",""
"2939.7000007629395","5","confid","","","html-slider-response","340","390735","0.0-4.0-10.39-0.39","","","","Rate your confidence","1",""
"1545.6999998092651","i","choice","right","i","experimental","347","394079","0.0-4.0-8.40","true","41","3.15","","",""
"2732.800000190735","4","confid","","","html-slider-response","349","397319","0.0-4.0-10.40-0.40","","","","Rate your confidence","1",""
"2093.5","e","choice","left","e","experimental","356","401221","0.0-4.0-8.41","true","42","3.05","","",""
"5555.699999809265","1","confid","","","html-slider-response","358","407286","0.0-4.0-10.41-0.41","","","","Rate your confidence","1",""
"777.3999996185303","i","choice","right","i","experimental","365","409871","0.0-4.0-8.42","true","43","3.05","","",""
"2964.4000005722046","3","confid","","","html-slider-response","367","413342","0.0-4.0-10.42-0.42","","","","Rate your confidence","1",""
"1876.6000003814697","e","choice","left","e","experimental","374","417024","0.0-4.0-8.43","true","44","2.9499999999999997","","",""
"4212.299999237061","1","confid","","","html-slider-response","376","421747","0.0-4.0-10.43-0.43","","","","Rate your confidence","1",""
"2996","e","choice","right","i","experimental","383","426541","0.0-4.0-8.44","false","45","2.9499999999999997","","",""
"4907.299999237061","1","confid","","","html-slider-response","385","431957","0.0-4.0-10.44-0.44","","","","Rate your confidence","1",""
"1483.3000001907349","e","choice","left","e","experimental","392","435239","0.0-4.0-8.45","true","46","3.05","","",""
"2465.300000190735","3","confid","","","html-slider-response","394","438213","0.0-4.0-10.45-0.45","","","","Rate your confidence","1",""
"916.1000003814697","i","choice","right","i","experimental","401","440937","0.0-4.0-8.46","true","47","3.05","","",""
"3479.199999809265","5","confid","","","html-slider-response","403","444926","0.0-4.0-10.46-0.46","","","","Rate your confidence","1",""
"772.1999998092651","e","choice","left","e","experimental","410","447505","0.0-4.0-8.47","true","48","2.9499999999999997","","",""
"5100.099999427795","3","confid","","","html-slider-response","412","453110","0.0-4.0-10.47-0.47","","","","Rate your confidence","1",""
"21.40000057220459","i","choice","right","i","experimental","419","454930","0.0-4.0-8.48","true","49","2.9499999999999997","","",""
"4301","4","confid","","","html-slider-response","421","459736","0.0-4.0-10.48-0.48","","","","Rate your confidence","1",""
"1720","i","choice","left","e","experimental","428","463263","0.0-4.0-8.49","false","50","2.8499999999999996","","",""
"3832.199999809265","4","confid","","","html-slider-response","430","467603","0.0-4.0-10.49-0.49","","","","Rate your confidence","1",""
"504.79999923706055","e","choice","left","e","experimental","437","469920","0.0-4.0-8.50","true","51","2.9499999999999997","","",""
"2553.5999994277954","3","confid","","","html-slider-response","439","472983","0.0-4.0-10.50-0.50","","","","Rate your confidence","1",""
"433.6000003814697","i","choice","right","i","experimental","446","475220","0.0-4.0-8.51","true","52","2.9499999999999997","","",""
"2522.7999992370605","4","confid","","","html-slider-response","448","478251","0.0-4.0-10.51-0.51","","","","Rate your confidence","1",""
"1418.1000003814697","i","choice","right","i","experimental","455","481468","0.0-4.0-8.52","true","53","2.8499999999999996","","",""
"2678.2000007629395","3","confid","","","html-slider-response","457","484655","0.0-4.0-10.52-0.52","","","","Rate your confidence","1",""
"999","i","choice","left","e","experimental","464","487461","0.0-4.0-8.53","false","54","2.8499999999999996","","",""
"2965.7000007629395","3","confid","","","html-slider-response","466","490936","0.0-4.0-10.53-0.53","","","","Rate your confidence","1",""
"761.3000001907349","i","choice","right","i","experimental","473","493491","0.0-4.0-8.54","true","55","2.9499999999999997","","",""
"2725.8999996185303","4","confid","","","html-slider-response","475","496721","0.0-4.0-10.54-0.54","","","","Rate your confidence","1",""
"290","e","choice","left","e","experimental","482","498783","0.0-4.0-8.55","true","56","2.9499999999999997","","",""
"3016","3","confid","","","html-slider-response","484","502308","0.0-4.0-10.55-0.55","","","","Rate your confidence","1",""
"471.80000019073486","i","choice","right","i","experimental","491","504578","0.0-4.0-8.56","true","57","2.8499999999999996","","",""
"2456.800000190735","4","confid","","","html-slider-response","493","507543","0.0-4.0-10.56-0.56","","","","Rate your confidence","1",""
"804.4000005722046","e","choice","left","e","experimental","500","510150","0.0-4.0-8.57","true","58","2.8499999999999996","","",""
"3086","3","confid","","","html-slider-response","502","513744","0.0-4.0-10.57-0.57","","","","Rate your confidence","1",""
"832.6000003814697","i","choice","right","i","experimental","509","516381","0.0-4.0-8.58","true","59","2.7499999999999996","","",""
"2965.6000003814697","4","confid","","","html-slider-response","511","519854","0.0-4.0-10.58-0.58","","","","Rate your confidence","1",""
"2084.5999994277954","i","choice","left","e","experimental","518","523740","0.0-4.0-8.59","false","60","2.7499999999999996","","",""
"4536.900000572205","1","confid","","","html-slider-response","520","528796","0.0-4.0-10.59-0.59","","","","Rate your confidence","1",""
"420.5","e","choice","left","e","experimental","527","531023","0.0-4.0-8.60","true","61","2.8499999999999996","","",""
"9342.599999427795","4","confid","","","html-slider-response","529","540875","0.0-4.0-10.60-0.60","","","","Rate your confidence","1",""
"369.4000005722046","i","choice","right","i","experimental","536","543046","0.0-4.0-8.61","true","62","2.8499999999999996","","",""
"2768.2000007629395","4","confid","","","html-slider-response","538","546325","0.0-4.0-10.61-0.61","","","","Rate your confidence","1",""
"679","i","choice","left","e","experimental","545","548811","0.0-4.0-8.62","false","63","2.7499999999999996","","",""
"5210.10000038147","4","confid","","","html-slider-response","547","554530","0.0-4.0-10.62-0.62","","","","Rate your confidence","1",""
"1084.8000001907349","e","choice","right","i","experimental","554","557400","0.0-4.0-8.63","false","64","2.8499999999999996","","",""
"2857.800000190735","1","confid","","","html-slider-response","556","560764","0.0-4.0-10.63-0.63","","","","Rate your confidence","1",""
"849.0999994277954","e","choice","left","e","experimental","563","563389","0.0-4.0-8.64","true","65","2.9499999999999997","","",""
"2762.5999994277954","1","confid","","","html-slider-response","565","566656","0.0-4.0-10.64-0.64","","","","Rate your confidence","1",""
"551.1000003814697","i","choice","right","i","experimental","572","569004","0.0-4.0-8.65","true","66","2.9499999999999997","","",""
"2793","3","confid","","","html-slider-response","574","572303","0.0-4.0-10.65-0.65","","","","Rate your confidence","1",""
"1359.7000007629395","i","choice","left","e","experimental","581","575462","0.0-4.0-8.66","false","67","2.8499999999999996","","",""
"41519.699999809265","3","confid","","","html-slider-response","583","617505","0.0-4.0-10.66-0.66","","","","Rate your confidence","1",""
"376.3999996185303","i","choice","right","i","experimental","590","619683","0.0-4.0-8.67","true","68","2.9499999999999997","","",""
"3455.5999994277954","1","confid","","","html-slider-response","592","623647","0.0-4.0-10.67-0.67","","","","Rate your confidence","1",""
"564","i","choice","right","i","experimental","600","711788","0.0-4.0-8.68","true","69","2.9499999999999997","","",""
"3656.300000190735","4","confid","","","html-slider-response","602","715950","0.0-4.0-10.68-0.68","","","","Rate your confidence","1",""
"1516.6999998092651","e","choice","left","e","experimental","609","719270","0.0-4.0-8.69","true","70","2.8499999999999996","","",""
"3289.199999809265","3","confid","","","html-slider-response","611","723071","0.0-4.0-10.69-0.69","","","","Rate your confidence","1",""
"327.70000076293945","i","choice","left","e","experimental","618","725212","0.0-4.0-8.70","false","71","2.8499999999999996","","",""
"2902.8999996185303","5","confid","","","html-slider-response","620","728620","0.0-4.0-10.70-0.70","","","","Rate your confidence","1",""
"1385.8999996185303","e","choice","right","i","experimental","627","731811","0.0-4.0-8.71","false","72","2.9499999999999997","","",""
"3718.3999996185303","1","confid","","","html-slider-response","629","736034","0.0-4.0-10.71-0.71","","","","Rate your confidence","1",""
"264.5","i","choice","right","i","experimental","636","738081","0.0-4.0-8.72","true","73","3.05","","",""
"3816.0999994277954","4","confid","","","html-slider-response","638","742404","0.0-4.0-10.72-0.72","","","","Rate your confidence","1",""
"2154.6000003814697","e","choice","left","e","experimental","645","746362","0.0-4.0-8.73","true","74","3.05","","",""
"2717.300000190735","1","confid","","","html-slider-response","647","749588","0.0-4.0-10.73-0.73","","","","Rate your confidence","1",""
"412.1000003814697","i","choice","right","i","experimental","654","751791","0.0-4.0-8.74","true","75","2.9499999999999997","","",""
"3236.800000190735","4","confid","","","html-slider-response","656","755536","0.0-4.0-10.74-0.74","","","","Rate your confidence","1",""
"228.5","e","choice","left","e","experimental","663","757553","0.0-4.0-8.75","true","76","2.9499999999999997","","",""
"5211.599999427795","4","confid","","","html-slider-response","665","763269","0.0-4.0-10.75-0.75","","","","Rate your confidence","1",""
"247.69999980926514","i","choice","right","i","experimental","672","765320","0.0-4.0-8.76","true","77","2.8499999999999996","","",""
"3375.699999809265","5","confid","","","html-slider-response","674","769205","0.0-4.0-10.76-0.76","","","","Rate your confidence","1",""
"35.19999980926514","e","choice","left","e","experimental","681","771040","0.0-4.0-8.77","true","78","2.8499999999999996","","",""
"2794.800000190735","5","confid","","","html-slider-response","683","774341","0.0-4.0-10.77-0.77","","","","Rate your confidence","1",""
"1023.2000007629395","i","choice","left","e","experimental","690","777170","0.0-4.0-8.78","false","79","2.7499999999999996","","",""
"4169.10000038147","5","confid","","","html-slider-response","692","781844","0.0-4.0-10.78-0.78","","","","Rate your confidence","1",""
"682.5","i","choice","right","i","experimental","699","784338","0.0-4.0-8.79","true","80","2.8499999999999996","","",""
"2419","4","confid","","","html-slider-response","701","787265","0.0-4.0-10.79-0.79","","","","Rate your confidence","1",""
"719.1000003814697","e","choice","left","e","experimental","708","789793","0.0-4.0-8.80","true","81","2.8499999999999996","","",""
"3427.1000003814697","3","confid","","","html-slider-response","710","793727","0.0-4.0-10.80-0.80","","","","Rate your confidence","1",""
"1742.3000001907349","i","choice","right","i","experimental","717","797268","0.0-4.0-8.81","true","82","2.7499999999999996","","",""
"2845.6000003814697","2","confid","","","html-slider-response","719","800622","0.0-4.0-10.81-0.81","","","","Rate your confidence","1",""
"1134.3999996185303","i","choice","right","i","experimental","726","803549","0.0-4.0-8.82","true","83","2.7499999999999996","","",""
"3941.199999809265","3","confid","","","html-slider-response","728","808000","0.0-4.0-10.82-0.82","","","","Rate your confidence","1",""
"893.8000001907349","e","choice","left","e","experimental","735","810694","0.0-4.0-8.83","true","84","2.6499999999999995","","",""
"2740.5999994277954","3","confid","","","html-slider-response","737","813945","0.0-4.0-10.83-0.83","","","","Rate your confidence","1",""
"332.3999996185303","i","choice","right","i","experimental","744","816086","0.0-4.0-8.84","true","85","2.6499999999999995","","",""
"4761.300000190735","3","confid","","","html-slider-response","746","821356","0.0-4.0-10.84-0.84","","","","Rate your confidence","1",""
"179.60000038146973","e","choice","left","e","experimental","753","823343","0.0-4.0-8.85","true","86","2.5499999999999994","","",""
"3438","4","confid","","","html-slider-response","755","827292","0.0-4.0-10.85-0.85","","","","Rate your confidence","1",""
"510.1000003814697","i","choice","left","e","experimental","762","829604","0.0-4.0-8.86","false","87","2.5499999999999994","","",""
"3231.6000003814697","3","confid","","","html-slider-response","764","833344","0.0-4.0-10.86-0.86","","","","Rate your confidence","1",""
"247.5999994277954","i","choice","right","i","experimental","771","835399","0.0-4.0-8.87","true","88","2.6499999999999995","","",""
"4532.89999961853","4","confid","","","html-slider-response","773","840440","0.0-4.0-10.87-0.87","","","","Rate your confidence","1",""
"2058.1000003814697","e","choice","right","i","experimental","780","844299","0.0-4.0-8.88","false","89","2.6499999999999995","","",""
"3445","2","confid","","","html-slider-response","782","848253","0.0-4.0-10.88-0.88","","","","Rate your confidence","1",""
"1943.8000001907349","i","choice","left","e","experimental","789","851997","0.0-4.0-8.89","false","90","2.7499999999999996","","",""
"2592.699999809265","3","confid","","","html-slider-response","791","855097","0.0-4.0-10.89-0.89","","","","Rate your confidence","1",""
"515.3000001907349","i","choice","right","i","experimental","798","857423","0.0-4.0-8.90","true","91","2.8499999999999996","","",""
"4414.10000038147","4","confid","","","html-slider-response","800","862346","0.0-4.0-10.90-0.90","","","","Rate your confidence","1",""
"518.3999996185303","e","choice","left","e","experimental","807","864662","0.0-4.0-8.91","true","92","2.8499999999999996","","",""
"3363.7999992370605","4","confid","","","html-slider-response","809","868535","0.0-4.0-10.91-0.91","","","","Rate your confidence","1",""
"327.30000019073486","i","choice","right","i","experimental","816","870663","0.0-4.0-8.92","true","93","2.7499999999999996","","",""
"4696.200000762939","5","confid","","","html-slider-response","818","875867","0.0-4.0-10.92-0.92","","","","Rate your confidence","1",""
"1898.1999998092651","e","choice","left","e","experimental","825","879565","0.0-4.0-8.93","true","94","2.7499999999999996","","",""
"3874.4000005722046","3","confid","","","html-slider-response","827","883945","0.0-4.0-10.93-0.93","","","","Rate your confidence","1",""
"447.19999980926514","e","choice","left","e","experimental","834","886187","0.0-4.0-8.94","true","95","2.6499999999999995","","",""
"3875.800000190735","3","confid","","","html-slider-response","836","890571","0.0-4.0-10.94-0.94","","","","Rate your confidence","1",""
"10.199999809265137","i","choice","right","i","experimental","843","892385","0.0-4.0-8.95","true","96","2.6499999999999995","","",""
"2422.5","3","confid","","","html-slider-response","845","895315","0.0-4.0-10.95-0.95","","","","Rate your confidence","1",""
"996.6000003814697","i","choice","right","i","experimental","852","898114","0.0-4.0-8.96","true","97","2.5499999999999994","","",""
"2825.199999809265","3","confid","","","html-slider-response","854","901448","0.0-4.0-10.96-0.96","","","","Rate your confidence","1",""
"423.69999980926514","e","choice","left","e","experimental","861","903672","0.0-4.0-8.97","true","98","2.5499999999999994","","",""
"2915","1","confid","","","html-slider-response","863","907092","0.0-4.0-10.97-0.97","","","","Rate your confidence","1",""
"682.9000005722046","i","choice","right","i","experimental","870","909584","0.0-4.0-8.98","true","99","2.4499999999999993","","",""
"5270.39999961853","2","confid","","","html-slider-response","872","915362","0.0-4.0-10.98-0.98","","","","Rate your confidence","1",""
"809.8999996185303","e","choice","left","e","experimental","879","917980","0.0-4.0-8.99","true","100","2.4499999999999993","","",""
"4843.700000762939","2","confid","","","html-slider-response","881","923345","0.0-4.0-10.99-0.99","","","","Rate your confidence","1",""
"1420.6999998092651","e","choice","left","e","experimental","888","926577","0.0-4.0-8.100","true","101","2.349999999999999","","",""
"2505.800000190735","2","confid","","","html-slider-response","890","929591","0.0-4.0-10.100-0.100","","","","Rate your confidence","1",""
"1532","e","choice","right","i","experimental","897","932916","0.0-4.0-8.101","false","102","2.349999999999999","","",""
"2855.0999994277954","1","confid","","","html-slider-response","899","936287","0.0-4.0-10.101-0.101","","","","Rate your confidence","1",""
"1186.4000005722046","i","choice","right","i","experimental","906","939270","0.0-4.0-8.102","true","103","2.4499999999999993","","",""
"2652.300000190735","3","confid","","","html-slider-response","908","942431","0.0-4.0-10.102-0.102","","","","Rate your confidence","1",""
"291.3999996185303","e","choice","left","e","experimental","915","944515","0.0-4.0-8.103","true","104","2.4499999999999993","","",""
"3252.5","2","confid","","","html-slider-response","917","948277","0.0-4.0-10.103-0.103","","","","Rate your confidence","1",""
"1029.8000001907349","i","choice","left","e","experimental","924","951115","0.0-4.0-8.104","false","105","2.349999999999999","","",""
"3788.5","2","confid","","","html-slider-response","926","955426","0.0-4.0-10.104-0.104","","","","Rate your confidence","1",""
"2095.9000005722046","e","choice","right","i","experimental","933","959322","0.0-4.0-8.105","false","106","2.4499999999999993","","",""
"2389.0999994277954","1","confid","","","html-slider-response","935","962217","0.0-4.0-10.105-0.105","","","","Rate your confidence","1",""
"533.8000001907349","e","choice","right","i","experimental","942","964551","0.0-4.0-8.106","false","107","2.5499999999999994","","",""
"2248.7000007629395","3","confid","","","html-slider-response","944","967307","0.0-4.0-10.106-0.106","","","","Rate your confidence","1",""
"1953.6999998092651","i","choice","left","e","experimental","951","971064","0.0-4.0-8.107","false","108","2.6499999999999995","","",""
"2442.300000190735","1","confid","","","html-slider-response","953","974013","0.0-4.0-10.107-0.107","","","","Rate your confidence","1",""
"1882.4000005722046","e","choice","left","e","experimental","960","977691","0.0-4.0-8.108","true","109","2.7499999999999996","","",""
"3076.800000190735","2","confid","","","html-slider-response","962","981277","0.0-4.0-10.108-0.108","","","","Rate your confidence","1",""
"989.8000001907349","i","choice","right","i","experimental","969","984044","0.0-4.0-8.109","true","110","2.7499999999999996","","",""
"4343.300000190735","2","confid","","","html-slider-response","971","988895","0.0-4.0-10.109-0.109","","","","Rate your confidence","1",""
"609.5","i","choice","right","i","experimental","979","1169381","0.0-4.0-8.110","true","111","2.6499999999999995","","",""
"3173.300000190735","3","confid","","","html-slider-response","981","1173052","0.0-4.0-10.110-0.110","","","","Rate your confidence","1",""
"311.9000005722046","e","choice","left","e","experimental","988","1175161","0.0-4.0-8.111","true","112","2.6499999999999995","","",""
"3617.4000005722046","3","confid","","","html-slider-response","990","1179285","0.0-4.0-10.111-0.111","","","","Rate your confidence","1",""
"1614.5999994277954","i","choice","left","e","experimental","997","1182701","0.0-4.0-8.112","false","113","2.5499999999999994","","",""
"3184.300000190735","2","confid","","","html-slider-response","999","1186395","0.0-4.0-10.112-0.112","","","","Rate your confidence","1",""
"282.30000019073486","e","choice","right","i","experimental","1006","1188487","0.0-4.0-8.113","false","114","2.6499999999999995","","",""
"3088.199999809265","2","confid","","","html-slider-response","1008","1192084","0.0-4.0-10.113-0.113","","","","Rate your confidence","1",""
"1863.6000003814697","i","choice","right","i","experimental","1015","1195769","0.0-4.0-8.114","true","115","2.7499999999999996","","",""
"4487.699999809265","3","confid","","","html-slider-response","1017","1200766","0.0-4.0-10.114-0.114","","","","Rate your confidence","1",""
"502.80000019073486","i","choice","left","e","experimental","1024","1203060","0.0-4.0-8.115","false","116","2.7499999999999996","","",""
"3276.2999992370605","3","confid","","","html-slider-response","1026","1206844","0.0-4.0-10.115-0.115","","","","Rate your confidence","1",""
"272.80000019073486","e","choice","right","i","experimental","1033","1208930","0.0-4.0-8.116","false","117","2.8499999999999996","","",""
"3485.6000003814697","3","confid","","","html-slider-response","1035","1212922","0.0-4.0-10.116-0.116","","","","Rate your confidence","1",""
"559.0999994277954","e","choice","left","e","experimental","1042","1215276","0.0-4.0-8.117","true","118","2.9499999999999997","","",""
"2842.199999809265","3","confid","","","html-slider-response","1044","1218627","0.0-4.0-10.117-0.117","","","","Rate your confidence","1",""
"176.39999961853027","i","choice","right","i","experimental","1051","1220602","0.0-4.0-8.118","true","119","2.9499999999999997","","",""
"3506.800000190735","4","confid","","","html-slider-response","1053","1224617","0.0-4.0-10.118-0.118","","","","Rate your confidence","1",""
"439.8999996185303","e","choice","left","e","experimental","1060","1226864","0.0-4.0-8.119","true","120","2.8499999999999996","","",""
"3357.199999809265","3","confid","","","html-slider-response","1062","1230718","0.0-4.0-10.119-0.119","","","","Rate your confidence","1",""
"394.3999996185303","e","choice","left","e","experimental","1069","1232932","0.0-4.0-8.120","true","121","2.8499999999999996","","",""
"4386.60000038147","4","confid","","","html-slider-response","1071","1237826","0.0-4.0-10.120-0.120","","","","Rate your confidence","1",""
"564.5","i","choice","right","i","experimental","1078","1240190","0.0-4.0-8.121","true","122","2.7499999999999996","","",""
"4959.89999961853","2","confid","","","html-slider-response","1080","1245658","0.0-4.0-10.121-0.121","","","","Rate your confidence","1",""
"855.3000001907349","i","choice","right","i","experimental","1087","1248313","0.0-4.0-8.122","true","123","2.7499999999999996","","",""
"3209.6000003814697","3","confid","","","html-slider-response","1089","1252032","0.0-4.0-10.122-0.122","","","","Rate your confidence","1",""
"234.60000038146973","e","choice","left","e","experimental","1096","1254088","0.0-4.0-8.123","true","124","2.6499999999999995","","",""
"3114.1000003814697","3","confid","","","html-slider-response","1098","1257708","0.0-4.0-10.123-0.123","","","","Rate your confidence","1",""
"241.5","i","choice","right","i","experimental","1105","1259746","0.0-4.0-8.124","true","125","2.6499999999999995","","",""
"3561.199999809265","2","confid","","","html-slider-response","1107","1263818","0.0-4.0-10.124-0.124","","","","Rate your confidence","1",""
"359.3999996185303","i","choice","left","e","experimental","1114","1265975","0.0-4.0-8.125","false","126","2.5499999999999994","","",""
"3017.300000190735","3","confid","","","html-slider-response","1116","1269500","0.0-4.0-10.125-0.125","","","","Rate your confidence","1",""
"142.80000019073486","i","choice","left","e","experimental","1123","1271448","0.0-4.0-8.126","false","127","2.6499999999999995","","",""
"2916.9000005722046","3","confid","","","html-slider-response","1125","1274874","0.0-4.0-10.126-0.126","","","","Rate your confidence","1",""
"404.3999996185303","i","choice","right","i","experimental","1132","1277075","0.0-4.0-8.127","true","128","2.7499999999999996","","",""
"2581.0999994277954","2","confid","","","html-slider-response","1134","1280164","0.0-4.0-10.127-0.127","","","","Rate your confidence","1",""
"814.4000005722046","i","choice","right","i","experimental","1141","1282785","0.0-4.0-8.128","true","129","2.7499999999999996","","",""
"4072.300000190735","2","confid","","","html-slider-response","1143","1287362","0.0-4.0-10.128-0.128","","","","Rate your confidence","1",""
"460.3999996185303","e","choice","left","e","experimental","1150","1289622","0.0-4.0-8.129","true","130","2.6499999999999995","","",""
"4502.300000190735","1","confid","","","html-slider-response","1152","1294620","0.0-4.0-10.129-0.129","","","","Rate your confidence","1",""
"339.6000003814697","i","choice","right","i","experimental","1159","1296762","0.0-4.0-8.130","true","131","2.6499999999999995","","",""
"2513.300000190735","2","confid","","","html-slider-response","1161","1299793","0.0-4.0-10.130-0.130","","","","Rate your confidence","1",""
"308.69999980926514","i","choice","left","e","experimental","1168","1301909","0.0-4.0-8.131","false","132","2.5499999999999994","","",""
"3719.8999996185303","2","confid","","","html-slider-response","1170","1306133","0.0-4.0-10.131-0.131","","","","Rate your confidence","1",""
"281.30000019073486","i","choice","right","i","experimental","1177","1308222","0.0-4.0-8.132","true","133","2.6499999999999995","","",""
"4606.199999809265","2","confid","","","html-slider-response","1179","1313337","0.0-4.0-10.132-0.132","","","","Rate your confidence","1",""
"118.90000057220459","i","choice","left","e","experimental","1186","1315254","0.0-4.0-8.133","false","134","2.6499999999999995","","",""
"3676.5","2","confid","","","html-slider-response","1188","1319436","0.0-4.0-10.133-0.133","","","","Rate your confidence","1",""
"517.6000003814697","e","choice","left","e","experimental","1195","1321762","0.0-4.0-8.134","true","135","2.7499999999999996","","",""
"4344.89999961853","2","confid","","","html-slider-response","1197","1326622","0.0-4.0-10.134-0.134","","","","Rate your confidence","1",""
"323.80000019073486","i","choice","right","i","experimental","1204","1328750","0.0-4.0-8.135","true","136","2.7499999999999996","","",""
"4416.300000190735","4","confid","","","html-slider-response","1206","1333676","0.0-4.0-10.135-0.135","","","","Rate your confidence","1",""
"170.9000005722046","i","choice","right","i","experimental","1213","1335650","0.0-4.0-8.136","true","137","2.6499999999999995","","",""
"2695.5","3","confid","","","html-slider-response","1215","1338856","0.0-4.0-10.136-0.136","","","","Rate your confidence","1",""
"368","e","choice","left","e","experimental","1222","1341036","0.0-4.0-8.137","true","138","2.6499999999999995","","",""
"2761.199999809265","3","confid","","","html-slider-response","1224","1344306","0.0-4.0-10.137-0.137","","","","Rate your confidence","1",""
"295.79999923706055","e","choice","left","e","experimental","1231","1346398","0.0-4.0-8.138","true","139","2.5499999999999994","","",""
"2624.5","3","confid","","","html-slider-response","1233","1349531","0.0-4.0-10.138-0.138","","","","Rate your confidence","1",""
"514.9000005722046","i","choice","right","i","experimental","1240","1351843","0.0-4.0-8.139","true","140","2.5499999999999994","","",""
"4887.400000572205","4","confid","","","html-slider-response","1242","1357238","0.0-4.0-10.139-0.139","","","","Rate your confidence","1",""
"380.19999980926514","e","choice","left","e","experimental","1249","1359425","0.0-4.0-8.140","true","141","2.4499999999999993","","",""
"2441.6000003814697","4","confid","","","html-slider-response","1251","1362375","0.0-4.0-10.140-0.140","","","","Rate your confidence","1",""
"1624.2000007629395","e","choice","right","i","experimental","1258","1365807","0.0-4.0-8.141","false","142","2.4499999999999993","","",""
"4109.799999237061","1","confid","","","html-slider-response","1260","1370426","0.0-4.0-10.141-0.141","","","","Rate your confidence","1",""
"292.19999980926514","e","choice","left","e","experimental","1267","1372518","0.0-4.0-8.142","true","143","2.5499999999999994","","",""
"2935.4000005722046","3","confid","","","html-slider-response","1269","1375958","0.0-4.0-10.142-0.142","","","","Rate your confidence","1",""
"897.8999996185303","i","choice","right","i","experimental","1276","1378660","0.0-4.0-8.143","true","144","2.5499999999999994","","",""
"3754.3999996185303","4","confid","","","html-slider-response","1278","1382933","0.0-4.0-10.143-0.143","","","","Rate your confidence","1",""
"1482.1999998092651","i","choice","right","i","experimental","1285","1386225","0.0-4.0-8.144","true","145","2.4499999999999993","","",""
"3634.199999809265","1","confid","","","html-slider-response","1287","1390369","0.0-4.0-10.144-0.144","","","","Rate your confidence","1",""
"505.80000019073486","i","choice","left","e","experimental","1294","1392675","0.0-4.0-8.145","false","146","2.4499999999999993","","",""
"2581.800000190735","2","confid","","","html-slider-response","1296","1395763","0.0-4.0-10.145-0.145","","","","Rate your confidence","1",""
"229.19999980926514","i","choice","right","i","experimental","1303","1397802","0.0-4.0-8.146","true","147","2.5499999999999994","","",""
"4265.199999809265","4","confid","","","html-slider-response","1305","1402583","0.0-4.0-10.146-0.146","","","","Rate your confidence","1",""
"934.6999998092651","i","choice","left","e","experimental","1312","1405323","0.0-4.0-8.147","false","148","2.5499999999999994","","",""
"2727.5","3","confid","","","html-slider-response","1314","1408558","0.0-4.0-10.147-0.147","","","","Rate your confidence","1",""
"320.4000005722046","i","choice","right","i","experimental","1321","1410679","0.0-4.0-8.148","true","149","2.6499999999999995","","",""
"4620.099999427795","4","confid","","","html-slider-response","1323","1415806","0.0-4.0-10.148-0.148","","","","Rate your confidence","1",""
"2821.4000005722046","e","choice","left","e","experimental","1330","1420430","0.0-4.0-8.149","true","150","2.6499999999999995","","",""
"4290.400000572205","1","confid","","","html-slider-response","1332","1425230","0.0-4.0-10.149-0.149","","","","Rate your confidence","1",""
"323.70000076293945","i","choice","right","i","experimental","1339","1427357","0.0-4.0-8.150","true","151","2.5499999999999994","","",""
"3354.8999996185303","3","confid","","","html-slider-response","1341","1431219","0.0-4.0-10.150-0.150","","","","Rate your confidence","1",""
"542","e","choice","left","e","experimental","1348","1433565","0.0-4.0-8.151","true","152","2.5499999999999994","","",""
"2860.2000007629395","2","confid","","","html-slider-response","1350","1436933","0.0-4.0-10.151-0.151","","","","Rate your confidence","1",""
"275.3999996185303","i","choice","left","e","experimental","1358","1527744","0.0-4.0-8.152","false","153","2.4499999999999993","","",""
"3149.199999809265","3","confid","","","html-slider-response","1360","1531391","0.0-4.0-10.152-0.152","","","","Rate your confidence","1",""
"477.5","e","choice","right","i","experimental","1367","1533674","0.0-4.0-8.153","false","154","2.5499999999999994","","",""
"3242.5","2","confid","","","html-slider-response","1369","1537426","0.0-4.0-10.153-0.153","","","","Rate your confidence","1",""
"343.30000019073486","e","choice","right","i","experimental","1376","1539574","0.0-4.0-8.154","false","155","2.6499999999999995","","",""
"6280.60000038147","3","confid","","","html-slider-response","1378","1546364","0.0-4.0-10.154-0.154","","","","Rate your confidence","1",""
"326.5","e","choice","left","e","experimental","1385","1548499","0.0-4.0-8.155","true","156","2.7499999999999996","","",""
"2935.300000190735","3","confid","","","html-slider-response","1387","1551945","0.0-4.0-10.155-0.155","","","","Rate your confidence","1",""
"767.8000001907349","i","choice","left","e","experimental","1394","1554525","0.0-4.0-8.156","false","157","2.7499999999999996","","",""
"3205.9000005722046","2","confid","","","html-slider-response","1396","1558240","0.0-4.0-10.156-0.156","","","","Rate your confidence","1",""
"1612.9000005722046","e","choice","right","i","experimental","1403","1561658","0.0-4.0-8.157","false","158","2.8499999999999996","","",""
"3317.1000003814697","1","confid","","","html-slider-response","1405","1565484","0.0-4.0-10.157-0.157","","","","Rate your confidence","1",""
"283.70000076293945","i","choice","right","i","experimental","1412","1567563","0.0-4.0-8.158","true","159","2.9499999999999997","","",""
"3866.5999994277954","3","confid","","","html-slider-response","1414","1571937","0.0-4.0-10.158-0.158","","","","Rate your confidence","1",""
"1520.6999998092651","i","choice","left","e","experimental","1421","1575261","0.0-4.0-8.159","false","160","2.9499999999999997","","",""
"2561.699999809265","3","confid","","","html-slider-response","1423","1578329","0.0-4.0-10.159-0.159","","","","Rate your confidence","1",""
"701.8000001907349","i","choice","right","i","experimental","1430","1580832","0.0-4.0-8.160","true","161","3.05","","",""
"3125.800000190735","3","confid","","","html-slider-response","1432","1584465","0.0-4.0-10.160-0.160","","","","Rate your confidence","1",""
"336.1000003814697","e","choice","left","e","experimental","1439","1586608","0.0-4.0-8.161","true","162","3.05","","",""
"2895.699999809265","2","confid","","","html-slider-response","1441","1590003","0.0-4.0-10.161-0.161","","","","Rate your confidence","1",""
"1369","e","choice","left","e","experimental","1448","1593180","0.0-4.0-8.162","true","163","2.9499999999999997","","",""
"3399.9000005722046","1","confid","","","html-slider-response","1450","1597089","0.0-4.0-10.162-0.162","","","","Rate your confidence","1",""
"458.1000003814697","i","choice","right","i","experimental","1457","1599372","0.0-4.0-8.163","true","164","2.9499999999999997","","",""
"4992.900000572205","3","confid","","","html-slider-response","1459","1604874","0.0-4.0-10.163-0.163","","","","Rate your confidence","1",""
"834.6999998092651","e","choice","right","i","experimental","1466","1607520","0.0-4.0-8.164","false","165","2.8499999999999996","","",""
"3344.3999996185303","3","confid","","","html-slider-response","1468","1611373","0.0-4.0-10.164-0.164","","","","Rate your confidence","1",""
"1028.2000007629395","e","choice","left","e","experimental","1475","1614206","0.0-4.0-8.165","true","166","2.9499999999999997","","",""
"2837","3","confid","","","html-slider-response","1477","1617549","0.0-4.0-10.165-0.165","","","","Rate your confidence","1",""
"1273.3000001907349","i","choice","left","e","experimental","1484","1620633","0.0-4.0-8.166","false","167","2.9499999999999997","","",""
"5717.60000038147","1","confid","","","html-slider-response","1486","1626861","0.0-4.0-10.166-0.166","","","","Rate your confidence","1",""
"163.5999994277954","i","choice","right","i","experimental","1493","1628801","0.0-4.0-8.167","true","168","3.05","","",""
"2745.800000190735","3","confid","","","html-slider-response","1495","1632052","0.0-4.0-10.167-0.167","","","","Rate your confidence","1",""
"141.19999980926514","e","choice","left","e","experimental","1502","1633969","0.0-4.0-8.168","true","169","3.05","","",""
"2212.699999809265","4","confid","","","html-slider-response","1504","1636687","0.0-4.0-10.168-0.168","","","","Rate your confidence","1",""
"1484.3000001907349","i","choice","right","i","experimental","1511","1639975","0.0-4.0-8.169","true","170","2.9499999999999997","","",""
"2216","2","confid","","","html-slider-response","1513","1642704","0.0-4.0-10.169-0.169","","","","Rate your confidence","1",""
"1657.1999998092651","i","choice","left","e","experimental","1520","1646172","0.0-4.0-8.170","false","171","2.9499999999999997","","",""
"6525.200000762939","1","confid","","","html-slider-response","1522","1653194","0.0-4.0-10.170-0.170","","","","Rate your confidence","1",""
"353.29999923706055","i","choice","right","i","experimental","1529","1655349","0.0-4.0-8.171","true","172","3.05","","",""
"3271.1000003814697","3","confid","","","html-slider-response","1531","1659144","0.0-4.0-10.171-0.171","","","","Rate your confidence","1",""
"410.80000019073486","i","choice","right","i","experimental","1538","1661354","0.0-4.0-8.172","true","173","3.05","","",""
"2667.199999809265","4","confid","","","html-slider-response","1540","1664532","0.0-4.0-10.172-0.172","","","","Rate your confidence","1",""
"630","e","choice","left","e","experimental","1547","1666991","0.0-4.0-8.173","true","174","2.9499999999999997","","",""
"4664.099999427795","2","confid","","","html-slider-response","1549","1672163","0.0-4.0-10.173-0.173","","","","Rate your confidence","1",""
"316.4000005722046","i","choice","right","i","experimental","1556","1674282","0.0-4.0-8.174","true","175","2.9499999999999997","","",""
"3289.1000003814697","4","confid","","","html-slider-response","1558","1678080","0.0-4.0-10.174-0.174","","","","Rate your confidence","1",""
"360.6000003814697","e","choice","left","e","experimental","1565","1680250","0.0-4.0-8.175","true","176","2.8499999999999996","","",""
"2587.0999994277954","3","confid","","","html-slider-response","1567","1683344","0.0-4.0-10.175-0.175","","","","Rate your confidence","1",""
"639.1000003814697","e","choice","right","i","experimental","1574","1685792","0.0-4.0-8.176","false","177","2.8499999999999996","","",""
"5431","3","confid","","","html-slider-response","1576","1691733","0.0-4.0-10.176-0.176","","","","Rate your confidence","1",""
"117.40000057220459","e","choice","left","e","experimental","1583","1693651","0.0-4.0-8.177","true","178","2.9499999999999997","","",""
"2505.699999809265","3","confid","","","html-slider-response","1585","1696666","0.0-4.0-10.177-0.177","","","","Rate your confidence","1",""
"108.39999961853027","e","choice","left","e","experimental","1592","1698571","0.0-4.0-8.178","true","179","2.9499999999999997","","",""
"3197.300000190735","3","confid","","","html-slider-response","1594","1702278","0.0-4.0-10.178-0.178","","","","Rate your confidence","1",""
"455.19999980926514","i","choice","right","i","experimental","1601","1704521","0.0-4.0-8.179","true","180","2.8499999999999996","","",""
"2974","3","confid","","","html-slider-response","1603","1708003","0.0-4.0-10.179-0.179","","","","Rate your confidence","1",""
"209.10000038146973","i","choice","left","e","experimental","1610","1710016","0.0-4.0-8.180","false","181","2.8499999999999996","","",""
"2730.0999994277954","3","confid","","","html-slider-response","1612","1713254","0.0-4.0-10.180-0.180","","","","Rate your confidence","1",""
"452.5","i","choice","right","i","experimental","1619","1715510","0.0-4.0-8.181","true","182","2.9499999999999997","","",""
"2172","4","confid","","","html-slider-response","1621","1718190","0.0-4.0-10.181-0.181","","","","Rate your confidence","1",""
"1077.8000001907349","i","choice","right","i","experimental","1628","1721079","0.0-4.0-8.182","true","183","2.9499999999999997","","",""
"2838.1000003814697","3","confid","","","html-slider-response","1630","1724427","0.0-4.0-10.182-0.182","","","","Rate your confidence","1",""
"322.5","e","choice","left","e","experimental","1637","1726550","0.0-4.0-8.183","true","184","2.8499999999999996","","",""
"3342.6000003814697","4","confid","","","html-slider-response","1639","1730403","0.0-4.0-10.183-0.183","","","","Rate your confidence","1",""
"654.1000003814697","e","choice","right","i","experimental","1646","1732861","0.0-4.0-8.184","false","185","2.8499999999999996","","",""
"2973.199999809265","4","confid","","","html-slider-response","1648","1736346","0.0-4.0-10.184-0.184","","","","Rate your confidence","1",""
"746.8000001907349","e","choice","left","e","experimental","1655","1738896","0.0-4.0-8.185","true","186","2.9499999999999997","","",""
"2415","3","confid","","","html-slider-response","1657","1741820","0.0-4.0-10.185-0.185","","","","Rate your confidence","1",""
"351.80000019073486","i","choice","right","i","experimental","1664","1743977","0.0-4.0-8.186","true","187","2.9499999999999997","","",""
"3472.8999996185303","5","confid","","","html-slider-response","1666","1747971","0.0-4.0-10.186-0.186","","","","Rate your confidence","1",""
"426.5","i","choice","left","e","experimental","1673","1750212","0.0-4.0-8.187","false","188","2.8499999999999996","","",""
"2487.3999996185303","4","confid","","","html-slider-response","1675","1753208","0.0-4.0-10.187-0.187","","","","Rate your confidence","1",""
"231.69999980926514","e","choice","left","e","experimental","1682","1755237","0.0-4.0-8.188","true","189","2.9499999999999997","","",""
"2344.3999996185303","3","confid","","","html-slider-response","1684","1758091","0.0-4.0-10.188-0.188","","","","Rate your confidence","1",""
"127.19999980926514","i","choice","right","i","experimental","1691","1760020","0.0-4.0-8.189","true","190","2.9499999999999997","","",""
"2786.1000003814697","5","confid","","","html-slider-response","1693","1763315","0.0-4.0-10.189-0.189","","","","Rate your confidence","1",""
"159.89999961853027","i","choice","right","i","experimental","1700","1765296","0.0-4.0-8.190","true","191","2.8499999999999996","","",""
"3799.800000190735","5","confid","","","html-slider-response","1702","1769604","0.0-4.0-10.190-0.190","","","","Rate your confidence","1",""
"309.4000005722046","e","choice","left","e","experimental","1709","1771709","0.0-4.0-8.191","true","192","2.8499999999999996","","",""
"6252.300000190735","3","confid","","","html-slider-response","1711","1778470","0.0-4.0-10.191-0.191","","","","Rate your confidence","1",""
"211.30000019073486","e","choice","right","i","experimental","1718","1780483","0.0-4.0-8.192","false","193","2.7499999999999996","","",""
"2476.300000190735","4","confid","","","html-slider-response","1720","1783468","0.0-4.0-10.192-0.192","","","","Rate your confidence","1",""
"222.4000005722046","i","choice","left","e","experimental","1727","1785497","0.0-4.0-8.193","false","194","2.8499999999999996","","",""
"3738.300000190735","3","confid","","","html-slider-response","1729","1789748","0.0-4.0-10.193-0.193","","","","Rate your confidence","1","30638"
