"rt","response","task","target_side","correct_response","trial_type","trial_index","time_elapsed","internal_node_id","correct","trial_number","n_dots","stimulus","slider_start","participant"
"2342","e","choice","right","i","practice","10","108021","0.0-4.0-8.0","false","1","4.25","","",""
"379.89999997615814","e","choice","left","e","practice","18","110668","0.0-4.0-8.1","true","2","4.65","","",""
"219.19999998807907","i","choice","left","e","practice","26","113156","0.0-4.0-8.2","false","3","4.65","","",""
"268.5999999642372","i","choice","right","i","practice","34","115692","0.0-4.0-8.3","true","4","5.050000000000001","","",""
"55.30000001192093","i","choice","right","i","practice","42","118011","0.0-4.0-8.4","true","5","5.050000000000001","","",""
"333.0999999642372","e","choice","left","e","practice","50","120612","0.0-4.0-8.5","true","6","4.65","","",""
"342.19999998807907","i","choice","right","i","practice","58","123220","0.0-4.0-8.6","true","7","4.65","","",""
"417.30000001192093","e","choice","left","e","practice","66","125900","0.0-4.0-8.7","true","8","4.45","","",""
"244.20000004768372","e","choice","left","e","practice","74","128411","0.0-4.0-8.8","true","9","4.45","","",""
"135.39999997615814","i","choice","right","i","practice","82","130812","0.0-4.0-8.9","true","10","4.25","","",""
"261.69999998807907","e","choice","left","e","practice","90","133341","0.0-4.0-8.10","true","11","4.25","","",""
"185.5","i","choice","right","i","practice","98","135789","0.0-4.0-8.11","true","12","4.15","","",""
"265.10000002384186","i","choice","right","i","practice","106","138317","0.0-4.0-8.12","true","13","4.15","","",""
"315.80000001192093","e","choice","left","e","practice","114","140900","0.0-4.0-8.13","true","14","4.050000000000001","","",""
"220.39999997615814","i","choice","right","i","practice","122","143389","0.0-4.0-8.14","true","15","4.050000000000001","","",""
"258","e","choice","left","e","practice","130","145912","0.0-4.0-8.15","true","16","3.9500000000000006","","",""
"191.10000002384186","e","choice","left","e","practice","138","148373","0.0-4.0-8.16","true","17","3.9500000000000006","","",""
"150.30000001192093","i","choice","right","i","practice","146","150789","0.0-4.0-8.17","true","18","3.8500000000000005","","",""
"121.40000003576279","i","choice","right","i","practice","154","153180","0.0-4.0-8.18","true","19","3.8500000000000005","","",""
"595.6000000238419","e","choice","left","e","practice","162","156053","0.0-4.0-8.19","true","20","3.7500000000000004","","",""
"294.5","i","choice","right","i","practice","170","158612","0.0-4.0-8.20","true","21","3.7500000000000004","","",""
"398","e","choice","left","e","practice","178","161276","0.0-4.0-8.21","true","22","3.6500000000000004","","",""
"460","i","choice","right","i","practice","186","164005","0.0-4.0-8.22","true","23","3.6500000000000004","","",""
"963.8000000119209","e","choice","left","e","practice","194","167237","0.0-4.0-8.23","true","24","3.5500000000000003","","",""
"393","e","choice","left","e","practice","202","169892","0.0-4.0-8.24","true","25","3.5500000000000003","","",""
"284.60000002384186","i","choice","right","i","practice","210","172437","0.0-4.0-8.25","true","26","3.45","","",""
"217.69999998807907","e","choice","left","e","experimental","221","335285","0.0-4.0-8.26","true","27","3.45","","",""
"5934.899999976158","6","confid","","","html-slider-response","223","341721","0.0-4.0-10.26-0.26","","","","Rate your confidence","1",""
"376.7999999523163","i","choice","right","i","experimental","230","343860","0.0-4.0-8.27","true","28","3.35","","",""
"3754.2000000476837","5","confid","","","html-slider-response","232","348116","0.0-4.0-10.27-0.27","","","","Rate your confidence","1",""
"521.1999999880791","i","choice","right","i","experimental","239","350405","0.0-4.0-8.28","true","29","3.35","","",""
"1550.800000011921","6","confid","","","html-slider-response","241","352457","0.0-4.0-10.28-0.28","","","","Rate your confidence","1",""
"1047.5","e","choice","left","e","experimental","248","355269","0.0-4.0-8.29","true","30","3.25","","",""
"1509.4000000357628","3","confid","","","html-slider-response","250","357280","0.0-4.0-10.29-0.29","","","","Rate your confidence","1",""
"571.3000000119209","e","choice","left","e","experimental","257","359612","0.0-4.0-8.30","true","31","3.25","","",""
"1587.699999988079","4","confid","","","html-slider-response","259","361702","0.0-4.0-10.30-0.30","","","","Rate your confidence","1",""
"106.5","i","choice","right","i","experimental","266","363573","0.0-4.0-8.31","true","32","3.15","","",""
"1797.9000000357628","3","confid","","","html-slider-response","268","365874","0.0-4.0-10.31-0.31","","","","Rate your confidence","1",""
"325.60000002384186","e","choice","left","e","experimental","275","367965","0.0-4.0-8.32","true","33","3.15","","",""
"3256.5","3","confid","","","html-slider-response","277","371723","0.0-4.0-10.32-0.32","","","","Rate your confidence","1",""
"321.60000002384186","i","choice","right","i","experimental","284","373812","0.0-4.0-8.33","true","34","3.05","","",""
"2182.5","5","confid","","","html-slider-response","286","376497","0.0-4.0-10.33-0.33","","","","Rate your confidence","1",""
"156.89999997615814","i","choice","right","i","experimental","293","378421","0.0-4.0-8.34","true","35","3.05","","",""
"2340.300000011921","5","confid","","","html-slider-response","295","381262","0.0-4.0-10.34-0.34","","","","Rate your confidence","1",""
"499.30000001192093","e","choice","left","e","experimental","302","383524","0.0-4.0-8.35","true","36","2.9499999999999997","","",""
"1124.6000000238419","5","confid","","","html-slider-response","304","385151","0.0-4.0-10.35-0.35","","","","Rate your confidence","1",""
"394.19999998807907","e","choice","left","e","experimental","311","387308","0.0-4.0-8.36","true","37","2.9499999999999997","","",""
"1271.699999988079","4","confid","","","html-slider-response","313","389083","0.0-4.0-10.36-0.36","","","","Rate your confidence","1",""
"289.30000001192093","i","choice","right","i","experimental","320","391141","0.0-4.0-8.37","true","38","2.8499999999999996","","",""
"1826.5","4","confid","","","html-slider-response","322","393469","0.0-4.0-10.37-0.37","","","","Rate your confidence","1",""
"306.9000000357628","e","choice","left","e","experimental","329","395540","0.0-4.0-8.38","true","39","2.8499999999999996","","",""
"1549.3999999761581","3","confid","","","html-slider-response","331","397591","0.0-4.0-10.38-0.38","","","","Rate your confidence","1",""
"206.5999999642372","i","choice","right","i","experimental","338","399564","0.0-4.0-8.39","true","40","2.7499999999999996","","",""
"1341.5999999642372","4","confid","","","html-slider-response","340","401407","0.0-4.0-10.39-0.39","","","","Rate your confidence","1",""
"263.80000001192093","i","choice","left","e","experimental","347","403436","0.0-4.0-8.40","false","41","2.7499999999999996","","",""
"722","3","confid","","","html-slider-response","349","404661","0.0-4.0-10.40-0.40","","","","Rate your confidence","1",""
"418.0999999642372","i","choice","right","i","experimental","356","406843","0.0-4.0-8.41","true","42","2.8499999999999996","","",""
"1992.3999999761581","5","confid","","","html-slider-response","358","409337","0.0-4.0-10.41-0.41","","","","Rate your confidence","1",""
"609.6000000238419","i","choice","right","i","experimental","365","411716","0.0-4.0-8.42","true","43","2.8499999999999996","","",""
"764.9000000357628","3","confid","","","html-slider-response","367","412983","0.0-4.0-10.42-0.42","","","","Rate your confidence","1",""
"615.3999999761581","e","choice","left","e","experimental","374","415363","0.0-4.0-8.43","true","44","2.7499999999999996","","",""
"985.7999999523163","4","confid","","","html-slider-response","376","416851","0.0-4.0-10.43-0.43","","","","Rate your confidence","1",""
"1086.199999988079","e","choice","left","e","experimental","383","419708","0.0-4.0-8.44","true","45","2.7499999999999996","","",""
"1123.0999999642372","2","confid","","","html-slider-response","385","421333","0.0-4.0-10.44-0.44","","","","Rate your confidence","1",""
"686.6000000238419","e","choice","right","i","experimental","392","423789","0.0-4.0-8.45","false","46","2.6499999999999995","","",""
"1510","2","confid","","","html-slider-response","394","425800","0.0-4.0-10.45-0.45","","","","Rate your confidence","1",""
"480.2000000476837","e","choice","left","e","experimental","401","428044","0.0-4.0-8.46","true","47","2.7499999999999996","","",""
"1408.800000011921","4","confid","","","html-slider-response","403","429958","0.0-4.0-10.46-0.46","","","","Rate your confidence","1",""
"440.89999997615814","e","choice","right","i","experimental","410","432164","0.0-4.0-8.47","false","48","2.7499999999999996","","",""
"1191.6000000238419","3","confid","","","html-slider-response","412","433857","0.0-4.0-10.47-0.47","","","","Rate your confidence","1",""
"357.5","i","choice","left","e","experimental","419","435980","0.0-4.0-8.48","false","49","2.8499999999999996","","",""
"853.1999999880791","4","confid","","","html-slider-response","421","437335","0.0-4.0-10.48-0.48","","","","Rate your confidence","1",""
"732","e","choice","right","i","experimental","428","439836","0.0-4.0-8.49","false","50","2.9499999999999997","","",""
"2216.599999964237","2","confid","","","html-slider-response","430","442554","0.0-4.0-10.49-0.49","","","","Rate your confidence","1",""
"92.30000001192093","i","choice","right","i","experimental","437","444412","0.0-4.0-8.50","true","51","3.05","","",""
"1326","3","confid","","","html-slider-response","439","446240","0.0-4.0-10.50-0.50","","","","Rate your confidence","1",""
"269.9000000357628","e","choice","left","e","experimental","446","448275","0.0-4.0-8.51","true","52","3.05","","",""
"1074","5","confid","","","html-slider-response","448","449851","0.0-4.0-10.51-0.51","","","","Rate your confidence","1",""
"148.89999997615814","e","choice","left","e","experimental","455","451764","0.0-4.0-8.52","true","53","2.9499999999999997","","",""
"1311.5","5","confid","","","html-slider-response","457","453578","0.0-4.0-10.52-0.52","","","","Rate your confidence","1",""
"298.19999998807907","i","choice","right","i","experimental","464","455644","0.0-4.0-8.53","true","54","2.9499999999999997","","",""
"801.8999999761581","4","confid","","","html-slider-response","466","456948","0.0-4.0-10.53-0.53","","","","Rate your confidence","1",""
"411.7999999523163","i","choice","right","i","experimental","473","459125","0.0-4.0-8.54","true","55","2.8499999999999996","","",""
"2764.100000023842","4","confid","","","html-slider-response","475","462390","0.0-4.0-10.54-0.54","","","","Rate your confidence","1",""
"46.10000002384186","e","choice","left","e","experimental","482","464205","0.0-4.0-8.55","true","56","2.8499999999999996","","",""
"1108.5","4","confid","","","html-slider-response","484","465815","0.0-4.0-10.55-0.55","","","","Rate your confidence","1",""
"96.29999995231628","i","choice","right","i","experimental","491","467676","0.0-4.0-8.56","true","57","2.7499999999999996","","",""
"1905","4","confid","","","html-slider-response","493","470083","0.0-4.0-10.56-0.56","","","","Rate your confidence","1",""
"213.60000002384186","e","choice","left","e","experimental","500","472060","0.0-4.0-8.57","true","58","2.7499999999999996","","",""
"5246.299999952316","3","confid","","","html-slider-response","502","477808","0.0-4.0-10.57-0.57","","","","Rate your confidence","1",""
"454.19999998807907","e","choice","right","i","experimental","509","480028","0.0-4.0-8.58","false","59","2.6499999999999995","","",""
"2018.5999999642372","4","confid","","","html-slider-response","511","482548","0.0-4.0-10.58-0.58","","","","Rate your confidence","1",""
"194.79999995231628","e","choice","left","e","experimental","518","484509","0.0-4.0-8.59","true","60","2.7499999999999996","","",""
"965.3000000119209","4","confid","","","html-slider-response","520","485975","0.0-4.0-10.59-0.59","","","","Rate your confidence","1",""
"197.4000000357628","e","choice","left","e","experimental","527","487941","0.0-4.0-8.60","true","61","2.7499999999999996","","",""
"2133.5","3","confid","","","html-slider-response","529","490577","0.0-4.0-10.60-0.60","","","","Rate your confidence","1",""
"112.80000001192093","e","choice","right","i","experimental","536","492454","0.0-4.0-8.61","false","62","2.6499999999999995","","",""
"1191.8999999761581","4","confid","","","html-slider-response","538","494148","0.0-4.0-10.61-0.61","","","","Rate your confidence","1",""
"204.89999997615814","e","choice","left","e","experimental","545","496117","0.0-4.0-8.62","true","63","2.7499999999999996","","",""
"1336.1000000238419","4","confid","","","html-slider-response","547","497955","0.0-4.0-10.62-0.62","","","","Rate your confidence","1",""
"233.39999997615814","i","choice","right","i","experimental","554","499957","0.0-4.0-8.63","true","64","2.7499999999999996","","",""
"1062.6000000238419","4","confid","","","html-slider-response","556","501521","0.0-4.0-10.63-0.63","","","","Rate your confidence","1",""
"70.89999997615814","i","choice","right","i","experimental","563","503357","0.0-4.0-8.64","true","65","2.6499999999999995","","",""
"1511.800000011921","4","confid","","","html-slider-response","565","505371","0.0-4.0-10.64-0.64","","","","Rate your confidence","1",""
"196.80000001192093","e","choice","left","e","experimental","572","507333","0.0-4.0-8.65","true","66","2.6499999999999995","","",""
"1336.8999999761581","4","confid","","","html-slider-response","574","509171","0.0-4.0-10.65-0.65","","","","Rate your confidence","1",""
"269.9000000357628","i","choice","right","i","experimental","581","511205","0.0-4.0-8.66","true","67","2.5499999999999994","","",""
"1023.5","4","confid","","","html-slider-response","583","512730","0.0-4.0-10.66-0.66","","","","Rate your confidence","1",""
"375.30000001192093","e","choice","left","e","experimental","590","514869","0.0-4.0-8.67","true","68","2.5499999999999994","","",""
"1686.199999988079","4","confid","","","html-slider-response","592","517056","0.0-4.0-10.67-0.67","","","","Rate your confidence","1",""
"242.5","i","choice","right","i","experimental","600","615701","0.0-4.0-8.68","true","69","2.4499999999999993","","",""
"1617.5999999642372","4","confid","","","html-slider-response","602","617820","0.0-4.0-10.68-0.68","","","","Rate your confidence","1",""
"249.0999999642372","i","choice","left","e","experimental","609","619837","0.0-4.0-8.69","false","70","2.4499999999999993","","",""
"1481.8999999761581","3","confid","","","html-slider-response","611","621821","0.0-4.0-10.69-0.69","","","","Rate your confidence","1",""
"186","i","choice","right","i","experimental","618","623773","0.0-4.0-8.70","true","71","2.5499999999999994","","",""
"937.5","3","confid","","","html-slider-response","620","625212","0.0-4.0-10.70-0.70","","","","Rate your confidence","1",""
"263.4000000357628","i","choice","left","e","experimental","627","627244","0.0-4.0-8.71","false","72","2.5499999999999994","","",""
"1553.300000011921","3","confid","","","html-slider-response","629","629301","0.0-4.0-10.71-0.71","","","","Rate your confidence","1",""
"275.89999997615814","e","choice","left","e","experimental","636","631341","0.0-4.0-8.72","true","73","2.6499999999999995","","",""
"1181.5999999642372","4","confid","","","html-slider-response","638","633024","0.0-4.0-10.72-0.72","","","","Rate your confidence","1",""
"112.79999995231628","i","choice","right","i","experimental","645","634901","0.0-4.0-8.73","true","74","2.6499999999999995","","",""
"2560.800000011921","4","confid","","","html-slider-response","647","637963","0.0-4.0-10.73-0.73","","","","Rate your confidence","1",""
"134","e","choice","left","e","experimental","654","639860","0.0-4.0-8.74","true","75","2.5499999999999994","","",""
"932.1999999880791","4","confid","","","html-slider-response","656","641295","0.0-4.0-10.74-0.74","","","","Rate your confidence","1",""
"225.5","i","choice","right","i","experimental","663","643285","0.0-4.0-8.75","true","76","2.5499999999999994","","",""
"1328.5","4","confid","","","html-slider-response","665","645115","0.0-4.0-10.75-0.75","","","","Rate your confidence","1",""
"535.5","e","choice","left","e","experimental","672","647413","0.0-4.0-8.76","true","77","2.4499999999999993","","",""
"1284.1000000238419","3","confid","","","html-slider-response","674","649198","0.0-4.0-10.76-0.76","","","","Rate your confidence","1",""
"436.69999998807907","i","choice","right","i","experimental","681","651396","0.0-4.0-8.77","true","78","2.4499999999999993","","",""
"1095.6000000238419","4","confid","","","html-slider-response","683","652994","0.0-4.0-10.77-0.77","","","","Rate your confidence","1",""
"344.19999998807907","e","choice","left","e","experimental","690","655101","0.0-4.0-8.78","true","79","2.349999999999999","","",""
"668.1000000238419","4","confid","","","html-slider-response","692","656270","0.0-4.0-10.78-0.78","","","","Rate your confidence","1",""
"585.1999999880791","e","choice","right","i","experimental","699","658621","0.0-4.0-8.79","false","80","2.349999999999999","","",""
"1489.800000011921","4","confid","","","html-slider-response","701","660613","0.0-4.0-10.79-0.79","","","","Rate your confidence","1",""
"343.89999997615814","e","choice","left","e","experimental","708","662725","0.0-4.0-8.80","true","81","2.4499999999999993","","",""
"1118.5","3","confid","","","html-slider-response","710","664346","0.0-4.0-10.80-0.80","","","","Rate your confidence","1",""
"99.89999997615814","i","choice","right","i","experimental","717","666212","0.0-4.0-8.81","true","82","2.4499999999999993","","",""
"1076.0999999642372","3","confid","","","html-slider-response","719","667790","0.0-4.0-10.81-0.81","","","","Rate your confidence","1",""
"160.89999997615814","e","choice","left","e","experimental","726","669717","0.0-4.0-8.82","true","83","2.349999999999999","","",""
"1243.699999988079","4","confid","","","html-slider-response","728","671464","0.0-4.0-10.82-0.82","","","","Rate your confidence","1",""
"689.0999999642372","e","choice","right","i","experimental","735","673917","0.0-4.0-8.83","false","84","2.349999999999999","","",""
"938.7000000476837","5","confid","","","html-slider-response","737","675358","0.0-4.0-10.83-0.83","","","","Rate your confidence","1",""
"188.70000004768372","e","choice","left","e","experimental","744","677309","0.0-4.0-8.84","true","85","2.4499999999999993","","",""
"2282.599999964237","3","confid","","","html-slider-response","746","680093","0.0-4.0-10.84-0.84","","","","Rate your confidence","1",""
"34.39999997615814","e","choice","right","i","experimental","753","681892","0.0-4.0-8.85","false","86","2.4499999999999993","","",""
"1422.5","4","confid","","","html-slider-response","755","683816","0.0-4.0-10.85-0.85","","","","Rate your confidence","1",""
"210.19999998807907","i","choice","right","i","experimental","762","685789","0.0-4.0-8.86","true","87","2.5499999999999994","","",""
"1474.4000000357628","4","confid","","","html-slider-response","764","687764","0.0-4.0-10.86-0.86","","","","Rate your confidence","1",""
"348.2000000476837","e","choice","left","e","experimental","771","689876","0.0-4.0-8.87","true","88","2.5499999999999994","","",""
"1132.4000000357628","4","confid","","","html-slider-response","773","691510","0.0-4.0-10.87-0.87","","","","Rate your confidence","1",""
"332.30000001192093","i","choice","left","e","experimental","780","693612","0.0-4.0-8.88","false","89","2.4499999999999993","","",""
"1024.800000011921","5","confid","","","html-slider-response","782","695138","0.0-4.0-10.88-0.88","","","","Rate your confidence","1",""
"219.30000001192093","i","choice","right","i","experimental","789","697125","0.0-4.0-8.89","true","90","2.5499999999999994","","",""
"1187.7999999523163","5","confid","","","html-slider-response","791","698814","0.0-4.0-10.89-0.89","","","","Rate your confidence","1",""
"231.5","i","choice","right","i","experimental","798","700812","0.0-4.0-8.90","true","91","2.5499999999999994","","",""
"841","5","confid","","","html-slider-response","800","702155","0.0-4.0-10.90-0.90","","","","Rate your confidence","1",""
"303.19999998807907","e","choice","left","e","experimental","807","704228","0.0-4.0-8.91","true","92","2.4499999999999993","","",""
"1073.300000011921","3","confid","","","html-slider-response","809","705803","0.0-4.0-10.91-0.91","","","","Rate your confidence","1",""
"308.10000002384186","i","choice","right","i","experimental","816","707876","0.0-4.0-8.92","true","93","2.4499999999999993","","",""
"911","4","confid","","","html-slider-response","818","709288","0.0-4.0-10.92-0.92","","","","Rate your confidence","1",""
"506.5","e","choice","left","e","experimental","825","711557","0.0-4.0-8.93","true","94","2.349999999999999","","",""
"775.3999999761581","3","confid","","","html-slider-response","827","712833","0.0-4.0-10.93-0.93","","","","Rate your confidence","1",""
"274.4000000357628","e","choice","left","e","experimental","834","714876","0.0-4.0-8.94","true","95","2.349999999999999","","",""
"1091.3999999761581","4","confid","","","html-slider-response","836","716469","0.0-4.0-10.94-0.94","","","","Rate your confidence","1",""
"233.10000002384186","i","choice","right","i","experimental","843","718469","0.0-4.0-8.95","true","96","2.249999999999999","","",""
"1020.5999999642372","5","confid","","","html-slider-response","845","719992","0.0-4.0-10.95-0.95","","","","Rate your confidence","1",""
"203","i","choice","right","i","experimental","852","721957","0.0-4.0-8.96","true","97","2.249999999999999","","",""
"1039.8999999761581","5","confid","","","html-slider-response","854","723499","0.0-4.0-10.96-0.96","","","","Rate your confidence","1",""
"325.9000000357628","e","choice","left","e","experimental","861","725589","0.0-4.0-8.97","true","98","2.149999999999999","","",""
"1886.4000000357628","5","confid","","","html-slider-response","863","727977","0.0-4.0-10.97-0.97","","","","Rate your confidence","1",""
"268.4000000357628","e","choice","left","e","experimental","870","730012","0.0-4.0-8.98","true","99","2.149999999999999","","",""
"1252.199999988079","4","confid","","","html-slider-response","872","731766","0.0-4.0-10.98-0.98","","","","Rate your confidence","1",""
"237.70000004768372","i","choice","right","i","experimental","879","733773","0.0-4.0-8.99","true","100","2.049999999999999","","",""
"1100","4","confid","","","html-slider-response","881","735375","0.0-4.0-10.99-0.99","","","","Rate your confidence","1",""
"498.9000000357628","e","choice","right","i","experimental","888","737637","0.0-4.0-8.100","false","101","2.049999999999999","","",""
"1516.5999999642372","4","confid","","","html-slider-response","890","739656","0.0-4.0-10.100-0.100","","","","Rate your confidence","1",""
"312.10000002384186","i","choice","left","e","experimental","897","741733","0.0-4.0-8.101","false","102","2.149999999999999","","",""
"1393.5","4","confid","","","html-slider-response","899","743629","0.0-4.0-10.101-0.101","","","","Rate your confidence","1",""
"180.5999999642372","e","choice","right","i","experimental","906","745573","0.0-4.0-8.102","false","103","2.249999999999999","","",""
"1017.6999999880791","3","confid","","","html-slider-response","908","747098","0.0-4.0-10.102-0.102","","","","Rate your confidence","1",""
"169","e","choice","left","e","experimental","915","749037","0.0-4.0-8.103","true","104","2.349999999999999","","",""
"1363.300000011921","5","confid","","","html-slider-response","917","750902","0.0-4.0-10.103-0.103","","","","Rate your confidence","1",""
"222.5","e","choice","left","e","experimental","924","752893","0.0-4.0-8.104","true","105","2.349999999999999","","",""
"1571.7000000476837","4","confid","","","html-slider-response","926","754966","0.0-4.0-10.104-0.104","","","","Rate your confidence","1",""
"230.69999998807907","i","choice","right","i","experimental","933","756965","0.0-4.0-8.105","true","106","2.249999999999999","","",""
"1412.3999999761581","4","confid","","","html-slider-response","935","758880","0.0-4.0-10.105-0.105","","","","Rate your confidence","1",""
"212","e","choice","left","e","experimental","942","760860","0.0-4.0-8.106","true","107","2.249999999999999","","",""
"1057.800000011921","4","confid","","","html-slider-response","944","762420","0.0-4.0-10.106-0.106","","","","Rate your confidence","1",""
"224.19999998807907","i","choice","right","i","experimental","951","764413","0.0-4.0-8.107","true","108","2.149999999999999","","",""
"1078.8999999761581","4","confid","","","html-slider-response","953","765993","0.0-4.0-10.107-0.107","","","","Rate your confidence","1",""
"112.30000001192093","e","choice","left","e","experimental","960","767869","0.0-4.0-8.108","true","109","2.149999999999999","","",""
"1955.4000000357628","5","confid","","","html-slider-response","962","770326","0.0-4.0-10.108-0.108","","","","Rate your confidence","1",""
"354.9000000357628","e","choice","right","i","experimental","969","772445","0.0-4.0-8.109","false","110","2.049999999999999","","",""
"976.4000000357628","4","confid","","","html-slider-response","971","773923","0.0-4.0-10.109-0.109","","","","Rate your confidence","1",""
"399.89999997615814","i","choice","right","i","experimental","979","777757","0.0-4.0-8.110","true","111","2.149999999999999","","",""
"865.1999999880791","4","confid","","","html-slider-response","981","779125","0.0-4.0-10.110-0.110","","","","Rate your confidence","1",""
"317.5999999642372","e","choice","left","e","experimental","988","781212","0.0-4.0-8.111","true","112","2.149999999999999","","",""
"866.4000000357628","3","confid","","","html-slider-response","990","782581","0.0-4.0-10.111-0.111","","","","Rate your confidence","1",""
"763.8000000119209","i","choice","right","i","experimental","997","785109","0.0-4.0-8.112","true","113","2.049999999999999","","",""
"1962.5999999642372","1","confid","","","html-slider-response","999","787573","0.0-4.0-10.112-0.112","","","","Rate your confidence","1",""
"764.8000000119209","e","choice","left","e","experimental","1006","790101","0.0-4.0-8.113","true","114","2.049999999999999","","",""
"1148.3999999761581","3","confid","","","html-slider-response","1008","791751","0.0-4.0-10.113-0.113","","","","Rate your confidence","1",""
"1092.199999988079","e","choice","right","i","experimental","1015","794612","0.0-4.0-8.114","false","115","1.9499999999999988","","",""
"1833.8999999761581","1","confid","","","html-slider-response","1017","796948","0.0-4.0-10.114-0.114","","","","Rate your confidence","1",""
"535.3999999761581","i","choice","left","e","experimental","1024","799253","0.0-4.0-8.115","false","116","2.049999999999999","","",""
"1811.300000011921","3","confid","","","html-slider-response","1026","801565","0.0-4.0-10.115-0.115","","","","Rate your confidence","1",""
"223.5","i","choice","left","e","experimental","1033","803556","0.0-4.0-8.116","false","117","2.149999999999999","","",""
"1249.800000011921","3","confid","","","html-slider-response","1035","805308","0.0-4.0-10.116-0.116","","","","Rate your confidence","1",""
"219.29999995231628","i","choice","right","i","experimental","1042","807292","0.0-4.0-8.117","true","118","2.249999999999999","","",""
"1782.1000000238419","3","confid","","","html-slider-response","1044","809579","0.0-4.0-10.117-0.117","","","","Rate your confidence","1",""
"348.60000002384186","i","choice","right","i","experimental","1051","811692","0.0-4.0-8.118","true","119","2.249999999999999","","",""
"1384.800000011921","3","confid","","","html-slider-response","1053","813579","0.0-4.0-10.118-0.118","","","","Rate your confidence","1",""
"256.69999998807907","e","choice","left","e","experimental","1060","815604","0.0-4.0-8.119","true","120","2.149999999999999","","",""
"1201.1000000238419","2","confid","","","html-slider-response","1062","817308","0.0-4.0-10.119-0.119","","","","Rate your confidence","1",""
"715.1999999880791","i","choice","left","e","experimental","1069","819789","0.0-4.0-8.120","false","121","2.149999999999999","","",""
"1037.2000000476837","2","confid","","","html-slider-response","1071","821328","0.0-4.0-10.120-0.120","","","","Rate your confidence","1",""
"392.39999997615814","i","choice","right","i","experimental","1078","823485","0.0-4.0-8.121","true","122","2.249999999999999","","",""
"1139.8999999761581","1","confid","","","html-slider-response","1080","825126","0.0-4.0-10.121-0.121","","","","Rate your confidence","1",""
"642.8000000119209","e","choice","right","i","experimental","1087","827532","0.0-4.0-8.122","false","123","2.249999999999999","","",""
"957","3","confid","","","html-slider-response","1089","828991","0.0-4.0-10.122-0.122","","","","Rate your confidence","1",""
"344.80000001192093","e","choice","left","e","experimental","1096","831101","0.0-4.0-8.123","true","124","2.349999999999999","","",""
"1300.8999999761581","2","confid","","","html-slider-response","1098","832903","0.0-4.0-10.123-0.123","","","","Rate your confidence","1",""
"264.0999999642372","i","choice","right","i","experimental","1105","834933","0.0-4.0-8.124","true","125","2.349999999999999","","",""
"1072.199999988079","4","confid","","","html-slider-response","1107","836508","0.0-4.0-10.124-0.124","","","","Rate your confidence","1",""
"331.80000001192093","e","choice","left","e","experimental","1114","838604","0.0-4.0-8.125","true","126","2.249999999999999","","",""
"2048.399999976158","4","confid","","","html-slider-response","1116","841156","0.0-4.0-10.125-0.125","","","","Rate your confidence","1",""
"240.5","i","choice","left","e","experimental","1123","843164","0.0-4.0-8.126","false","127","2.249999999999999","","",""
"1548.2999999523163","1","confid","","","html-slider-response","1125","845213","0.0-4.0-10.126-0.126","","","","Rate your confidence","1",""
"127.90000003576279","i","choice","right","i","experimental","1132","847108","0.0-4.0-8.127","true","128","2.349999999999999","","",""
"1442.6000000238419","3","confid","","","html-slider-response","1134","849053","0.0-4.0-10.127-0.127","","","","Rate your confidence","1",""
"261.5","i","choice","right","i","experimental","1141","851085","0.0-4.0-8.128","true","129","2.349999999999999","","",""
"1072.0999999642372","3","confid","","","html-slider-response","1143","852658","0.0-4.0-10.128-0.128","","","","Rate your confidence","1",""
"116.10000002384186","e","choice","left","e","experimental","1150","854540","0.0-4.0-8.129","true","130","2.249999999999999","","",""
"940","3","confid","","","html-slider-response","1152","855984","0.0-4.0-10.129-0.129","","","","Rate your confidence","1",""
"582.1000000238419","e","choice","left","e","experimental","1159","858333","0.0-4.0-8.130","true","131","2.249999999999999","","",""
"1411.300000011921","4","confid","","","html-slider-response","1161","860245","0.0-4.0-10.130-0.130","","","","Rate your confidence","1",""
"204.30000001192093","i","choice","right","i","experimental","1168","862221","0.0-4.0-8.131","true","132","2.149999999999999","","",""
"1305.800000011921","3","confid","","","html-slider-response","1170","864028","0.0-4.0-10.131-0.131","","","","Rate your confidence","1",""
"195.4000000357628","e","choice","left","e","experimental","1177","865989","0.0-4.0-8.132","true","133","2.149999999999999","","",""
"1318.7000000476837","5","confid","","","html-slider-response","1179","867809","0.0-4.0-10.132-0.132","","","","Rate your confidence","1",""
"576.1999999880791","i","choice","right","i","experimental","1186","870149","0.0-4.0-8.133","true","134","2.049999999999999","","",""
"963.6000000238419","4","confid","","","html-slider-response","1188","871614","0.0-4.0-10.133-0.133","","","","Rate your confidence","1",""
"214.60000002384186","i","choice","right","i","experimental","1195","873596","0.0-4.0-8.134","true","135","2.049999999999999","","",""
"1057.0999999642372","4","confid","","","html-slider-response","1197","875156","0.0-4.0-10.134-0.134","","","","Rate your confidence","1",""
"184.79999995231628","e","choice","left","e","experimental","1204","877109","0.0-4.0-8.135","true","136","1.9499999999999988","","",""
"1207.7000000476837","3","confid","","","html-slider-response","1206","878819","0.0-4.0-10.135-0.135","","","","Rate your confidence","1",""
"252.69999998807907","e","choice","left","e","experimental","1213","880837","0.0-4.0-8.136","true","137","1.9499999999999988","","",""
"1082.7999999523163","3","confid","","","html-slider-response","1215","882425","0.0-4.0-10.136-0.136","","","","Rate your confidence","1",""
"159","i","choice","right","i","experimental","1222","884349","0.0-4.0-8.137","true","138","1.8499999999999988","","",""
"1271.3999999761581","3","confid","","","html-slider-response","1224","886122","0.0-4.0-10.137-0.137","","","","Rate your confidence","1",""
"662.6999999880791","i","choice","left","e","experimental","1231","888549","0.0-4.0-8.138","false","139","1.8499999999999988","","",""
"1004.4000000357628","4","confid","","","html-slider-response","1233","890055","0.0-4.0-10.138-0.138","","","","Rate your confidence","1",""
"326.2999999523163","i","choice","right","i","experimental","1240","892149","0.0-4.0-8.139","true","140","1.9499999999999988","","",""
"1118","4","confid","","","html-slider-response","1242","893768","0.0-4.0-10.139-0.139","","","","Rate your confidence","1",""
"186.80000001192093","e","choice","left","e","experimental","1249","895717","0.0-4.0-8.140","true","141","1.9499999999999988","","",""
"1070.9000000357628","3","confid","","","html-slider-response","1251","897290","0.0-4.0-10.140-0.140","","","","Rate your confidence","1",""
"818.3000000119209","e","choice","right","i","experimental","1258","899876","0.0-4.0-8.141","false","142","1.8499999999999988","","",""
"941.5","3","confid","","","html-slider-response","1260","901319","0.0-4.0-10.141-0.141","","","","Rate your confidence","1",""
"246.89999997615814","i","choice","left","e","experimental","1267","903333","0.0-4.0-8.142","false","143","1.9499999999999988","","",""
"2111.300000011921","3","confid","","","html-slider-response","1269","905946","0.0-4.0-10.142-0.142","","","","Rate your confidence","1",""
"301.60000002384186","e","choice","right","i","experimental","1276","908012","0.0-4.0-8.143","false","144","2.049999999999999","","",""
"1095.199999988079","4","confid","","","html-slider-response","1278","909610","0.0-4.0-10.143-0.143","","","","Rate your confidence","1",""
"347.39999997615814","i","choice","left","e","experimental","1285","911725","0.0-4.0-8.144","false","145","2.149999999999999","","",""
"1042.699999988079","4","confid","","","html-slider-response","1287","913269","0.0-4.0-10.144-0.144","","","","Rate your confidence","1",""
"221.9000000357628","i","choice","right","i","experimental","1294","915261","0.0-4.0-8.145","true","146","2.249999999999999","","",""
"1285.5","4","confid","","","html-slider-response","1296","917048","0.0-4.0-10.145-0.145","","","","Rate your confidence","1",""
"1655.800000011921","e","choice","left","e","experimental","1303","920470","0.0-4.0-8.146","true","147","2.249999999999999","","",""
"1128.5","1","confid","","","html-slider-response","1305","922100","0.0-4.0-10.146-0.146","","","","Rate your confidence","1",""
"214.19999998807907","i","choice","right","i","experimental","1312","924077","0.0-4.0-8.147","true","148","2.149999999999999","","",""
"1388.699999988079","3","confid","","","html-slider-response","1314","925968","0.0-4.0-10.147-0.147","","","","Rate your confidence","1",""
"269.39999997615814","i","choice","left","e","experimental","1321","928005","0.0-4.0-8.148","false","149","2.149999999999999","","",""
"1024.6000000238419","3","confid","","","html-slider-response","1323","929532","0.0-4.0-10.148-0.148","","","","Rate your confidence","1",""
"217","i","choice","right","i","experimental","1330","931517","0.0-4.0-8.149","true","150","2.249999999999999","","",""
"1317.6000000238419","3","confid","","","html-slider-response","1332","933336","0.0-4.0-10.149-0.149","","","","Rate your confidence","1",""
"157.80000001192093","i","choice","left","e","experimental","1339","935261","0.0-4.0-8.150","false","151","2.249999999999999","","",""
"1447.300000011921","3","confid","","","html-slider-response","1341","937210","0.0-4.0-10.150-0.150","","","","Rate your confidence","1",""
"224","i","choice","right","i","experimental","1348","939197","0.0-4.0-8.151","true","152","2.349999999999999","","",""
"1597.800000011921","3","confid","","","html-slider-response","1350","941299","0.0-4.0-10.151-0.151","","","","Rate your confidence","1",""
"260.60000002384186","i","choice","right","i","experimental","1358","1123341","0.0-4.0-8.152","true","153","2.349999999999999","","",""
"1090.1000000238419","3","confid","","","html-slider-response","1360","1124932","0.0-4.0-10.152-0.152","","","","Rate your confidence","1",""
"238.60000002384186","i","choice","left","e","experimental","1367","1126941","0.0-4.0-8.153","false","154","2.249999999999999","","",""
"878.3000000119209","3","confid","","","html-slider-response","1369","1128320","0.0-4.0-10.153-0.153","","","","Rate your confidence","1",""
"236.4000000357628","e","choice","right","i","experimental","1376","1130325","0.0-4.0-8.154","false","155","2.349999999999999","","",""
"1161.300000011921","3","confid","","","html-slider-response","1378","1131987","0.0-4.0-10.154-0.154","","","","Rate your confidence","1",""
"62.59999996423721","i","choice","left","e","experimental","1385","1133821","0.0-4.0-8.155","false","156","2.4499999999999993","","",""
"933.8999999761581","2","confid","","","html-slider-response","1387","1135256","0.0-4.0-10.155-0.155","","","","Rate your confidence","1",""
"740.1000000238419","i","choice","right","i","experimental","1394","1137764","0.0-4.0-8.156","true","157","2.5499999999999994","","",""
"1406.5","2","confid","","","html-slider-response","1396","1139672","0.0-4.0-10.156-0.156","","","","Rate your confidence","1",""
"241","i","choice","left","e","experimental","1403","1141676","0.0-4.0-8.157","false","158","2.5499999999999994","","",""
"1557.699999988079","3","confid","","","html-slider-response","1405","1143736","0.0-4.0-10.157-0.157","","","","Rate your confidence","1",""
"176","e","choice","left","e","experimental","1412","1145676","0.0-4.0-8.158","true","159","2.6499999999999995","","",""
"1393.199999988079","5","confid","","","html-slider-response","1414","1147571","0.0-4.0-10.158-0.158","","","","Rate your confidence","1",""
"208.70000004768372","i","choice","right","i","experimental","1421","1149541","0.0-4.0-8.159","true","160","2.6499999999999995","","",""
"1304.1000000238419","5","confid","","","html-slider-response","1423","1151346","0.0-4.0-10.159-0.159","","","","Rate your confidence","1",""
"690.8000000119209","e","choice","left","e","experimental","1430","1153805","0.0-4.0-8.160","true","161","2.5499999999999994","","",""
"1033.5","4","confid","","","html-slider-response","1432","1155340","0.0-4.0-10.160-0.160","","","","Rate your confidence","1",""
"394.2999999523163","i","choice","right","i","experimental","1439","1157501","0.0-4.0-8.161","true","162","2.5499999999999994","","",""
"1217.4000000357628","2","confid","","","html-slider-response","1441","1159220","0.0-4.0-10.161-0.161","","","","Rate your confidence","1",""
"148","e","choice","left","e","experimental","1448","1161133","0.0-4.0-8.162","true","163","2.4499999999999993","","",""
"1259.800000011921","2","confid","","","html-slider-response","1450","1162894","0.0-4.0-10.162-0.162","","","","Rate your confidence","1",""
"339","i","choice","right","i","experimental","1457","1164996","0.0-4.0-8.163","true","164","2.4499999999999993","","",""
"1157.9000000357628","5","confid","","","html-slider-response","1459","1166655","0.0-4.0-10.163-0.163","","","","Rate your confidence","1",""
"120.90000003576279","i","choice","right","i","experimental","1466","1168548","0.0-4.0-8.164","true","165","2.349999999999999","","",""
"1282","3","confid","","","html-slider-response","1468","1170332","0.0-4.0-10.164-0.164","","","","Rate your confidence","1",""
"563.8000000119209","e","choice","left","e","experimental","1475","1172663","0.0-4.0-8.165","true","166","2.349999999999999","","",""
"1978.7000000476837","4","confid","","","html-slider-response","1477","1175144","0.0-4.0-10.165-0.165","","","","Rate your confidence","1",""
"264.89999997615814","i","choice","left","e","experimental","1484","1177173","0.0-4.0-8.166","false","167","2.249999999999999","","",""
"1344.800000011921","3","confid","","","html-slider-response","1486","1179020","0.0-4.0-10.166-0.166","","","","Rate your confidence","1",""
"97.80000001192093","e","choice","right","i","experimental","1493","1180885","0.0-4.0-8.167","false","168","2.349999999999999","","",""
"1284.5","5","confid","","","html-slider-response","1495","1182672","0.0-4.0-10.167-0.167","","","","Rate your confidence","1",""
"701.9000000357628","i","choice","right","i","experimental","1502","1185142","0.0-4.0-8.168","true","169","2.4499999999999993","","",""
"1361.4000000357628","5","confid","","","html-slider-response","1504","1187005","0.0-4.0-10.168-0.168","","","","Rate your confidence","1",""
"58.10000002384186","i","choice","left","e","experimental","1511","1188829","0.0-4.0-8.169","false","170","2.4499999999999993","","",""
"1257.1000000238419","3","confid","","","html-slider-response","1513","1190588","0.0-4.0-10.169-0.169","","","","Rate your confidence","1",""
"133.29999995231628","i","choice","right","i","experimental","1520","1192486","0.0-4.0-8.170","true","171","2.5499999999999994","","",""
"1202.5","5","confid","","","html-slider-response","1522","1194194","0.0-4.0-10.170-0.170","","","","Rate your confidence","1",""
"1638.5999999642372","i","choice","left","e","experimental","1529","1197597","0.0-4.0-8.171","false","172","2.5499999999999994","","",""
"1276.5","1","confid","","","html-slider-response","1531","1199376","0.0-4.0-10.171-0.171","","","","Rate your confidence","1",""
"1429.199999988079","e","choice","right","i","experimental","1538","1202573","0.0-4.0-8.172","false","173","2.6499999999999995","","",""
"1744.0999999642372","1","confid","","","html-slider-response","1540","1204819","0.0-4.0-10.172-0.172","","","","Rate your confidence","1",""
"722.3999999761581","e","choice","left","e","experimental","1547","1207309","0.0-4.0-8.173","true","174","2.7499999999999996","","",""
"1191.800000011921","2","confid","","","html-slider-response","1549","1209004","0.0-4.0-10.173-0.173","","","","Rate your confidence","1",""
"227.10000002384186","i","choice","right","i","experimental","1556","1210997","0.0-4.0-8.174","true","175","2.7499999999999996","","",""
"1646.9000000357628","4","confid","","","html-slider-response","1558","1213145","0.0-4.0-10.174-0.174","","","","Rate your confidence","1",""
"118.60000002384186","i","choice","left","e","experimental","1565","1215029","0.0-4.0-8.175","false","176","2.6499999999999995","","",""
"1273.300000011921","1","confid","","","html-slider-response","1567","1216804","0.0-4.0-10.175-0.175","","","","Rate your confidence","1",""
"250.5","i","choice","right","i","experimental","1574","1218822","0.0-4.0-8.176","true","177","2.7499999999999996","","",""
"1203.199999988079","4","confid","","","html-slider-response","1576","1220527","0.0-4.0-10.176-0.176","","","","Rate your confidence","1",""
"342.19999998807907","e","choice","left","e","experimental","1583","1222638","0.0-4.0-8.177","true","178","2.7499999999999996","","",""
"1338.199999988079","2","confid","","","html-slider-response","1585","1224478","0.0-4.0-10.177-0.177","","","","Rate your confidence","1",""
"795.8000000119209","i","choice","right","i","experimental","1592","1227038","0.0-4.0-8.178","true","179","2.6499999999999995","","",""
"1365.5","1","confid","","","html-slider-response","1594","1228905","0.0-4.0-10.178-0.178","","","","Rate your confidence","1",""
"254.10000002384186","e","choice","left","e","experimental","1601","1230925","0.0-4.0-8.179","true","180","2.6499999999999995","","",""
"1150.3999999761581","1","confid","","","html-slider-response","1603","1232578","0.0-4.0-10.179-0.179","","","","Rate your confidence","1",""
"268.89999997615814","e","choice","left","e","experimental","1610","1234613","0.0-4.0-8.180","true","181","2.5499999999999994","","",""
"1691.9000000357628","3","confid","","","html-slider-response","1612","1236807","0.0-4.0-10.180-0.180","","","","Rate your confidence","1",""
"10.200000047683716","e","choice","right","i","experimental","1619","1238589","0.0-4.0-8.181","false","182","2.5499999999999994","","",""
"1274","1","confid","","","html-slider-response","1621","1240365","0.0-4.0-10.181-0.181","","","","Rate your confidence","1",""
"262.10000002384186","e","choice","right","i","experimental","1628","1242397","0.0-4.0-8.182","false","183","2.6499999999999995","","",""
"1429.300000011921","1","confid","","","html-slider-response","1630","1244328","0.0-4.0-10.182-0.182","","","","Rate your confidence","1",""
"470","e","choice","left","e","experimental","1637","1246565","0.0-4.0-8.183","true","184","2.7499999999999996","","",""
"1451.1000000238419","5","confid","","","html-slider-response","1639","1248522","0.0-4.0-10.183-0.183","","","","Rate your confidence","1",""
"46.90000003576279","i","choice","right","i","experimental","1646","1250334","0.0-4.0-8.184","true","185","2.7499999999999996","","",""
"1016.0999999642372","3","confid","","","html-slider-response","1648","1251851","0.0-4.0-10.184-0.184","","","","Rate your confidence","1",""
"42","e","choice","left","e","experimental","1655","1253661","0.0-4.0-8.185","true","186","2.6499999999999995","","",""
"1346.5","5","confid","","","html-slider-response","1657","1255509","0.0-4.0-10.185-0.185","","","","Rate your confidence","1",""
"234.10000002384186","e","choice","left","e","experimental","1664","1257509","0.0-4.0-8.186","true","187","2.6499999999999995","","",""
"864.5","4","confid","","","html-slider-response","1666","1258876","0.0-4.0-10.186-0.186","","","","Rate your confidence","1",""
"48.89999997615814","e","choice","right","i","experimental","1673","1260693","0.0-4.0-8.187","false","188","2.5499999999999994","","",""
"1488.699999988079","2","confid","","","html-slider-response","1675","1262683","0.0-4.0-10.187-0.187","","","","Rate your confidence","1",""
"267.60000002384186","i","choice","left","e","experimental","1682","1264717","0.0-4.0-8.188","false","189","2.6499999999999995","","",""
"1361.800000011921","2","confid","","","html-slider-response","1684","1266582","0.0-4.0-10.188-0.188","","","","Rate your confidence","1",""
"85.19999998807907","i","choice","right","i","experimental","1691","1268429","0.0-4.0-8.189","true","190","2.7499999999999996","","",""
"1859.4000000357628","5","confid","","","html-slider-response","1693","1270790","0.0-4.0-10.189-0.189","","","","Rate your confidence","1",""
"179.89999997615814","i","choice","left","e","experimental","1700","1272733","0.0-4.0-8.190","false","191","2.7499999999999996","","",""
"1323","2","confid","","","html-slider-response","1702","1274558","0.0-4.0-10.190-0.190","","","","Rate your confidence","1",""
"206","e","choice","right","i","experimental","1709","1276534","0.0-4.0-8.191","false","192","2.8499999999999996","","",""
"1048.699999988079","2","confid","","","html-slider-response","1711","1278085","0.0-4.0-10.191-0.191","","","","Rate your confidence","1",""
"780.3999999761581","i","choice","right","i","experimental","1718","1280629","0.0-4.0-8.192","true","193","2.9499999999999997","","",""
"1230.1000000238419","4","confid","","","html-slider-response","1720","1282361","0.0-4.0-10.192-0.192","","","","Rate your confidence","1",""
"311","e","choice","left","e","experimental","1727","1284438","0.0-4.0-8.193","true","194","2.9499999999999997","","",""
"932.3000000119209","3","confid","","","html-slider-response","1729","1285872","0.0-4.0-10.193-0.193","","","","Rate your confidence","1","59134"
