"rt","response","task","target_side","correct_response","trial_type","trial_index","time_elapsed","internal_node_id","correct","trial_number","n_dots","stimulus","slider_start","participant"
"284.3000000715256","e","choice","left","e","practice","10","66488","0.0-4.0-8.0","true","1","4.25","","",""
"3403.5","e","choice","right","i","practice","18","72206","0.0-4.0-8.1","false","2","4.25","","",""
"425.6999999284744","i","choice","right","i","practice","26","74949","0.0-4.0-8.2","true","3","4.65","","",""
"318.5","e","choice","left","e","practice","34","77581","0.0-4.0-8.3","true","4","4.65","","",""
"407.60000002384186","e","choice","left","e","practice","42","80306","0.0-4.0-8.4","true","5","4.25","","",""
"258.7999999523163","i","choice","right","i","practice","50","82882","0.0-4.0-8.5","true","6","4.25","","",""
"287.3000000715256","e","choice","left","e","practice","58","85499","0.0-4.0-8.6","true","7","4.05","","",""
"335.2999999523163","i","choice","right","i","practice","66","88142","0.0-4.0-8.7","true","8","4.05","","",""
"303.89999997615814","i","choice","right","i","practice","74","90761","0.0-4.0-8.8","true","9","3.8499999999999996","","",""
"261.5","e","choice","left","e","practice","82","93334","0.0-4.0-8.9","true","10","3.8499999999999996","","",""
"349.39999997615814","e","choice","left","e","practice","90","96000","0.0-4.0-8.10","true","11","3.6499999999999995","","",""
"412.7999999523163","i","choice","right","i","practice","98","98723","0.0-4.0-8.11","true","12","3.6499999999999995","","",""
"73.29999995231628","i","choice","right","i","practice","106","101098","0.0-4.0-8.12","true","13","3.5499999999999994","","",""
"261.6999999284744","e","choice","left","e","practice","114","103655","0.0-4.0-8.13","true","14","3.5499999999999994","","",""
"293.2999999523163","e","choice","right","i","practice","122","106258","0.0-4.0-8.14","false","15","3.4499999999999993","","",""
"251.5","i","choice","left","e","practice","130","108823","0.0-4.0-8.15","false","16","3.5499999999999994","","",""
"299.2999999523163","e","choice","right","i","practice","138","111452","0.0-4.0-8.16","false","17","3.6499999999999995","","",""
"256.10000002384186","e","choice","left","e","practice","146","114022","0.0-4.0-8.17","true","18","3.7499999999999996","","",""
"252.60000002384186","i","choice","right","i","practice","154","116585","0.0-4.0-8.18","true","19","3.7499999999999996","","",""
"298.3000000715256","e","choice","left","e","practice","162","119196","0.0-4.0-8.19","true","20","3.6499999999999995","","",""
"282.7000000476837","e","choice","left","e","practice","170","121784","0.0-4.0-8.20","true","21","3.6499999999999995","","",""
"423","i","choice","right","i","practice","178","124530","0.0-4.0-8.21","true","22","3.5499999999999994","","",""
"270.1999999284744","i","choice","right","i","practice","186","127125","0.0-4.0-8.22","true","23","3.5499999999999994","","",""
"470.7000000476837","e","choice","left","e","practice","194","129916","0.0-4.0-8.23","true","24","3.4499999999999993","","",""
"511.5","i","choice","right","i","practice","202","132738","0.0-4.0-8.24","true","25","3.4499999999999993","","",""
"283.8000000715256","e","choice","left","e","practice","210","135351","0.0-4.0-8.25","true","26","3.349999999999999","","",""
"295.89999997615814","e","choice","left","e","experimental","221","151104","0.0-4.0-8.26","true","27","3.349999999999999","","",""
"3998.0999999046326","6","confid","","","html-slider-response","223","155612","0.0-4.0-10.26-0.26","","","","Rate your confidence","1",""
"459.6999999284744","i","choice","right","i","experimental","230","157905","0.0-4.0-8.27","true","28","3.249999999999999","","",""
"2812.600000023842","5","confid","","","html-slider-response","232","161228","0.0-4.0-10.27-0.27","","","","Rate your confidence","1",""
"328.09999990463257","e","choice","left","e","experimental","239","163356","0.0-4.0-8.28","true","29","3.249999999999999","","",""
"2573.600000023842","6","confid","","","html-slider-response","241","166433","0.0-4.0-10.28-0.28","","","","Rate your confidence","1",""
"298.60000002384186","i","choice","right","i","experimental","248","168547","0.0-4.0-8.29","true","30","3.149999999999999","","",""
"2940.0999999046326","4","confid","","","html-slider-response","250","171991","0.0-4.0-10.29-0.29","","","","Rate your confidence","1",""
"294","e","choice","right","i","experimental","257","174102","0.0-4.0-8.30","false","31","3.149999999999999","","",""
"3045.5","3","confid","","","html-slider-response","259","177656","0.0-4.0-10.30-0.30","","","","Rate your confidence","1",""
"770.2999999523163","i","choice","left","e","experimental","266","180232","0.0-4.0-8.31","false","32","3.249999999999999","","",""
"3408.899999976158","5","confid","","","html-slider-response","268","184144","0.0-4.0-10.31-0.31","","","","Rate your confidence","1",""
"501.09999990463257","i","choice","right","i","experimental","275","186466","0.0-4.0-8.32","true","33","3.349999999999999","","",""
"2164.100000023842","5","confid","","","html-slider-response","277","189146","0.0-4.0-10.32-0.32","","","","Rate your confidence","1",""
"583.1000000238419","e","choice","left","e","experimental","284","191538","0.0-4.0-8.33","true","34","3.349999999999999","","",""
"2206.600000023842","4","confid","","","html-slider-response","286","194249","0.0-4.0-10.33-0.33","","","","Rate your confidence","1",""
"692.5","e","choice","left","e","experimental","293","196749","0.0-4.0-8.34","true","35","3.249999999999999","","",""
"2248.0999999046326","6","confid","","","html-slider-response","295","199502","0.0-4.0-10.34-0.34","","","","Rate your confidence","1",""
"622.5","e","choice","right","i","experimental","302","201932","0.0-4.0-8.35","false","36","3.249999999999999","","",""
"3722.2000000476837","4","confid","","","html-slider-response","304","206160","0.0-4.0-10.35-0.35","","","","Rate your confidence","1",""
"1132.3999999761581","i","choice","right","i","experimental","311","209100","0.0-4.0-8.36","true","37","3.349999999999999","","",""
"2030.7999999523163","6","confid","","","html-slider-response","313","211637","0.0-4.0-10.36-0.36","","","","Rate your confidence","1",""
"829.0999999046326","e","choice","left","e","experimental","320","214288","0.0-4.0-8.37","true","38","3.349999999999999","","",""
"3335.6999999284744","6","confid","","","html-slider-response","322","218130","0.0-4.0-10.37-0.37","","","","Rate your confidence","1",""
"869.3000000715256","e","choice","left","e","experimental","329","220809","0.0-4.0-8.38","true","39","3.249999999999999","","",""
"2150.100000023842","6","confid","","","html-slider-response","331","223473","0.0-4.0-10.38-0.38","","","","Rate your confidence","1",""
"1061.3999999761581","e","choice","right","i","experimental","338","226332","0.0-4.0-8.39","false","40","3.249999999999999","","",""
"2034.3999999761581","4","confid","","","html-slider-response","340","228873","0.0-4.0-10.39-0.39","","","","Rate your confidence","1",""
"682.3999999761581","e","choice","left","e","experimental","347","231379","0.0-4.0-8.40","true","41","3.349999999999999","","",""
"1981.8999999761581","6","confid","","","html-slider-response","349","233865","0.0-4.0-10.40-0.40","","","","Rate your confidence","1",""
"1654","e","choice","right","i","experimental","356","237336","0.0-4.0-8.41","false","42","3.349999999999999","","",""
"1947","4","confid","","","html-slider-response","358","239783","0.0-4.0-10.41-0.41","","","","Rate your confidence","1",""
"922.5999999046326","e","choice","right","i","experimental","365","242505","0.0-4.0-8.42","false","43","3.4499999999999993","","",""
"1916.2000000476837","4","confid","","","html-slider-response","367","244924","0.0-4.0-10.42-0.42","","","","Rate your confidence","1",""
"731.4000000953674","e","choice","left","e","experimental","374","247458","0.0-4.0-8.43","true","44","3.5499999999999994","","",""
"2444.7000000476837","6","confid","","","html-slider-response","376","250407","0.0-4.0-10.43-0.43","","","","Rate your confidence","1",""
"726.8000000715256","i","choice","right","i","experimental","383","252945","0.0-4.0-8.44","true","45","3.5499999999999994","","",""
"2962.2000000476837","6","confid","","","html-slider-response","385","256420","0.0-4.0-10.44-0.44","","","","Rate your confidence","1",""
"851","e","choice","left","e","experimental","392","259088","0.0-4.0-8.45","true","46","3.4499999999999993","","",""
"3195.100000023842","5","confid","","","html-slider-response","394","262797","0.0-4.0-10.45-0.45","","","","Rate your confidence","1",""
"739.1000000238419","e","choice","left","e","experimental","401","265338","0.0-4.0-8.46","true","47","3.4499999999999993","","",""
"2433.4000000953674","6","confid","","","html-slider-response","403","268274","0.0-4.0-10.46-0.46","","","","Rate your confidence","1",""
"784.8999999761581","i","choice","right","i","experimental","410","270865","0.0-4.0-8.47","true","48","3.349999999999999","","",""
"2001.8000000715256","6","confid","","","html-slider-response","412","273380","0.0-4.0-10.47-0.47","","","","Rate your confidence","1",""
"795.1999999284744","e","choice","left","e","experimental","419","275991","0.0-4.0-8.48","true","49","3.349999999999999","","",""
"5085.099999904633","5","confid","","","html-slider-response","421","281579","0.0-4.0-10.48-0.48","","","","Rate your confidence","1",""
"998.6999999284744","i","choice","right","i","experimental","428","284387","0.0-4.0-8.49","true","50","3.249999999999999","","",""
"2664.2000000476837","5","confid","","","html-slider-response","430","287558","0.0-4.0-10.49-0.49","","","","Rate your confidence","1",""
"827.1999999284744","i","choice","right","i","experimental","437","290196","0.0-4.0-8.50","true","51","3.249999999999999","","",""
"1910.8999999761581","5","confid","","","html-slider-response","439","292611","0.0-4.0-10.50-0.50","","","","Rate your confidence","1",""
"901.3999999761581","e","choice","left","e","experimental","446","295319","0.0-4.0-8.51","true","52","3.149999999999999","","",""
"2419.7000000476837","6","confid","","","html-slider-response","448","298246","0.0-4.0-10.51-0.51","","","","Rate your confidence","1",""
"678.1000000238419","e","choice","left","e","experimental","455","300731","0.0-4.0-8.52","true","53","3.149999999999999","","",""
"3351.2999999523163","6","confid","","","html-slider-response","457","304597","0.0-4.0-10.52-0.52","","","","Rate your confidence","1",""
"1033.2000000476837","i","choice","right","i","experimental","464","307446","0.0-4.0-8.53","true","54","3.049999999999999","","",""
"2091.5","6","confid","","","html-slider-response","466","310043","0.0-4.0-10.53-0.53","","","","Rate your confidence","1",""
"680.6000000238419","i","choice","left","e","experimental","473","312550","0.0-4.0-8.54","false","55","3.049999999999999","","",""
"1955","6","confid","","","html-slider-response","475","315010","0.0-4.0-10.54-0.54","","","","Rate your confidence","1",""
"1629","i","choice","right","i","experimental","482","318442","0.0-4.0-8.55","true","56","3.149999999999999","","",""
"2203.5999999046326","3","confid","","","html-slider-response","484","321161","0.0-4.0-10.55-0.55","","","","Rate your confidence","1",""
"255.30000007152557","e","choice","left","e","experimental","491","323220","0.0-4.0-8.56","true","57","3.149999999999999","","",""
"2936.3000000715256","5","confid","","","html-slider-response","493","326665","0.0-4.0-10.56-0.56","","","","Rate your confidence","1",""
"580.1000000238419","i","choice","right","i","experimental","500","329071","0.0-4.0-8.57","true","58","3.049999999999999","","",""
"2164.8000000715256","5","confid","","","html-slider-response","502","331739","0.0-4.0-10.57-0.57","","","","Rate your confidence","1",""
"705.3999999761581","i","choice","right","i","experimental","509","334260","0.0-4.0-8.58","true","59","3.049999999999999","","",""
"2919","3","confid","","","html-slider-response","511","337684","0.0-4.0-10.58-0.58","","","","Rate your confidence","1",""
"815.7999999523163","e","choice","left","e","experimental","518","340317","0.0-4.0-8.59","true","60","2.949999999999999","","",""
"2977","6","confid","","","html-slider-response","520","343800","0.0-4.0-10.59-0.59","","","","Rate your confidence","1",""
"692.8999999761581","e","choice","left","e","experimental","527","346308","0.0-4.0-8.60","true","61","2.949999999999999","","",""
"2487.399999976158","6","confid","","","html-slider-response","529","349305","0.0-4.0-10.60-0.60","","","","Rate your confidence","1",""
"1771.1999999284744","i","choice","right","i","experimental","536","352890","0.0-4.0-8.61","true","62","2.8499999999999988","","",""
"2708.8000000715256","4","confid","","","html-slider-response","538","356118","0.0-4.0-10.61-0.61","","","","Rate your confidence","1",""
"783.1999999284744","e","choice","left","e","experimental","545","358699","0.0-4.0-8.62","true","63","2.8499999999999988","","",""
"1966.1999999284744","5","confid","","","html-slider-response","547","361173","0.0-4.0-10.62-0.62","","","","Rate your confidence","1",""
"722.0999999046326","i","choice","right","i","experimental","554","363708","0.0-4.0-8.63","true","64","2.7499999999999987","","",""
"3100.600000023842","6","confid","","","html-slider-response","556","367311","0.0-4.0-10.63-0.63","","","","Rate your confidence","1",""
"481.1999999284744","e","choice","left","e","experimental","563","369612","0.0-4.0-8.64","true","65","2.7499999999999987","","",""
"1736","6","confid","","","html-slider-response","565","371853","0.0-4.0-10.64-0.64","","","","Rate your confidence","1",""
"610.3999999761581","i","choice","right","i","experimental","572","374260","0.0-4.0-8.65","true","66","2.6499999999999986","","",""
"1644.7000000476837","5","confid","","","html-slider-response","574","376414","0.0-4.0-10.65-0.65","","","","Rate your confidence","1",""
"995.1999999284744","e","choice","right","i","experimental","581","379222","0.0-4.0-8.66","false","67","2.6499999999999986","","",""
"1961.1999999284744","2","confid","","","html-slider-response","583","381695","0.0-4.0-10.66-0.66","","","","Rate your confidence","1",""
"657.7000000476837","e","choice","left","e","experimental","590","384156","0.0-4.0-8.67","true","68","2.7499999999999987","","",""
"2280.100000023842","6","confid","","","html-slider-response","592","386947","0.0-4.0-10.67-0.67","","","","Rate your confidence","1",""
"672.0999999046326","e","choice","left","e","experimental","600","774980","0.0-4.0-8.68","true","69","2.7499999999999987","","",""
"4655.600000023842","6","confid","","","html-slider-response","602","780140","0.0-4.0-10.68-0.68","","","","Rate your confidence","1",""
"287.2000000476837","e","choice","right","i","experimental","609","782229","0.0-4.0-8.69","false","70","2.6499999999999986","","",""
"1843.2000000476837","5","confid","","","html-slider-response","611","784579","0.0-4.0-10.69-0.69","","","","Rate your confidence","1",""
"703.8999999761581","e","choice","left","e","experimental","618","787093","0.0-4.0-8.70","true","71","2.7499999999999987","","",""
"2823.399999976158","6","confid","","","html-slider-response","620","790427","0.0-4.0-10.70-0.70","","","","Rate your confidence","1",""
"836.2999999523163","e","choice","right","i","experimental","627","793062","0.0-4.0-8.71","false","72","2.7499999999999987","","",""
"1913","4","confid","","","html-slider-response","629","795485","0.0-4.0-10.71-0.71","","","","Rate your confidence","1",""
"949.6999999284744","e","choice","left","e","experimental","636","798253","0.0-4.0-8.72","true","73","2.8499999999999988","","",""
"3318.2000000476837","3","confid","","","html-slider-response","638","802077","0.0-4.0-10.72-0.72","","","","Rate your confidence","1",""
"1504.5","i","choice","right","i","experimental","645","805378","0.0-4.0-8.73","true","74","2.8499999999999988","","",""
"2374","5","confid","","","html-slider-response","647","808263","0.0-4.0-10.73-0.73","","","","Rate your confidence","1",""
"882.7999999523163","e","choice","left","e","experimental","654","810962","0.0-4.0-8.74","true","75","2.7499999999999987","","",""
"4553.399999976158","4","confid","","","html-slider-response","656","816025","0.0-4.0-10.74-0.74","","","","Rate your confidence","1",""
"1287.7000000476837","e","choice","right","i","experimental","663","819124","0.0-4.0-8.75","false","76","2.7499999999999987","","",""
"1818.0999999046326","4","confid","","","html-slider-response","665","821448","0.0-4.0-10.75-0.75","","","","Rate your confidence","1",""
"602.1999999284744","e","choice","right","i","experimental","672","823872","0.0-4.0-8.76","false","77","2.8499999999999988","","",""
"2559","6","confid","","","html-slider-response","674","826939","0.0-4.0-10.76-0.76","","","","Rate your confidence","1",""
"692.6000000238419","e","choice","left","e","experimental","681","829441","0.0-4.0-8.77","true","78","2.949999999999999","","",""
"2075.6999999284744","6","confid","","","html-slider-response","683","832027","0.0-4.0-10.77-0.77","","","","Rate your confidence","1",""
"683.0999999046326","e","choice","left","e","experimental","690","834533","0.0-4.0-8.78","true","79","2.949999999999999","","",""
"2211.399999976158","6","confid","","","html-slider-response","692","837255","0.0-4.0-10.78-0.78","","","","Rate your confidence","1",""
"1049.0999999046326","e","choice","right","i","experimental","699","840110","0.0-4.0-8.79","false","80","2.8499999999999988","","",""
"2051.100000023842","4","confid","","","html-slider-response","701","842664","0.0-4.0-10.79-0.79","","","","Rate your confidence","1",""
"637.4000000953674","e","choice","left","e","experimental","708","845112","0.0-4.0-8.80","true","81","2.949999999999999","","",""
"2312.7999999523163","2","confid","","","html-slider-response","710","847931","0.0-4.0-10.80-0.80","","","","Rate your confidence","1",""
"788.8000000715256","i","choice","right","i","experimental","717","850538","0.0-4.0-8.81","true","82","2.949999999999999","","",""
"2024.8999999761581","5","confid","","","html-slider-response","719","853070","0.0-4.0-10.81-0.81","","","","Rate your confidence","1",""
"731.3999999761581","e","choice","left","e","experimental","726","855629","0.0-4.0-8.82","true","83","2.8499999999999988","","",""
"2341.600000023842","6","confid","","","html-slider-response","728","858474","0.0-4.0-10.82-0.82","","","","Rate your confidence","1",""
"1307.8999999761581","i","choice","right","i","experimental","735","861604","0.0-4.0-8.83","true","84","2.8499999999999988","","",""
"2786","3","confid","","","html-slider-response","737","864899","0.0-4.0-10.83-0.83","","","","Rate your confidence","1",""
"1120.7999999523163","e","choice","left","e","experimental","744","867822","0.0-4.0-8.84","true","85","2.7499999999999987","","",""
"1681.3999999761581","5","confid","","","html-slider-response","746","870010","0.0-4.0-10.84-0.84","","","","Rate your confidence","1",""
"928.5","i","choice","right","i","experimental","753","872751","0.0-4.0-8.85","true","86","2.7499999999999987","","",""
"2064.9000000953674","4","confid","","","html-slider-response","755","875322","0.0-4.0-10.85-0.85","","","","Rate your confidence","1",""
"819.3999999761581","e","choice","left","e","experimental","762","877966","0.0-4.0-8.86","true","87","2.6499999999999986","","",""
"2420.100000023842","5","confid","","","html-slider-response","764","880903","0.0-4.0-10.86-0.86","","","","Rate your confidence","1",""
"1051.1000000238419","i","choice","right","i","experimental","771","883788","0.0-4.0-8.87","true","88","2.6499999999999986","","",""
"2431.2000000476837","4","confid","","","html-slider-response","773","886731","0.0-4.0-10.87-0.87","","","","Rate your confidence","1",""
"894.2000000476837","e","choice","right","i","experimental","780","889437","0.0-4.0-8.88","false","89","2.5499999999999985","","",""
"5772.100000023842","4","confid","","","html-slider-response","782","895718","0.0-4.0-10.88-0.88","","","","Rate your confidence","1",""
"1071.5","e","choice","left","e","experimental","789","898575","0.0-4.0-8.89","true","90","2.6499999999999986","","",""
"1762.7999999523163","4","confid","","","html-slider-response","791","900841","0.0-4.0-10.89-0.89","","","","Rate your confidence","1",""
"1385.5","i","choice","left","e","experimental","798","904009","0.0-4.0-8.90","false","91","2.6499999999999986","","",""
"2040.6000000238419","5","confid","","","html-slider-response","800","906552","0.0-4.0-10.90-0.90","","","","Rate your confidence","1",""
"1005.5","i","choice","right","i","experimental","807","909347","0.0-4.0-8.91","true","92","2.7499999999999987","","",""
"3093.3000000715256","5","confid","","","html-slider-response","809","912944","0.0-4.0-10.91-0.91","","","","Rate your confidence","1",""
"596.3000000715256","e","choice","left","e","experimental","816","915322","0.0-4.0-8.92","true","93","2.7499999999999987","","",""
"2722.600000023842","5","confid","","","html-slider-response","818","918554","0.0-4.0-10.92-0.92","","","","Rate your confidence","1",""
"801.1000000238419","i","choice","right","i","experimental","825","921148","0.0-4.0-8.93","true","94","2.6499999999999986","","",""
"3324.7999999523163","5","confid","","","html-slider-response","827","924975","0.0-4.0-10.93-0.93","","","","Rate your confidence","1",""
"700","e","choice","left","e","experimental","834","927477","0.0-4.0-8.94","true","95","2.6499999999999986","","",""
"3611.3000000715256","5","confid","","","html-slider-response","836","931591","0.0-4.0-10.94-0.94","","","","Rate your confidence","1",""
"608.8000000715256","e","choice","right","i","experimental","843","933983","0.0-4.0-8.95","false","96","2.5499999999999985","","",""
"3690.5","5","confid","","","html-slider-response","845","938175","0.0-4.0-10.95-0.95","","","","Rate your confidence","1",""
"679.3000000715256","e","choice","left","e","experimental","852","940628","0.0-4.0-8.96","true","97","2.6499999999999986","","",""
"2719.8000000715256","4","confid","","","html-slider-response","854","943851","0.0-4.0-10.96-0.96","","","","Rate your confidence","1",""
"694.1000000238419","i","choice","right","i","experimental","861","946331","0.0-4.0-8.97","true","98","2.6499999999999986","","",""
"3110.899999976158","5","confid","","","html-slider-response","863","949944","0.0-4.0-10.97-0.97","","","","Rate your confidence","1",""
"1201.1000000238419","e","choice","right","i","experimental","870","952912","0.0-4.0-8.98","false","99","2.5499999999999985","","",""
"1978.2999999523163","4","confid","","","html-slider-response","872","955394","0.0-4.0-10.98-0.98","","","","Rate your confidence","1",""
"1173.6000000238419","i","choice","left","e","experimental","879","958335","0.0-4.0-8.99","false","100","2.6499999999999986","","",""
"2950.8000000715256","5","confid","","","html-slider-response","881","961797","0.0-4.0-10.99-0.99","","","","Rate your confidence","1",""
"831.2999999523163","e","choice","left","e","experimental","888","964400","0.0-4.0-8.100","true","101","2.7499999999999987","","",""
"2057","5","confid","","","html-slider-response","890","966958","0.0-4.0-10.100-0.100","","","","Rate your confidence","1",""
"1372.3999999761581","i","choice","right","i","experimental","897","970114","0.0-4.0-8.101","true","102","2.7499999999999987","","",""
"1657.5999999046326","2","confid","","","html-slider-response","899","972281","0.0-4.0-10.101-0.101","","","","Rate your confidence","1",""
"832.9000000953674","i","choice","right","i","experimental","906","974893","0.0-4.0-8.102","true","103","2.6499999999999986","","",""
"2041.6000000238419","6","confid","","","html-slider-response","908","977437","0.0-4.0-10.102-0.102","","","","Rate your confidence","1",""
"512.5","e","choice","left","e","experimental","915","979728","0.0-4.0-8.103","true","104","2.6499999999999986","","",""
"2427.600000023842","6","confid","","","html-slider-response","917","982669","0.0-4.0-10.103-0.103","","","","Rate your confidence","1",""
"514.6000000238419","i","choice","right","i","experimental","924","984974","0.0-4.0-8.104","true","105","2.5499999999999985","","",""
"3641.399999976158","5","confid","","","html-slider-response","926","989118","0.0-4.0-10.104-0.104","","","","Rate your confidence","1",""
"498.39999997615814","e","choice","left","e","experimental","933","991385","0.0-4.0-8.105","true","106","2.5499999999999985","","",""
"1476.7999999523163","5","confid","","","html-slider-response","935","993365","0.0-4.0-10.105-0.105","","","","Rate your confidence","1",""
"536","e","choice","left","e","experimental","942","995683","0.0-4.0-8.106","true","107","2.4499999999999984","","",""
"2345.5","5","confid","","","html-slider-response","944","998545","0.0-4.0-10.106-0.106","","","","Rate your confidence","1",""
"536.7000000476837","i","choice","right","i","experimental","951","1000862","0.0-4.0-8.107","true","108","2.4499999999999984","","",""
"2873.2000000476837","6","confid","","","html-slider-response","953","1004238","0.0-4.0-10.107-0.107","","","","Rate your confidence","1",""
"455.60000002384186","i","choice","right","i","experimental","960","1006462","0.0-4.0-8.108","true","109","2.3499999999999983","","",""
"1792.6999999284744","6","confid","","","html-slider-response","962","1008757","0.0-4.0-10.108-0.108","","","","Rate your confidence","1",""
"615.1000000238419","e","choice","left","e","experimental","969","1011144","0.0-4.0-8.109","true","110","2.3499999999999983","","",""
"2018.0999999046326","4","confid","","","html-slider-response","971","1013665","0.0-4.0-10.109-0.109","","","","Rate your confidence","1",""
"1052.8999999761581","i","choice","left","e","experimental","979","1061945","0.0-4.0-8.110","false","111","2.2499999999999982","","",""
"3512.2000000476837","5","confid","","","html-slider-response","981","1065959","0.0-4.0-10.110-0.110","","","","Rate your confidence","1",""
"608.4000000953674","i","choice","right","i","experimental","988","1068341","0.0-4.0-8.111","true","112","2.3499999999999983","","",""
"2775.3000000715256","5","confid","","","html-slider-response","990","1071618","0.0-4.0-10.111-0.111","","","","Rate your confidence","1",""
"671.4000000953674","e","choice","right","i","experimental","997","1074069","0.0-4.0-8.112","false","113","2.3499999999999983","","",""
"2621.399999976158","6","confid","","","html-slider-response","999","1077196","0.0-4.0-10.112-0.112","","","","Rate your confidence","1",""
"547.8999999761581","e","choice","left","e","experimental","1006","1079528","0.0-4.0-8.113","true","114","2.4499999999999984","","",""
"2184.2000000476837","6","confid","","","html-slider-response","1008","1082214","0.0-4.0-10.113-0.113","","","","Rate your confidence","1",""
"538.2000000476837","e","choice","left","e","experimental","1015","1084537","0.0-4.0-8.114","true","115","2.4499999999999984","","",""
"1931.5","5","confid","","","html-slider-response","1017","1086971","0.0-4.0-10.114-0.114","","","","Rate your confidence","1",""
"589.8999999761581","i","choice","right","i","experimental","1024","1089340","0.0-4.0-8.115","true","116","2.3499999999999983","","",""
"3254.600000023842","6","confid","","","html-slider-response","1026","1093106","0.0-4.0-10.115-0.115","","","","Rate your confidence","1",""
"522.8999999761581","i","choice","right","i","experimental","1033","1095406","0.0-4.0-8.116","true","117","2.3499999999999983","","",""
"2875.399999976158","6","confid","","","html-slider-response","1035","1098799","0.0-4.0-10.116-0.116","","","","Rate your confidence","1",""
"858.2999999523163","i","choice","left","e","experimental","1042","1101442","0.0-4.0-8.117","false","118","2.2499999999999982","","",""
"3848.600000023842","3","confid","","","html-slider-response","1044","1105798","0.0-4.0-10.117-0.117","","","","Rate your confidence","1",""
"804.8999999761581","e","choice","left","e","experimental","1051","1108373","0.0-4.0-8.118","true","119","2.3499999999999983","","",""
"2575.5","2","confid","","","html-slider-response","1053","1111452","0.0-4.0-10.118-0.118","","","","Rate your confidence","1",""
"668.7000000476837","i","choice","right","i","experimental","1060","1113897","0.0-4.0-8.119","true","120","2.3499999999999983","","",""
"1809.5","4","confid","","","html-slider-response","1062","1116210","0.0-4.0-10.119-0.119","","","","Rate your confidence","1",""
"620.8999999761581","i","choice","right","i","experimental","1069","1118609","0.0-4.0-8.120","true","121","2.2499999999999982","","",""
"2037.3000000715256","6","confid","","","html-slider-response","1071","1121155","0.0-4.0-10.120-0.120","","","","Rate your confidence","1",""
"782.3000000715256","e","choice","left","e","experimental","1078","1123714","0.0-4.0-8.121","true","122","2.2499999999999982","","",""
"1304","4","confid","","","html-slider-response","1080","1125523","0.0-4.0-10.121-0.121","","","","Rate your confidence","1",""
"643.5","e","choice","left","e","experimental","1087","1127951","0.0-4.0-8.122","true","123","2.149999999999998","","",""
"2078.399999976158","3","confid","","","html-slider-response","1089","1130531","0.0-4.0-10.122-0.122","","","","Rate your confidence","1",""
"650.5","i","choice","right","i","experimental","1096","1132971","0.0-4.0-8.123","true","124","2.149999999999998","","",""
"1925.1999999284744","5","confid","","","html-slider-response","1098","1135402","0.0-4.0-10.123-0.123","","","","Rate your confidence","1",""
"834.5","i","choice","right","i","experimental","1105","1138028","0.0-4.0-8.124","true","125","2.049999999999998","","",""
"3091.600000023842","3","confid","","","html-slider-response","1107","1141623","0.0-4.0-10.124-0.124","","","","Rate your confidence","1",""
"633.3999999761581","i","choice","left","e","experimental","1114","1144033","0.0-4.0-8.125","false","126","2.049999999999998","","",""
"5931.799999952316","3","confid","","","html-slider-response","1116","1150471","0.0-4.0-10.125-0.125","","","","Rate your confidence","1",""
"616.6999999284744","i","choice","right","i","experimental","1123","1152871","0.0-4.0-8.126","true","127","2.149999999999998","","",""
"2231.2000000476837","6","confid","","","html-slider-response","1125","1155613","0.0-4.0-10.126-0.126","","","","Rate your confidence","1",""
"744.3999999761581","i","choice","left","e","experimental","1132","1158142","0.0-4.0-8.127","false","128","2.149999999999998","","",""
"1990.6000000238419","6","confid","","","html-slider-response","1134","1160636","0.0-4.0-10.127-0.127","","","","Rate your confidence","1",""
"906.2999999523163","e","choice","left","e","experimental","1141","1163318","0.0-4.0-8.128","true","129","2.2499999999999982","","",""
"2355.6999999284744","3","confid","","","html-slider-response","1143","1166184","0.0-4.0-10.128-0.128","","","","Rate your confidence","1",""
"689.7000000476837","i","choice","right","i","experimental","1150","1168645","0.0-4.0-8.129","true","130","2.2499999999999982","","",""
"2053.399999976158","6","confid","","","html-slider-response","1152","1171211","0.0-4.0-10.129-0.129","","","","Rate your confidence","1",""
"611.8000000715256","e","choice","left","e","experimental","1159","1173616","0.0-4.0-8.130","true","131","2.149999999999998","","",""
"2075.100000023842","6","confid","","","html-slider-response","1161","1176193","0.0-4.0-10.130-0.130","","","","Rate your confidence","1",""
"657.2000000476837","i","choice","right","i","experimental","1168","1178627","0.0-4.0-8.131","true","132","2.149999999999998","","",""
"1546.1000000238419","6","confid","","","html-slider-response","1170","1180676","0.0-4.0-10.131-0.131","","","","Rate your confidence","1",""
"585.8999999761581","e","choice","right","i","experimental","1177","1183042","0.0-4.0-8.132","false","133","2.049999999999998","","",""
"2849.1999999284744","4","confid","","","html-slider-response","1179","1186393","0.0-4.0-10.132-0.132","","","","Rate your confidence","1",""
"590.5","e","choice","left","e","experimental","1186","1188778","0.0-4.0-8.133","true","134","2.149999999999998","","",""
"2230.399999976158","6","confid","","","html-slider-response","1188","1191511","0.0-4.0-10.133-0.133","","","","Rate your confidence","1",""
"887.8999999761581","i","choice","right","i","experimental","1195","1194169","0.0-4.0-8.134","true","135","2.149999999999998","","",""
"1924.3000000715256","5","confid","","","html-slider-response","1197","1196601","0.0-4.0-10.134-0.134","","","","Rate your confidence","1",""
"538.5","e","choice","left","e","experimental","1204","1198909","0.0-4.0-8.135","true","136","2.049999999999998","","",""
"2255.9000000953674","6","confid","","","html-slider-response","1206","1201668","0.0-4.0-10.135-0.135","","","","Rate your confidence","1",""
"2078.0999999046326","e","choice","left","e","experimental","1213","1205540","0.0-4.0-8.136","true","137","2.049999999999998","","",""
"2236.899999976158","6","confid","","","html-slider-response","1215","1208280","0.0-4.0-10.136-0.136","","","","Rate your confidence","1",""
"519.2000000476837","i","choice","right","i","experimental","1222","1210578","0.0-4.0-8.137","true","138","1.949999999999998","","",""
"3397.1999999284744","6","confid","","","html-slider-response","1224","1214478","0.0-4.0-10.137-0.137","","","","Rate your confidence","1",""
"540.6000000238419","i","choice","right","i","experimental","1231","1216796","0.0-4.0-8.138","true","139","1.949999999999998","","",""
"1819.3999999761581","5","confid","","","html-slider-response","1233","1219118","0.0-4.0-10.138-0.138","","","","Rate your confidence","1",""
"585","e","choice","left","e","experimental","1240","1221531","0.0-4.0-8.139","true","140","1.8499999999999979","","",""
"6042.199999928474","6","confid","","","html-slider-response","1242","1228085","0.0-4.0-10.139-0.139","","","","Rate your confidence","1",""
"677","e","choice","right","i","experimental","1249","1230537","0.0-4.0-8.140","false","141","1.8499999999999979","","",""
"2021.2999999523163","3","confid","","","html-slider-response","1251","1233061","0.0-4.0-10.140-0.140","","","","Rate your confidence","1",""
"620.7000000476837","i","choice","left","e","experimental","1258","1235454","0.0-4.0-8.141","false","142","1.949999999999998","","",""
"1812.5","6","confid","","","html-slider-response","1260","1237773","0.0-4.0-10.141-0.141","","","","Rate your confidence","1",""
"677.3999999761581","i","choice","left","e","experimental","1267","1240240","0.0-4.0-8.142","false","143","2.049999999999998","","",""
"1920.7999999523163","4","confid","","","html-slider-response","1269","1242664","0.0-4.0-10.142-0.142","","","","Rate your confidence","1",""
"613.5","i","choice","right","i","experimental","1276","1245063","0.0-4.0-8.143","true","144","2.149999999999998","","",""
"2796.5999999046326","4","confid","","","html-slider-response","1278","1248363","0.0-4.0-10.143-0.143","","","","Rate your confidence","1",""
"512","i","choice","right","i","experimental","1285","1250669","0.0-4.0-8.144","true","145","2.149999999999998","","",""
"2701.2000000476837","6","confid","","","html-slider-response","1287","1253880","0.0-4.0-10.144-0.144","","","","Rate your confidence","1",""
"588.2999999523163","i","choice","left","e","experimental","1294","1256264","0.0-4.0-8.145","false","146","2.049999999999998","","",""
"1786.2000000476837","6","confid","","","html-slider-response","1296","1258561","0.0-4.0-10.145-0.145","","","","Rate your confidence","1",""
"539.6000000238419","i","choice","right","i","experimental","1303","1260905","0.0-4.0-8.146","true","147","2.149999999999998","","",""
"3764.2999999523163","6","confid","","","html-slider-response","1305","1265172","0.0-4.0-10.146-0.146","","","","Rate your confidence","1",""
"632.6999999284744","i","choice","left","e","experimental","1312","1267586","0.0-4.0-8.147","false","148","2.149999999999998","","",""
"1823.9000000953674","5","confid","","","html-slider-response","1314","1269912","0.0-4.0-10.147-0.147","","","","Rate your confidence","1",""
"1064.5","i","choice","right","i","experimental","1321","1272746","0.0-4.0-8.148","true","149","2.2499999999999982","","",""
"3001.0999999046326","3","confid","","","html-slider-response","1323","1276250","0.0-4.0-10.148-0.148","","","","Rate your confidence","1",""
"685.8999999761581","e","choice","left","e","experimental","1330","1278743","0.0-4.0-8.149","true","150","2.2499999999999982","","",""
"3196.1999999284744","5","confid","","","html-slider-response","1332","1282449","0.0-4.0-10.149-0.149","","","","Rate your confidence","1",""
"513.7000000476837","i","choice","right","i","experimental","1339","1284748","0.0-4.0-8.150","true","151","2.149999999999998","","",""
"2932.100000023842","5","confid","","","html-slider-response","1341","1288183","0.0-4.0-10.150-0.150","","","","Rate your confidence","1",""
"718.8999999761581","i","choice","left","e","experimental","1348","1290677","0.0-4.0-8.151","false","152","2.149999999999998","","",""
"2664.2000000476837","4","confid","","","html-slider-response","1350","1293844","0.0-4.0-10.151-0.151","","","","Rate your confidence","1",""
"842.6000000238419","e","choice","left","e","experimental","1358","1521173","0.0-4.0-8.152","true","153","2.2499999999999982","","",""
"3445.399999976158","3","confid","","","html-slider-response","1360","1525122","0.0-4.0-10.152-0.152","","","","Rate your confidence","1",""
"174.90000009536743","e","choice","right","i","experimental","1367","1527072","0.0-4.0-8.153","false","154","2.2499999999999982","","",""
"2330.5999999046326","4","confid","","","html-slider-response","1369","1529906","0.0-4.0-10.153-0.153","","","","Rate your confidence","1",""
"580.7000000476837","e","choice","right","i","experimental","1376","1532270","0.0-4.0-8.154","false","155","2.3499999999999983","","",""
"2611.3000000715256","5","confid","","","html-slider-response","1378","1535398","0.0-4.0-10.154-0.154","","","","Rate your confidence","1",""
"576.6000000238419","e","choice","left","e","experimental","1385","1537757","0.0-4.0-8.155","true","156","2.4499999999999984","","",""
"2390","5","confid","","","html-slider-response","1387","1540650","0.0-4.0-10.155-0.155","","","","Rate your confidence","1",""
"426.6999999284744","e","choice","left","e","experimental","1394","1542852","0.0-4.0-8.156","true","157","2.4499999999999984","","",""
"1822.3000000715256","5","confid","","","html-slider-response","1396","1545177","0.0-4.0-10.156-0.156","","","","Rate your confidence","1",""
"486","e","choice","right","i","experimental","1403","1547448","0.0-4.0-8.157","false","158","2.3499999999999983","","",""
"3013.899999976158","4","confid","","","html-slider-response","1405","1550976","0.0-4.0-10.157-0.157","","","","Rate your confidence","1",""
"488.89999997615814","e","choice","left","e","experimental","1412","1553269","0.0-4.0-8.158","true","159","2.4499999999999984","","",""
"1960.6000000238419","4","confid","","","html-slider-response","1414","1555731","0.0-4.0-10.158-0.158","","","","Rate your confidence","1",""
"784.1000000238419","i","choice","right","i","experimental","1421","1558325","0.0-4.0-8.159","true","160","2.4499999999999984","","",""
"1305.5","4","confid","","","html-slider-response","1423","1560134","0.0-4.0-10.159-0.159","","","","Rate your confidence","1",""
"983.8999999761581","i","choice","left","e","experimental","1430","1562906","0.0-4.0-8.160","false","161","2.3499999999999983","","",""
"3780.2999999523163","5","confid","","","html-slider-response","1432","1567195","0.0-4.0-10.160-0.160","","","","Rate your confidence","1",""
"634","e","choice","right","i","experimental","1439","1569602","0.0-4.0-8.161","false","162","2.4499999999999984","","",""
"4177.300000071526","4","confid","","","html-slider-response","1441","1574282","0.0-4.0-10.161-0.161","","","","Rate your confidence","1",""
"762.5","e","choice","left","e","experimental","1448","1576846","0.0-4.0-8.162","true","163","2.5499999999999985","","",""
"3627.8000000715256","4","confid","","","html-slider-response","1450","1580976","0.0-4.0-10.162-0.162","","","","Rate your confidence","1",""
"1199.3000000715256","i","choice","right","i","experimental","1457","1583963","0.0-4.0-8.163","true","164","2.5499999999999985","","",""
"1806","4","confid","","","html-slider-response","1459","1586272","0.0-4.0-10.163-0.163","","","","Rate your confidence","1",""
"696.5","i","choice","right","i","experimental","1466","1588751","0.0-4.0-8.164","true","165","2.4499999999999984","","",""
"2420.899999976158","5","confid","","","html-slider-response","1468","1591674","0.0-4.0-10.164-0.164","","","","Rate your confidence","1",""
"658.5","e","choice","left","e","experimental","1475","1594111","0.0-4.0-8.165","true","166","2.4499999999999984","","",""
"3180.2000000476837","6","confid","","","html-slider-response","1477","1597795","0.0-4.0-10.165-0.165","","","","Rate your confidence","1",""
"702.8999999761581","i","choice","right","i","experimental","1484","1600281","0.0-4.0-8.166","true","167","2.3499999999999983","","",""
"2515","5","confid","","","html-slider-response","1486","1603298","0.0-4.0-10.166-0.166","","","","Rate your confidence","1",""
"668","i","choice","left","e","experimental","1493","1605762","0.0-4.0-8.167","false","168","2.3499999999999983","","",""
"1607.8000000715256","4","confid","","","html-slider-response","1495","1607886","0.0-4.0-10.167-0.167","","","","Rate your confidence","1",""
"1114.7999999523163","e","choice","left","e","experimental","1502","1610784","0.0-4.0-8.168","true","169","2.4499999999999984","","",""
"1830.8000000715256","3","confid","","","html-slider-response","1504","1613123","0.0-4.0-10.168-0.168","","","","Rate your confidence","1",""
"545","i","choice","right","i","experimental","1511","1615438","0.0-4.0-8.169","true","170","2.4499999999999984","","",""
"3058.7000000476837","6","confid","","","html-slider-response","1513","1619000","0.0-4.0-10.169-0.169","","","","Rate your confidence","1",""
"640.7000000476837","i","choice","right","i","experimental","1520","1621422","0.0-4.0-8.170","true","171","2.3499999999999983","","",""
"3379.100000023842","5","confid","","","html-slider-response","1522","1625304","0.0-4.0-10.170-0.170","","","","Rate your confidence","1",""
"1571.7999999523163","e","choice","left","e","experimental","1529","1628669","0.0-4.0-8.171","true","172","2.3499999999999983","","",""
"2490.2999999523163","5","confid","","","html-slider-response","1531","1631662","0.0-4.0-10.171-0.171","","","","Rate your confidence","1",""
"981.2000000476837","e","choice","right","i","experimental","1538","1634423","0.0-4.0-8.172","false","173","2.2499999999999982","","",""
"3316.5","4","confid","","","html-slider-response","1540","1638241","0.0-4.0-10.172-0.172","","","","Rate your confidence","1",""
"766.8000000715256","e","choice","left","e","experimental","1547","1640806","0.0-4.0-8.173","true","174","2.3499999999999983","","",""
"3845","4","confid","","","html-slider-response","1549","1645154","0.0-4.0-10.173-0.173","","","","Rate your confidence","1",""
"676.1000000238419","e","choice","left","e","experimental","1556","1647615","0.0-4.0-8.174","true","175","2.3499999999999983","","",""
"3368.899999976158","5","confid","","","html-slider-response","1558","1651501","0.0-4.0-10.174-0.174","","","","Rate your confidence","1",""
"638.7999999523163","i","choice","right","i","experimental","1565","1653922","0.0-4.0-8.175","true","176","2.2499999999999982","","",""
"3166.8000000715256","6","confid","","","html-slider-response","1567","1657597","0.0-4.0-10.175-0.175","","","","Rate your confidence","1",""
"677.1000000238419","i","choice","left","e","experimental","1574","1660060","0.0-4.0-8.176","false","177","2.2499999999999982","","",""
"3708.6999999284744","6","confid","","","html-slider-response","1576","1664271","0.0-4.0-10.176-0.176","","","","Rate your confidence","1",""
"781.0999999046326","i","choice","right","i","experimental","1583","1666829","0.0-4.0-8.177","true","178","2.3499999999999983","","",""
"3884.600000023842","2","confid","","","html-slider-response","1585","1671217","0.0-4.0-10.177-0.177","","","","Rate your confidence","1",""
"716.3000000715256","e","choice","left","e","experimental","1592","1673714","0.0-4.0-8.178","true","179","2.3499999999999983","","",""
"4245.5","3","confid","","","html-slider-response","1594","1678463","0.0-4.0-10.178-0.178","","","","Rate your confidence","1",""
"759","i","choice","right","i","experimental","1601","1681003","0.0-4.0-8.179","true","180","2.2499999999999982","","",""
"2444.8000000715256","4","confid","","","html-slider-response","1603","1683962","0.0-4.0-10.179-0.179","","","","Rate your confidence","1",""
"636.6000000238419","e","choice","left","e","experimental","1610","1686382","0.0-4.0-8.180","true","181","2.2499999999999982","","",""
"3838.7000000476837","6","confid","","","html-slider-response","1612","1690724","0.0-4.0-10.180-0.180","","","","Rate your confidence","1",""
"906.3000000715256","i","choice","right","i","experimental","1619","1693404","0.0-4.0-8.181","true","182","2.149999999999998","","",""
"6251.699999928474","3","confid","","","html-slider-response","1621","1700159","0.0-4.0-10.181-0.181","","","","Rate your confidence","1",""
"729.0999999046326","i","choice","left","e","experimental","1628","1702670","0.0-4.0-8.182","false","183","2.149999999999998","","",""
"2262.100000023842","4","confid","","","html-slider-response","1630","1705435","0.0-4.0-10.182-0.182","","","","Rate your confidence","1",""
"1071","e","choice","right","i","experimental","1637","1708288","0.0-4.0-8.183","false","184","2.2499999999999982","","",""
"3095.8000000715256","2","confid","","","html-slider-response","1639","1711886","0.0-4.0-10.183-0.183","","","","Rate your confidence","1",""
"1284.5999999046326","i","choice","right","i","experimental","1646","1714954","0.0-4.0-8.184","true","185","2.3499999999999983","","",""
"3422.100000023842","5","confid","","","html-slider-response","1648","1718878","0.0-4.0-10.184-0.184","","","","Rate your confidence","1",""
"2853.7999999523163","e","choice","left","e","experimental","1655","1723516","0.0-4.0-8.185","true","186","2.3499999999999983","","",""
"3766.399999976158","3","confid","","","html-slider-response","1657","1727785","0.0-4.0-10.185-0.185","","","","Rate your confidence","1",""
"976.2000000476837","i","choice","left","e","experimental","1664","1730538","0.0-4.0-8.186","false","187","2.2499999999999982","","",""
"2091.399999976158","4","confid","","","html-slider-response","1666","1733132","0.0-4.0-10.186-0.186","","","","Rate your confidence","1",""
"1020.6000000238419","i","choice","right","i","experimental","1673","1735932","0.0-4.0-8.187","true","188","2.3499999999999983","","",""
"2253.600000023842","5","confid","","","html-slider-response","1675","1738689","0.0-4.0-10.187-0.187","","","","Rate your confidence","1",""
"1018.1000000238419","e","choice","left","e","experimental","1682","1741477","0.0-4.0-8.188","true","189","2.3499999999999983","","",""
"3948","2","confid","","","html-slider-response","1684","1745929","0.0-4.0-10.188-0.188","","","","Rate your confidence","1",""
"536.6999999284744","i","choice","right","i","experimental","1691","1748247","0.0-4.0-8.189","true","190","2.2499999999999982","","",""
"4150.300000071526","6","confid","","","html-slider-response","1693","1752907","0.0-4.0-10.189-0.189","","","","Rate your confidence","1",""
"743.5","e","choice","right","i","experimental","1700","1755427","0.0-4.0-8.190","false","191","2.2499999999999982","","",""
"2166.899999976158","5","confid","","","html-slider-response","1702","1758096","0.0-4.0-10.190-0.190","","","","Rate your confidence","1",""
"556.1000000238419","e","choice","left","e","experimental","1709","1760460","0.0-4.0-8.191","true","192","2.3499999999999983","","",""
"4900.099999904633","5","confid","","","html-slider-response","1711","1765862","0.0-4.0-10.191-0.191","","","","Rate your confidence","1",""
"1419.8000000715256","i","choice","right","i","experimental","1718","1769067","0.0-4.0-8.192","true","193","2.3499999999999983","","",""
"3241.7999999523163","3","confid","","","html-slider-response","1720","1772813","0.0-4.0-10.192-0.192","","","","Rate your confidence","1",""
"752.5","i","choice","left","e","experimental","1727","1775356","0.0-4.0-8.193","false","194","2.2499999999999982","","",""
"2437.9000000953674","5","confid","","","html-slider-response","1729","1778296","0.0-4.0-10.193-0.193","","","","Rate your confidence","1","50545"
