"rt","response","task","target_side","correct_response","trial_type","trial_index","time_elapsed","internal_node_id","correct","trial_number","n_dots","stimulus","slider_start","participant"
"851.5","e","choice","right","i","practice","10","15274","0.0-4.0-8.0","false","1","4.25","","",""
"116.30000019073486","e","choice","left","e","practice","18","17722","0.0-4.0-8.1","true","2","4.65","","",""
"1615.6000001430511","e","choice","left","e","practice","26","21668","0.0-4.0-8.2","true","3","4.65","","",""
"334.7999999523163","i","choice","right","i","practice","34","24328","0.0-4.0-8.3","true","4","4.25","","",""
"234.90000009536743","e","choice","left","e","practice","42","26888","0.0-4.0-8.4","true","5","4.25","","",""
"505.5","i","choice","right","i","practice","50","29697","0.0-4.0-8.5","true","6","3.85","","",""
"227.90000009536743","i","choice","right","i","practice","58","32205","0.0-4.0-8.6","true","7","3.85","","",""
"396.59999990463257","e","choice","left","e","practice","66","34886","0.0-4.0-8.7","true","8","3.65","","",""
"371.2000000476837","e","choice","left","e","practice","74","37541","0.0-4.0-8.8","true","9","3.65","","",""
"448","i","choice","right","i","practice","82","40280","0.0-4.0-8.9","true","10","3.4499999999999997","","",""
"214.20000004768372","e","choice","right","i","practice","90","42781","0.0-4.0-8.10","false","11","3.4499999999999997","","",""
"268.5","i","choice","left","e","practice","98","45333","0.0-4.0-8.11","false","12","3.55","","",""
"222.80000019073486","e","choice","left","e","practice","106","47846","0.0-4.0-8.12","true","13","3.65","","",""
"251.90000009536743","i","choice","right","i","practice","114","50389","0.0-4.0-8.13","true","14","3.65","","",""
"163.59999990463257","e","choice","left","e","practice","122","52854","0.0-4.0-8.14","true","15","3.55","","",""
"311.89999985694885","i","choice","right","i","practice","130","55446","0.0-4.0-8.15","true","16","3.55","","",""
"424.09999990463257","e","choice","right","i","practice","138","58153","0.0-4.0-8.16","false","17","3.4499999999999997","","",""
"308","i","choice","left","e","practice","146","60753","0.0-4.0-8.17","false","18","3.55","","",""
"539.5","e","choice","left","e","practice","154","63576","0.0-4.0-8.18","true","19","3.65","","",""
"215.29999995231628","i","choice","right","i","practice","162","66081","0.0-4.0-8.19","true","20","3.65","","",""
"279.2999999523163","i","choice","right","i","practice","170","68645","0.0-4.0-8.20","true","21","3.55","","",""
"288.5","e","choice","left","e","practice","178","71216","0.0-4.0-8.21","true","22","3.55","","",""
"282.40000009536743","i","choice","right","i","practice","186","73783","0.0-4.0-8.22","true","23","3.4499999999999997","","",""
"233.10000014305115","e","choice","left","e","practice","194","76301","0.0-4.0-8.23","true","24","3.4499999999999997","","",""
"282.5","e","choice","left","e","practice","202","78863","0.0-4.0-8.24","true","25","3.3499999999999996","","",""
"280","i","choice","right","i","practice","210","81433","0.0-4.0-8.25","true","26","3.3499999999999996","","",""
"316.69999980926514","e","choice","right","i","experimental","221","91242","0.0-4.0-8.26","false","27","3.2499999999999996","","",""
"3884.699999809265","4","confid","","","html-slider-response","223","95631","0.0-4.0-10.26-0.26","","","","Rate your confidence","1",""
"384.5","i","choice","left","e","experimental","230","97801","0.0-4.0-8.27","false","28","3.3499999999999996","","",""
"4621.099999904633","2","confid","","","html-slider-response","232","102926","0.0-4.0-10.27-0.27","","","","Rate your confidence","1",""
"303.09999990463257","i","choice","right","i","experimental","239","105011","0.0-4.0-8.28","true","29","3.4499999999999997","","",""
"3331.899999856949","5","confid","","","html-slider-response","241","108848","0.0-4.0-10.28-0.28","","","","Rate your confidence","1",""
"705.1000001430511","i","choice","left","e","experimental","248","111337","0.0-4.0-8.29","false","30","3.4499999999999997","","",""
"4848.900000095367","2","confid","","","html-slider-response","250","116701","0.0-4.0-10.29-0.29","","","","Rate your confidence","1",""
"438.40000009536743","i","choice","right","i","experimental","257","118920","0.0-4.0-8.30","true","31","3.55","","",""
"1929.7000000476837","4","confid","","","html-slider-response","259","121354","0.0-4.0-10.30-0.30","","","","Rate your confidence","1",""
"318","e","choice","left","e","experimental","266","123461","0.0-4.0-8.31","true","32","3.55","","",""
"1761.7000000476837","3","confid","","","html-slider-response","268","125726","0.0-4.0-10.31-0.31","","","","Rate your confidence","1",""
"307.39999985694885","e","choice","left","e","experimental","275","127824","0.0-4.0-8.32","true","33","3.4499999999999997","","",""
"3318.7999999523163","4","confid","","","html-slider-response","277","131647","0.0-4.0-10.32-0.32","","","","Rate your confidence","1",""
"1375.8999998569489","i","choice","right","i","experimental","284","134804","0.0-4.0-8.33","true","34","3.4499999999999997","","",""
"3025.5","5","confid","","","html-slider-response","286","138333","0.0-4.0-10.33-0.33","","","","Rate your confidence","1",""
"457.30000019073486","e","choice","left","e","experimental","293","140570","0.0-4.0-8.34","true","35","3.3499999999999996","","",""
"4915.400000095367","6","confid","","","html-slider-response","295","146000","0.0-4.0-10.34-0.34","","","","Rate your confidence","1",""
"314.2000000476837","i","choice","right","i","experimental","302","148097","0.0-4.0-8.35","true","36","3.3499999999999996","","",""
"2725.0999999046326","4","confid","","","html-slider-response","304","151328","0.0-4.0-10.35-0.35","","","","Rate your confidence","1",""
"310.80000019073486","e","choice","left","e","experimental","311","153421","0.0-4.0-8.36","true","37","3.2499999999999996","","",""
"2658.2999999523163","4","confid","","","html-slider-response","313","156584","0.0-4.0-10.36-0.36","","","","Rate your confidence","1",""
"380.40000009536743","e","choice","right","i","experimental","320","158755","0.0-4.0-8.37","false","38","3.2499999999999996","","",""
"2288","4","confid","","","html-slider-response","322","161547","0.0-4.0-10.37-0.37","","","","Rate your confidence","1",""
"282.40000009536743","e","choice","right","i","experimental","329","163621","0.0-4.0-8.38","false","39","3.3499999999999996","","",""
"4790.099999904633","3","confid","","","html-slider-response","331","168916","0.0-4.0-10.38-0.38","","","","Rate your confidence","1",""
"163.59999990463257","e","choice","left","e","experimental","338","170863","0.0-4.0-8.39","true","40","3.4499999999999997","","",""
"2208.5999999046326","3","confid","","","html-slider-response","340","173577","0.0-4.0-10.39-0.39","","","","Rate your confidence","1",""
"106.19999980926514","i","choice","right","i","experimental","347","175467","0.0-4.0-8.40","true","41","3.4499999999999997","","",""
"2555.100000143051","3","confid","","","html-slider-response","349","178526","0.0-4.0-10.40-0.40","","","","Rate your confidence","1",""
"376.2000000476837","e","choice","left","e","experimental","356","180682","0.0-4.0-8.41","true","42","3.3499999999999996","","",""
"2758.0999999046326","3","confid","","","html-slider-response","358","183945","0.0-4.0-10.41-0.41","","","","Rate your confidence","1",""
"389.2999999523163","e","choice","left","e","experimental","365","186118","0.0-4.0-8.42","true","43","3.3499999999999996","","",""
"2749.2999999523163","4","confid","","","html-slider-response","367","189371","0.0-4.0-10.42-0.42","","","","Rate your confidence","1",""
"999.1999998092651","i","choice","right","i","experimental","374","192152","0.0-4.0-8.43","true","44","3.2499999999999996","","",""
"2155.2000000476837","5","confid","","","html-slider-response","376","194812","0.0-4.0-10.43-0.43","","","","Rate your confidence","1",""
"651.5","e","choice","left","e","experimental","383","197241","0.0-4.0-8.44","true","45","3.2499999999999996","","",""
"2858.2000000476837","2","confid","","","html-slider-response","385","200603","0.0-4.0-10.44-0.44","","","","Rate your confidence","1",""
"430.2000000476837","i","choice","right","i","experimental","392","202815","0.0-4.0-8.45","true","46","3.1499999999999995","","",""
"2495","4","confid","","","html-slider-response","394","205815","0.0-4.0-10.45-0.45","","","","Rate your confidence","1",""
"587.2999999523163","e","choice","left","e","experimental","401","208197","0.0-4.0-8.46","true","47","3.1499999999999995","","",""
"2308.0999999046326","3","confid","","","html-slider-response","403","211009","0.0-4.0-10.46-0.46","","","","Rate your confidence","1",""
"463.60000014305115","i","choice","right","i","experimental","410","213262","0.0-4.0-8.47","true","48","3.0499999999999994","","",""
"4198.200000047684","4","confid","","","html-slider-response","412","217965","0.0-4.0-10.47-0.47","","","","Rate your confidence","1",""
"576","i","choice","right","i","experimental","419","220334","0.0-4.0-8.48","true","49","3.0499999999999994","","",""
"2750.5999999046326","4","confid","","","html-slider-response","421","223589","0.0-4.0-10.48-0.48","","","","Rate your confidence","1",""
"573.3000001907349","e","choice","left","e","experimental","428","225936","0.0-4.0-8.49","true","50","2.9499999999999993","","",""
"2423","4","confid","","","html-slider-response","430","228863","0.0-4.0-10.49-0.49","","","","Rate your confidence","1",""
"680.7000000476837","i","choice","right","i","experimental","437","231323","0.0-4.0-8.50","true","51","2.9499999999999993","","",""
"2269.4000000953674","3","confid","","","html-slider-response","439","234096","0.0-4.0-10.50-0.50","","","","Rate your confidence","1",""
"612.5","e","choice","left","e","experimental","446","236498","0.0-4.0-8.51","true","52","2.849999999999999","","",""
"2949.0999999046326","4","confid","","","html-slider-response","448","239951","0.0-4.0-10.51-0.51","","","","Rate your confidence","1",""
"614.3999998569489","i","choice","left","e","experimental","455","242355","0.0-4.0-8.52","false","53","2.849999999999999","","",""
"3049.4000000953674","4","confid","","","html-slider-response","457","245908","0.0-4.0-10.52-0.52","","","","Rate your confidence","1",""
"286.2999999523163","e","choice","right","i","experimental","464","247990","0.0-4.0-8.53","false","54","2.9499999999999993","","",""
"2205","3","confid","","","html-slider-response","466","250699","0.0-4.0-10.53-0.53","","","","Rate your confidence","1",""
"2727.4000000953674","i","choice","left","e","experimental","473","255209","0.0-4.0-8.54","false","55","3.0499999999999994","","",""
"2756","3","confid","","","html-slider-response","475","258470","0.0-4.0-10.54-0.54","","","","Rate your confidence","1",""
"825.9000000953674","i","choice","right","i","experimental","482","261083","0.0-4.0-8.55","true","56","3.1499999999999995","","",""
"3253.2999999523163","6","confid","","","html-slider-response","484","264840","0.0-4.0-10.55-0.55","","","","Rate your confidence","1",""
"377.89999985694885","i","choice","right","i","experimental","491","267009","0.0-4.0-8.56","true","57","3.1499999999999995","","",""
"3241.399999856949","6","confid","","","html-slider-response","493","270757","0.0-4.0-10.56-0.56","","","","Rate your confidence","1",""
"313.90000009536743","e","choice","left","e","experimental","500","272855","0.0-4.0-8.57","true","58","3.0499999999999994","","",""
"2767","5","confid","","","html-slider-response","502","276135","0.0-4.0-10.57-0.57","","","","Rate your confidence","1",""
"608.7999999523163","i","choice","left","e","experimental","509","278529","0.0-4.0-8.58","false","59","3.0499999999999994","","",""
"2286.2000000476837","6","confid","","","html-slider-response","511","281319","0.0-4.0-10.58-0.58","","","","Rate your confidence","1",""
"474","i","choice","right","i","experimental","518","283586","0.0-4.0-8.59","true","60","3.1499999999999995","","",""
"3342.2999999523163","5","confid","","","html-slider-response","520","287432","0.0-4.0-10.59-0.59","","","","Rate your confidence","1",""
"438.7999999523163","e","choice","left","e","experimental","527","289655","0.0-4.0-8.60","true","61","3.1499999999999995","","",""
"1863.4000000953674","5","confid","","","html-slider-response","529","292021","0.0-4.0-10.60-0.60","","","","Rate your confidence","1",""
"368","i","choice","right","i","experimental","536","294172","0.0-4.0-8.61","true","62","3.0499999999999994","","",""
"1635.3999998569489","5","confid","","","html-slider-response","538","296312","0.0-4.0-10.61-0.61","","","","Rate your confidence","1",""
"572.2000000476837","i","choice","left","e","experimental","545","298666","0.0-4.0-8.62","false","63","3.0499999999999994","","",""
"1961.3999998569489","5","confid","","","html-slider-response","547","301132","0.0-4.0-10.62-0.62","","","","Rate your confidence","1",""
"513","e","choice","right","i","experimental","554","303428","0.0-4.0-8.63","false","64","3.1499999999999995","","",""
"2688.7999999523163","6","confid","","","html-slider-response","556","306620","0.0-4.0-10.63-0.63","","","","Rate your confidence","1",""
"509.30000019073486","e","choice","left","e","experimental","563","308917","0.0-4.0-8.64","true","65","3.2499999999999996","","",""
"2290.4000000953674","5","confid","","","html-slider-response","565","311713","0.0-4.0-10.64-0.64","","","","Rate your confidence","1",""
"566.1999998092651","i","choice","right","i","experimental","572","314077","0.0-4.0-8.65","true","66","3.2499999999999996","","",""
"1751.2000000476837","4","confid","","","html-slider-response","574","316333","0.0-4.0-10.65-0.65","","","","Rate your confidence","1",""
"413.40000009536743","i","choice","right","i","experimental","581","318527","0.0-4.0-8.66","true","67","3.1499999999999995","","",""
"1911.2999999523163","4","confid","","","html-slider-response","583","320943","0.0-4.0-10.66-0.66","","","","Rate your confidence","1",""
"488.7000000476837","i","choice","left","e","experimental","590","323215","0.0-4.0-8.67","false","68","3.1499999999999995","","",""
"3259.2999999523163","3","confid","","","html-slider-response","592","326980","0.0-4.0-10.67-0.67","","","","Rate your confidence","1",""
"2307.7000000476837","e","choice","left","e","experimental","600","536689","0.0-4.0-8.68","true","69","3.2499999999999996","","",""
"2664.2999999523163","3","confid","","","html-slider-response","602","539858","0.0-4.0-10.68-0.68","","","","Rate your confidence","1",""
"327.09999990463257","i","choice","right","i","experimental","609","541964","0.0-4.0-8.69","true","70","3.2499999999999996","","",""
"2563.4000000953674","5","confid","","","html-slider-response","611","545031","0.0-4.0-10.69-0.69","","","","Rate your confidence","1",""
"584","i","choice","right","i","experimental","618","547401","0.0-4.0-8.70","true","71","3.1499999999999995","","",""
"2705.300000190735","6","confid","","","html-slider-response","620","550612","0.0-4.0-10.70-0.70","","","","Rate your confidence","1",""
"653.7000000476837","i","choice","left","e","experimental","627","553054","0.0-4.0-8.71","false","72","3.1499999999999995","","",""
"3068.300000190735","5","confid","","","html-slider-response","629","556628","0.0-4.0-10.71-0.71","","","","Rate your confidence","1",""
"1368.5999999046326","i","choice","right","i","experimental","636","559784","0.0-4.0-8.72","true","73","3.2499999999999996","","",""
"1612.8999998569489","5","confid","","","html-slider-response","638","561903","0.0-4.0-10.72-0.72","","","","Rate your confidence","1",""
"579","e","choice","left","e","experimental","645","564267","0.0-4.0-8.73","true","74","3.2499999999999996","","",""
"2695.7000000476837","3","confid","","","html-slider-response","647","567469","0.0-4.0-10.73-0.73","","","","Rate your confidence","1",""
"581.7999999523163","i","choice","right","i","experimental","654","569834","0.0-4.0-8.74","true","75","3.1499999999999995","","",""
"2460.5","5","confid","","","html-slider-response","656","572799","0.0-4.0-10.74-0.74","","","","Rate your confidence","1",""
"631.4000000953674","e","choice","left","e","experimental","663","575218","0.0-4.0-8.75","true","76","3.1499999999999995","","",""
"1720.0999999046326","3","confid","","","html-slider-response","665","577443","0.0-4.0-10.75-0.75","","","","Rate your confidence","1",""
"532.5","e","choice","left","e","experimental","672","579761","0.0-4.0-8.76","true","77","3.0499999999999994","","",""
"2229.7000000476837","4","confid","","","html-slider-response","674","582496","0.0-4.0-10.76-0.76","","","","Rate your confidence","1",""
"622.5999999046326","i","choice","right","i","experimental","681","584912","0.0-4.0-8.77","true","78","3.0499999999999994","","",""
"7133","5","confid","","","html-slider-response","683","592560","0.0-4.0-10.77-0.77","","","","Rate your confidence","1",""
"583.9000000953674","e","choice","left","e","experimental","690","594927","0.0-4.0-8.78","true","79","2.9499999999999993","","",""
"2897.2000000476837","4","confid","","","html-slider-response","692","598334","0.0-4.0-10.78-0.78","","","","Rate your confidence","1",""
"654.3000001907349","i","choice","right","i","experimental","699","600770","0.0-4.0-8.79","true","80","2.9499999999999993","","",""
"2720.7999999523163","4","confid","","","html-slider-response","701","603995","0.0-4.0-10.79-0.79","","","","Rate your confidence","1",""
"613.7000000476837","e","choice","right","i","experimental","708","606402","0.0-4.0-8.80","false","81","2.849999999999999","","",""
"2676.2000000476837","4","confid","","","html-slider-response","710","609582","0.0-4.0-10.80-0.80","","","","Rate your confidence","1",""
"614.0999999046326","i","choice","left","e","experimental","717","611981","0.0-4.0-8.81","false","82","2.9499999999999993","","",""
"2619.5999999046326","4","confid","","","html-slider-response","719","615106","0.0-4.0-10.81-0.81","","","","Rate your confidence","1",""
"548.7000000476837","e","choice","left","e","experimental","726","617453","0.0-4.0-8.82","true","83","3.0499999999999994","","",""
"2691.899999856949","6","confid","","","html-slider-response","728","620648","0.0-4.0-10.82-0.82","","","","Rate your confidence","1",""
"470.40000009536743","i","choice","right","i","experimental","735","622897","0.0-4.0-8.83","true","84","3.0499999999999994","","",""
"4137.099999904633","4","confid","","","html-slider-response","737","627539","0.0-4.0-10.83-0.83","","","","Rate your confidence","1",""
"623.7999999523163","e","choice","right","i","experimental","744","629945","0.0-4.0-8.84","false","85","2.9499999999999993","","",""
"3336","4","confid","","","html-slider-response","746","633786","0.0-4.0-10.84-0.84","","","","Rate your confidence","1",""
"546.2000000476837","e","choice","left","e","experimental","753","636124","0.0-4.0-8.85","true","86","3.0499999999999994","","",""
"1591.4000000953674","5","confid","","","html-slider-response","755","638220","0.0-4.0-10.85-0.85","","","","Rate your confidence","1",""
"369.5","e","choice","left","e","experimental","762","640382","0.0-4.0-8.86","true","87","3.0499999999999994","","",""
"3335.0999999046326","4","confid","","","html-slider-response","764","644222","0.0-4.0-10.86-0.86","","","","Rate your confidence","1",""
"195.80000019073486","i","choice","right","i","experimental","771","646209","0.0-4.0-8.87","true","88","2.9499999999999993","","",""
"1679","4","confid","","","html-slider-response","773","648391","0.0-4.0-10.87-0.87","","","","Rate your confidence","1",""
"260.2999999523163","i","choice","left","e","experimental","780","650435","0.0-4.0-8.88","false","89","2.9499999999999993","","",""
"2140.7999999523163","4","confid","","","html-slider-response","782","653090","0.0-4.0-10.88-0.88","","","","Rate your confidence","1",""
"567.1000001430511","i","choice","right","i","experimental","789","655440","0.0-4.0-8.89","true","90","3.0499999999999994","","",""
"2177.9000000953674","4","confid","","","html-slider-response","791","658122","0.0-4.0-10.89-0.89","","","","Rate your confidence","1",""
"77461.19999980927","e","choice","left","e","experimental","798","737389","0.0-4.0-8.90","true","91","3.0499999999999994","","",""
"3001.9000000953674","3","confid","","","html-slider-response","800","740895","0.0-4.0-10.90-0.90","","","","Rate your confidence","1",""
"519.5999999046326","i","choice","right","i","experimental","807","743209","0.0-4.0-8.91","true","92","2.9499999999999993","","",""
"2529.0999999046326","5","confid","","","html-slider-response","809","746243","0.0-4.0-10.91-0.91","","","","Rate your confidence","1",""
"640","e","choice","left","e","experimental","816","748668","0.0-4.0-8.92","true","93","2.9499999999999993","","",""
"2184.199999809265","6","confid","","","html-slider-response","818","751367","0.0-4.0-10.92-0.92","","","","Rate your confidence","1",""
"597.1000001430511","e","choice","right","i","experimental","825","753749","0.0-4.0-8.93","false","94","2.849999999999999","","",""
"3426.5999999046326","5","confid","","","html-slider-response","827","757694","0.0-4.0-10.93-0.93","","","","Rate your confidence","1",""
"447.5","e","choice","left","e","experimental","834","759924","0.0-4.0-8.94","true","95","2.9499999999999993","","",""
"2952.899999856949","4","confid","","","html-slider-response","836","763382","0.0-4.0-10.94-0.94","","","","Rate your confidence","1",""
"276.39999985694885","i","choice","right","i","experimental","843","765442","0.0-4.0-8.95","true","96","2.9499999999999993","","",""
"2128.2000000476837","5","confid","","","html-slider-response","845","768075","0.0-4.0-10.95-0.95","","","","Rate your confidence","1",""
"752.8000001907349","i","choice","right","i","experimental","852","770619","0.0-4.0-8.96","true","97","2.849999999999999","","",""
"2820.199999809265","5","confid","","","html-slider-response","854","773957","0.0-4.0-10.96-0.96","","","","Rate your confidence","1",""
"532.7000000476837","e","choice","left","e","experimental","861","776271","0.0-4.0-8.97","true","98","2.849999999999999","","",""
"4216.200000047684","5","confid","","","html-slider-response","863","780992","0.0-4.0-10.97-0.97","","","","Rate your confidence","1",""
"570.6999998092651","e","choice","left","e","experimental","870","783356","0.0-4.0-8.98","true","99","2.749999999999999","","",""
"2269.0999999046326","5","confid","","","html-slider-response","872","786131","0.0-4.0-10.98-0.98","","","","Rate your confidence","1",""
"409.5","i","choice","right","i","experimental","879","788337","0.0-4.0-8.99","true","100","2.749999999999999","","",""
"1977.7999999523163","4","confid","","","html-slider-response","881","790819","0.0-4.0-10.99-0.99","","","","Rate your confidence","1",""
"694.2999999523163","e","choice","left","e","experimental","888","793296","0.0-4.0-8.100","true","101","2.649999999999999","","",""
"1699.7999999523163","4","confid","","","html-slider-response","890","795501","0.0-4.0-10.100-0.100","","","","Rate your confidence","1",""
"570.7999999523163","i","choice","right","i","experimental","897","797872","0.0-4.0-8.101","true","102","2.649999999999999","","",""
"3464.7999999523163","5","confid","","","html-slider-response","899","801841","0.0-4.0-10.101-0.101","","","","Rate your confidence","1",""
"635.7999999523163","e","choice","left","e","experimental","906","804266","0.0-4.0-8.102","true","103","2.549999999999999","","",""
"2249.2999999523163","5","confid","","","html-slider-response","908","807021","0.0-4.0-10.102-0.102","","","","Rate your confidence","1",""
"547.7999999523163","e","choice","right","i","experimental","915","809355","0.0-4.0-8.103","false","104","2.549999999999999","","",""
"1540.5","5","confid","","","html-slider-response","917","811407","0.0-4.0-10.103-0.103","","","","Rate your confidence","1",""
"487","e","choice","right","i","experimental","924","813679","0.0-4.0-8.104","false","105","2.649999999999999","","",""
"3310.600000143051","5","confid","","","html-slider-response","926","817493","0.0-4.0-10.104-0.104","","","","Rate your confidence","1",""
"491.90000009536743","e","choice","left","e","experimental","933","819777","0.0-4.0-8.105","true","106","2.749999999999999","","",""
"2158.9000000953674","5","confid","","","html-slider-response","935","822440","0.0-4.0-10.105-0.105","","","","Rate your confidence","1",""
"605.2000000476837","e","choice","left","e","experimental","942","824827","0.0-4.0-8.106","true","107","2.749999999999999","","",""
"3355.2000000476837","5","confid","","","html-slider-response","944","828687","0.0-4.0-10.106-0.106","","","","Rate your confidence","1",""
"401","e","choice","right","i","experimental","951","830872","0.0-4.0-8.107","false","108","2.649999999999999","","",""
"3663.4000000953674","6","confid","","","html-slider-response","953","835040","0.0-4.0-10.107-0.107","","","","Rate your confidence","1",""
"513.8999998569489","e","choice","left","e","experimental","960","837338","0.0-4.0-8.108","true","109","2.749999999999999","","",""
"3683.2000000476837","5","confid","","","html-slider-response","962","841526","0.0-4.0-10.108-0.108","","","","Rate your confidence","1",""
"638.7999999523163","i","choice","right","i","experimental","969","843955","0.0-4.0-8.109","true","110","2.749999999999999","","",""
"2634.9000000953674","5","confid","","","html-slider-response","971","847095","0.0-4.0-10.109-0.109","","","","Rate your confidence","1",""
"461.5","i","choice","left","e","experimental","979","20841255","0.0-4.0-8.110","false","111","2.649999999999999","","",""
"3080.699999809265","5","confid","","","html-slider-response","981","20844868","0.0-4.0-10.110-0.110","","","","Rate your confidence","1",""
"547.4000000953674","i","choice","right","i","experimental","988","20847202","0.0-4.0-8.111","true","112","2.749999999999999","","",""
"1857.4000000953674","5","confid","","","html-slider-response","990","20849564","0.0-4.0-10.111-0.111","","","","Rate your confidence","1",""
"1090.2000000476837","e","choice","left","e","experimental","997","20852443","0.0-4.0-8.112","true","113","2.749999999999999","","",""
"2739.4000000953674","4","confid","","","html-slider-response","999","20855687","0.0-4.0-10.112-0.112","","","","Rate your confidence","1",""
"245.5","i","choice","right","i","experimental","1006","20857725","0.0-4.0-8.113","true","114","2.649999999999999","","",""
"2046.7999999523163","6","confid","","","html-slider-response","1008","20860275","0.0-4.0-10.113-0.113","","","","Rate your confidence","1",""
"377.40000009536743","e","choice","left","e","experimental","1015","20862442","0.0-4.0-8.114","true","115","2.649999999999999","","",""
"2304.5","5","confid","","","html-slider-response","1017","20865250","0.0-4.0-10.114-0.114","","","","Rate your confidence","1",""
"434.59999990463257","i","choice","right","i","experimental","1024","20867465","0.0-4.0-8.115","true","116","2.549999999999999","","",""
"2148.2000000476837","5","confid","","","html-slider-response","1026","20870118","0.0-4.0-10.115-0.115","","","","Rate your confidence","1",""
"241.29999995231628","e","choice","left","e","experimental","1033","20872142","0.0-4.0-8.116","true","117","2.549999999999999","","",""
"1793.5","5","confid","","","html-slider-response","1035","20874440","0.0-4.0-10.116-0.116","","","","Rate your confidence","1",""
"271.5","e","choice","right","i","experimental","1042","20876503","0.0-4.0-8.117","false","118","2.449999999999999","","",""
"2915.399999856949","5","confid","","","html-slider-response","1044","20879937","0.0-4.0-10.117-0.117","","","","Rate your confidence","1",""
"171.10000014305115","e","choice","left","e","experimental","1051","20881897","0.0-4.0-8.118","true","119","2.549999999999999","","",""
"1734.3999998569489","6","confid","","","html-slider-response","1053","20884135","0.0-4.0-10.118-0.118","","","","Rate your confidence","1",""
"266.80000019073486","i","choice","right","i","experimental","1060","20886185","0.0-4.0-8.119","true","120","2.549999999999999","","",""
"2203.5999999046326","4","confid","","","html-slider-response","1062","20888894","0.0-4.0-10.119-0.119","","","","Rate your confidence","1",""
"408.2999999523163","i","choice","right","i","experimental","1069","20891085","0.0-4.0-8.120","true","121","2.449999999999999","","",""
"2552.4000000953674","4","confid","","","html-slider-response","1071","20894142","0.0-4.0-10.120-0.120","","","","Rate your confidence","1",""
"399.5","e","choice","left","e","experimental","1078","20896333","0.0-4.0-8.121","true","122","2.449999999999999","","",""
"1288.5","4","confid","","","html-slider-response","1080","20898125","0.0-4.0-10.121-0.121","","","","Rate your confidence","1",""
"117.20000004768372","e","choice","left","e","experimental","1087","20900026","0.0-4.0-8.122","true","123","2.3499999999999988","","",""
"4037.0999999046326","4","confid","","","html-slider-response","1089","20904567","0.0-4.0-10.122-0.122","","","","Rate your confidence","1",""
"310.2000000476837","e","choice","right","i","experimental","1096","20906670","0.0-4.0-8.123","false","124","2.3499999999999988","","",""
"2822","3","confid","","","html-slider-response","1098","20909996","0.0-4.0-10.123-0.123","","","","Rate your confidence","1",""
"298.5","i","choice","right","i","experimental","1105","20912101","0.0-4.0-8.124","true","125","2.449999999999999","","",""
"2664.2000000476837","6","confid","","","html-slider-response","1107","20915270","0.0-4.0-10.124-0.124","","","","Rate your confidence","1",""
"611.2000000476837","i","choice","left","e","experimental","1114","20917675","0.0-4.0-8.125","false","126","2.449999999999999","","",""
"2449","6","confid","","","html-slider-response","1116","20920628","0.0-4.0-10.125-0.125","","","","Rate your confidence","1",""
"564.8999998569489","i","choice","right","i","experimental","1123","20922974","0.0-4.0-8.126","true","127","2.549999999999999","","",""
"1523.2000000476837","4","confid","","","html-slider-response","1125","20925001","0.0-4.0-10.126-0.126","","","","Rate your confidence","1",""
"525.5","e","choice","left","e","experimental","1132","20927308","0.0-4.0-8.127","true","128","2.549999999999999","","",""
"3333.7999999523163","5","confid","","","html-slider-response","1134","20931146","0.0-4.0-10.127-0.127","","","","Rate your confidence","1",""
"229.10000014305115","i","choice","right","i","experimental","1141","20933166","0.0-4.0-8.128","true","129","2.449999999999999","","",""
"1919.8999998569489","4","confid","","","html-slider-response","1143","20935590","0.0-4.0-10.128-0.128","","","","Rate your confidence","1",""
"1044.8999998569489","e","choice","left","e","experimental","1150","20938442","0.0-4.0-8.129","true","130","2.449999999999999","","",""
"2774.199999809265","4","confid","","","html-slider-response","1152","20941720","0.0-4.0-10.129-0.129","","","","Rate your confidence","1",""
"37838.5","e","choice","right","i","experimental","1159","20981341","0.0-4.0-8.130","false","131","2.3499999999999988","","",""
"3510.9000000953674","4","confid","","","html-slider-response","1161","20985358","0.0-4.0-10.130-0.130","","","","Rate your confidence","1",""
"767.5","e","choice","left","e","experimental","1168","20987905","0.0-4.0-8.131","true","132","2.449999999999999","","",""
"3924.7999999523163","5","confid","","","html-slider-response","1170","20992336","0.0-4.0-10.131-0.131","","","","Rate your confidence","1",""
"2003.3999998569489","e","choice","left","e","experimental","1177","20996121","0.0-4.0-8.132","true","133","2.449999999999999","","",""
"2451.0999999046326","4","confid","","","html-slider-response","1179","20999076","0.0-4.0-10.132-0.132","","","","Rate your confidence","1",""
"321.2000000476837","e","choice","right","i","experimental","1186","21001188","0.0-4.0-8.133","false","134","2.3499999999999988","","",""
"3866","6","confid","","","html-slider-response","1188","21005558","0.0-4.0-10.133-0.133","","","","Rate your confidence","1",""
"456.2999999523163","i","choice","right","i","experimental","1195","21007796","0.0-4.0-8.134","true","135","2.449999999999999","","",""
"2850.7000000476837","6","confid","","","html-slider-response","1197","21011151","0.0-4.0-10.134-0.134","","","","Rate your confidence","1",""
"310.60000014305115","e","choice","left","e","experimental","1204","21013269","0.0-4.0-8.135","true","136","2.449999999999999","","",""
"2747.100000143051","4","confid","","","html-slider-response","1206","21016521","0.0-4.0-10.135-0.135","","","","Rate your confidence","1",""
"602.7999999523163","i","choice","left","e","experimental","1213","21018906","0.0-4.0-8.136","false","137","2.3499999999999988","","",""
"2818.9000000953674","5","confid","","","html-slider-response","1215","21022230","0.0-4.0-10.136-0.136","","","","Rate your confidence","1",""
"749.6000001430511","i","choice","right","i","experimental","1222","21024770","0.0-4.0-8.137","true","138","2.449999999999999","","",""
"3188.5999999046326","5","confid","","","html-slider-response","1224","21028463","0.0-4.0-10.137-0.137","","","","Rate your confidence","1",""
"340.69999980926514","e","choice","left","e","experimental","1231","21030598","0.0-4.0-8.138","true","139","2.449999999999999","","",""
"3600.100000143051","5","confid","","","html-slider-response","1233","21034702","0.0-4.0-10.138-0.138","","","","Rate your confidence","1",""
"874.5999999046326","i","choice","right","i","experimental","1240","21037369","0.0-4.0-8.139","true","140","2.3499999999999988","","",""
"3002.4000000953674","2","confid","","","html-slider-response","1242","21040876","0.0-4.0-10.139-0.139","","","","Rate your confidence","1",""
"142","e","choice","left","e","experimental","1249","21042800","0.0-4.0-8.140","true","141","2.3499999999999988","","",""
"3251.100000143051","1","confid","","","html-slider-response","1251","21046557","0.0-4.0-10.140-0.140","","","","Rate your confidence","1",""
"486.30000019073486","i","choice","right","i","experimental","1258","21048822","0.0-4.0-8.141","true","142","2.2499999999999987","","",""
"2803.199999809265","3","confid","","","html-slider-response","1260","21052130","0.0-4.0-10.141-0.141","","","","Rate your confidence","1",""
"367.5","e","choice","right","i","experimental","1267","21054280","0.0-4.0-8.142","false","143","2.2499999999999987","","",""
"6804.899999856949","4","confid","","","html-slider-response","1269","21061590","0.0-4.0-10.142-0.142","","","","Rate your confidence","1",""
"732.5","i","choice","left","e","experimental","1276","21064114","0.0-4.0-8.143","false","144","2.3499999999999988","","",""
"3765","4","confid","","","html-slider-response","1278","21068383","0.0-4.0-10.143-0.143","","","","Rate your confidence","1",""
"668.7999999523163","e","choice","right","i","experimental","1285","21070832","0.0-4.0-8.144","false","145","2.449999999999999","","",""
"5670.299999952316","4","confid","","","html-slider-response","1287","21077007","0.0-4.0-10.144-0.144","","","","Rate your confidence","1",""
"215.19999980926514","i","choice","left","e","experimental","1294","21079004","0.0-4.0-8.145","false","146","2.549999999999999","","",""
"2653.0999999046326","4","confid","","","html-slider-response","1296","21082162","0.0-4.0-10.145-0.145","","","","Rate your confidence","1",""
"340.5","e","choice","right","i","experimental","1303","21084285","0.0-4.0-8.146","false","147","2.649999999999999","","",""
"2634.9000000953674","4","confid","","","html-slider-response","1305","21087425","0.0-4.0-10.146-0.146","","","","Rate your confidence","1",""
"445.59999990463257","i","choice","left","e","experimental","1312","21089653","0.0-4.0-8.147","false","148","2.749999999999999","","",""
"3568.0999999046326","4","confid","","","html-slider-response","1314","21093726","0.0-4.0-10.147-0.147","","","","Rate your confidence","1",""
"383.2000000476837","e","choice","right","i","experimental","1321","21095890","0.0-4.0-8.148","false","149","2.849999999999999","","",""
"3156.0999999046326","4","confid","","","html-slider-response","1323","21099550","0.0-4.0-10.148-0.148","","","","Rate your confidence","1",""
"421.2999999523163","i","choice","left","e","experimental","1330","21101754","0.0-4.0-8.149","false","150","2.9499999999999993","","",""
"4147.799999952316","4","confid","","","html-slider-response","1332","21106407","0.0-4.0-10.149-0.149","","","","Rate your confidence","1",""
"7275.299999952316","e","choice","right","i","experimental","1339","21115473","0.0-4.0-8.150","false","151","3.0499999999999994","","",""
"3006.7000000476837","4","confid","","","html-slider-response","1341","21118984","0.0-4.0-10.150-0.150","","","","Rate your confidence","1",""
"511.2999999523163","i","choice","left","e","experimental","1348","21121288","0.0-4.0-8.151","false","152","3.1499999999999995","","",""
"4197","4","confid","","","html-slider-response","1350","21125991","0.0-4.0-10.151-0.151","","","","Rate your confidence","1",""
"451.2000000476837","i","choice","right","i","experimental","1358","21134204","0.0-4.0-8.152","true","153","3.2499999999999996","","",""
"10592.400000095367","5","confid","","","html-slider-response","1360","21145301","0.0-4.0-10.152-0.152","","","","Rate your confidence","1",""
"269.59999990463257","i","choice","left","e","experimental","1367","21147357","0.0-4.0-8.153","false","154","3.2499999999999996","","",""
"2758","4","confid","","","html-slider-response","1369","21150619","0.0-4.0-10.153-0.153","","","","Rate your confidence","1",""
"609.9000000953674","i","choice","right","i","experimental","1376","21153021","0.0-4.0-8.154","true","155","3.3499999999999996","","",""
"4312.100000143051","5","confid","","","html-slider-response","1378","21157838","0.0-4.0-10.154-0.154","","","","Rate your confidence","1",""
"340.09999990463257","e","choice","left","e","experimental","1385","21159974","0.0-4.0-8.155","true","156","3.3499999999999996","","",""
"2093","5","confid","","","html-slider-response","1387","21162572","0.0-4.0-10.155-0.155","","","","Rate your confidence","1",""
"195.90000009536743","i","choice","right","i","experimental","1394","21164550","0.0-4.0-8.156","true","157","3.2499999999999996","","",""
"1544.8999998569489","5","confid","","","html-slider-response","1396","21166600","0.0-4.0-10.156-0.156","","","","Rate your confidence","1",""
"1103.5","e","choice","left","e","experimental","1403","21169481","0.0-4.0-8.157","true","158","3.2499999999999996","","",""
"4776.199999809265","4","confid","","","html-slider-response","1405","21174761","0.0-4.0-10.157-0.157","","","","Rate your confidence","1",""
"416.2999999523163","i","choice","right","i","experimental","1412","21176961","0.0-4.0-8.158","true","159","3.1499999999999995","","",""
"2373.5","4","confid","","","html-slider-response","1414","21179839","0.0-4.0-10.158-0.158","","","","Rate your confidence","1",""
"193.70000004768372","e","choice","left","e","experimental","1421","21181816","0.0-4.0-8.159","true","160","3.1499999999999995","","",""
"2105.699999809265","2","confid","","","html-slider-response","1423","21184426","0.0-4.0-10.159-0.159","","","","Rate your confidence","1",""
"437.7999999523163","i","choice","right","i","experimental","1430","21186652","0.0-4.0-8.160","true","161","3.0499999999999994","","",""
"1783.8999998569489","5","confid","","","html-slider-response","1432","21188941","0.0-4.0-10.160-0.160","","","","Rate your confidence","1",""
"877.6999998092651","i","choice","left","e","experimental","1439","21191607","0.0-4.0-8.161","false","162","3.0499999999999994","","",""
"2990.2000000476837","4","confid","","","html-slider-response","1441","21195101","0.0-4.0-10.161-0.161","","","","Rate your confidence","1",""
"234.89999985694885","i","choice","right","i","experimental","1448","21197119","0.0-4.0-8.162","true","163","3.1499999999999995","","",""
"3579.7000000476837","5","confid","","","html-slider-response","1450","21201204","0.0-4.0-10.162-0.162","","","","Rate your confidence","1",""
"912.9000000953674","e","choice","left","e","experimental","1457","21203901","0.0-4.0-8.163","true","164","3.1499999999999995","","",""
"2361","5","confid","","","html-slider-response","1459","21206768","0.0-4.0-10.163-0.163","","","","Rate your confidence","1",""
"301.2999999523163","i","choice","right","i","experimental","1466","21208860","0.0-4.0-8.164","true","165","3.0499999999999994","","",""
"2609.7999999523163","5","confid","","","html-slider-response","1468","21211974","0.0-4.0-10.164-0.164","","","","Rate your confidence","1",""
"391.2999999523163","i","choice","left","e","experimental","1475","21214157","0.0-4.0-8.165","false","166","3.0499999999999994","","",""
"2933.4000000953674","6","confid","","","html-slider-response","1477","21217595","0.0-4.0-10.165-0.165","","","","Rate your confidence","1",""
"582.8000001907349","i","choice","left","e","experimental","1484","21219961","0.0-4.0-8.166","false","167","3.1499999999999995","","",""
"2600.9000000953674","5","confid","","","html-slider-response","1486","21223067","0.0-4.0-10.166-0.166","","","","Rate your confidence","1",""
"245.39999985694885","i","choice","right","i","experimental","1493","21225104","0.0-4.0-8.167","true","168","3.2499999999999996","","",""
"2984.9000000953674","2","confid","","","html-slider-response","1495","21228595","0.0-4.0-10.167-0.167","","","","Rate your confidence","1",""
"648.3999998569489","i","choice","right","i","experimental","1502","21231026","0.0-4.0-8.168","true","169","3.2499999999999996","","",""
"3919.9000000953674","5","confid","","","html-slider-response","1504","21235451","0.0-4.0-10.168-0.168","","","","Rate your confidence","1",""
"661","i","choice","left","e","experimental","1511","21237903","0.0-4.0-8.169","false","170","3.1499999999999995","","",""
"2707.199999809265","5","confid","","","html-slider-response","1513","21241115","0.0-4.0-10.169-0.169","","","","Rate your confidence","1",""
"610.2000000476837","e","choice","left","e","experimental","1520","21243519","0.0-4.0-8.170","true","171","3.2499999999999996","","",""
"2706.100000143051","5","confid","","","html-slider-response","1522","21246730","0.0-4.0-10.170-0.170","","","","Rate your confidence","1",""
"693.3999998569489","i","choice","right","i","experimental","1529","21249233","0.0-4.0-8.171","true","172","3.2499999999999996","","",""
"2583.600000143051","4","confid","","","html-slider-response","1531","21252322","0.0-4.0-10.171-0.171","","","","Rate your confidence","1",""
"981","e","choice","left","e","experimental","1538","21255086","0.0-4.0-8.172","true","173","3.1499999999999995","","",""
"4098.399999856949","4","confid","","","html-slider-response","1540","21259688","0.0-4.0-10.172-0.172","","","","Rate your confidence","1",""
"450","i","choice","right","i","experimental","1547","21261930","0.0-4.0-8.173","true","174","3.1499999999999995","","",""
"3276.2999999523163","5","confid","","","html-slider-response","1549","21265712","0.0-4.0-10.173-0.173","","","","Rate your confidence","1",""
"753.5999999046326","e","choice","left","e","experimental","1556","21268259","0.0-4.0-8.174","true","175","3.0499999999999994","","",""
"2230.7999999523163","6","confid","","","html-slider-response","1558","21270995","0.0-4.0-10.174-0.174","","","","Rate your confidence","1",""
"646","i","choice","right","i","experimental","1565","21273434","0.0-4.0-8.175","true","176","3.0499999999999994","","",""
"3252.100000143051","3","confid","","","html-slider-response","1567","21277191","0.0-4.0-10.175-0.175","","","","Rate your confidence","1",""
"592.0999999046326","i","choice","left","e","experimental","1574","21279566","0.0-4.0-8.176","false","177","2.9499999999999993","","",""
"2893","4","confid","","","html-slider-response","1576","21282963","0.0-4.0-10.176-0.176","","","","Rate your confidence","1",""
"4245.400000095367","i","choice","right","i","experimental","1583","21288998","0.0-4.0-8.177","true","178","3.0499999999999994","","",""
"1922","5","confid","","","html-slider-response","1585","21291434","0.0-4.0-10.177-0.177","","","","Rate your confidence","1",""
"520.7000000476837","i","choice","right","i","experimental","1592","21293736","0.0-4.0-8.178","true","179","3.0499999999999994","","",""
"3782.9000000953674","6","confid","","","html-slider-response","1594","21298024","0.0-4.0-10.178-0.178","","","","Rate your confidence","1",""
"777.5999999046326","i","choice","left","e","experimental","1601","21300596","0.0-4.0-8.179","false","180","2.9499999999999993","","",""
"2812","4","confid","","","html-slider-response","1603","21303912","0.0-4.0-10.179-0.179","","","","Rate your confidence","1",""
"638.3999998569489","e","choice","right","i","experimental","1610","21306347","0.0-4.0-8.180","false","181","3.0499999999999994","","",""
"3062.2000000476837","5","confid","","","html-slider-response","1612","21309914","0.0-4.0-10.180-0.180","","","","Rate your confidence","1",""
"382.2000000476837","i","choice","left","e","experimental","1619","21312092","0.0-4.0-8.181","false","182","3.1499999999999995","","",""
"3498.800000190735","5","confid","","","html-slider-response","1621","21316095","0.0-4.0-10.181-0.181","","","","Rate your confidence","1",""
"635.2999999523163","e","choice","left","e","experimental","1628","21318517","0.0-4.0-8.182","true","183","3.2499999999999996","","",""
"2157.2000000476837","5","confid","","","html-slider-response","1630","21321178","0.0-4.0-10.182-0.182","","","","Rate your confidence","1",""
"172.79999995231628","i","choice","right","i","experimental","1637","21323137","0.0-4.0-8.183","true","184","3.2499999999999996","","",""
"2655.7999999523163","5","confid","","","html-slider-response","1639","21326298","0.0-4.0-10.183-0.183","","","","Rate your confidence","1",""
"481.59999990463257","i","choice","right","i","experimental","1646","21328570","0.0-4.0-8.184","true","185","3.1499999999999995","","",""
"2190.4000000953674","5","confid","","","html-slider-response","1648","21331265","0.0-4.0-10.184-0.184","","","","Rate your confidence","1",""
"378.2000000476837","i","choice","left","e","experimental","1655","21333438","0.0-4.0-8.185","false","186","3.1499999999999995","","",""
"2600.4000000953674","5","confid","","","html-slider-response","1657","21336543","0.0-4.0-10.185-0.185","","","","Rate your confidence","1",""
"537.8000001907349","e","choice","left","e","experimental","1664","21338874","0.0-4.0-8.186","true","187","3.2499999999999996","","",""
"4043.2000000476837","5","confid","","","html-slider-response","1666","21343435","0.0-4.0-10.186-0.186","","","","Rate your confidence","1",""
"384.39999985694885","i","choice","right","i","experimental","1673","21345602","0.0-4.0-8.187","true","188","3.2499999999999996","","",""
"2108.5","5","confid","","","html-slider-response","1675","21348215","0.0-4.0-10.187-0.187","","","","Rate your confidence","1",""
"312.2999999523163","e","choice","left","e","experimental","1682","21350312","0.0-4.0-8.188","true","189","3.1499999999999995","","",""
"2957.4000000953674","5","confid","","","html-slider-response","1684","21353774","0.0-4.0-10.188-0.188","","","","Rate your confidence","1",""
"129","i","choice","right","i","experimental","1691","21355697","0.0-4.0-8.189","true","190","3.1499999999999995","","",""
"2732.199999809265","3","confid","","","html-slider-response","1693","21358934","0.0-4.0-10.189-0.189","","","","Rate your confidence","1",""
"306.7999999523163","i","choice","right","i","experimental","1700","21361025","0.0-4.0-8.190","true","191","3.0499999999999994","","",""
"3317.5","4","confid","","","html-slider-response","1702","21364847","0.0-4.0-10.190-0.190","","","","Rate your confidence","1",""
"659.2000000476837","e","choice","left","e","experimental","1709","21367288","0.0-4.0-8.191","true","192","3.0499999999999994","","",""
"2286.0999999046326","4","confid","","","html-slider-response","1711","21370079","0.0-4.0-10.191-0.191","","","","Rate your confidence","1",""
"407.09999990463257","i","choice","right","i","experimental","1718","21372274","0.0-4.0-8.192","true","193","2.9499999999999993","","",""
"2188.0999999046326","5","confid","","","html-slider-response","1720","21374973","0.0-4.0-10.192-0.192","","","","Rate your confidence","1",""
"1628.7000000476837","i","choice","left","e","experimental","1727","21378384","0.0-4.0-8.193","false","194","2.9499999999999993","","",""
"2795","4","confid","","","html-slider-response","1729","21381683","0.0-4.0-10.193-0.193","","","","Rate your confidence","1","39921"
