"rt","response","task","target_side","correct_response","trial_type","trial_index","time_elapsed","internal_node_id","correct","trial_number","n_dots","stimulus","slider_start","participant"
"2121.6999999997206","i","choice","left","e","practice","10","98300","0.0-4.0-8.0","false","1","4.25","","",""
"699.2999999998137","e","choice","right","i","practice","18","101338","0.0-4.0-8.1","false","2","4.65","","",""
"495.3000000002794","i","choice","right","i","practice","26","104155","0.0-4.0-8.2","true","3","5.050000000000001","","",""
"566.2000000001863","e","choice","left","e","practice","34","107034","0.0-4.0-8.3","true","4","5.050000000000001","","",""
"2764.7999999998137","e","choice","left","e","practice","42","112131","0.0-4.0-8.4","true","5","4.65","","",""
"468.60000000009313","i","choice","right","i","practice","50","114936","0.0-4.0-8.5","true","6","4.65","","",""
"417.09999999962747","e","choice","left","e","practice","58","117681","0.0-4.0-8.6","true","7","4.45","","",""
"395.09999999962747","i","choice","right","i","practice","66","120411","0.0-4.0-8.7","true","8","4.45","","",""
"427.10000000009313","i","choice","right","i","practice","74","123160","0.0-4.0-8.8","true","9","4.25","","",""
"461.5","e","choice","left","e","practice","82","125950","0.0-4.0-8.9","true","10","4.25","","",""
"390.3000000002794","e","choice","left","e","practice","90","128667","0.0-4.0-8.10","true","11","4.05","","",""
"431.39999999990687","i","choice","right","i","practice","98","131434","0.0-4.0-8.11","true","12","4.05","","",""
"665.7000000001863","e","choice","left","e","practice","106","134442","0.0-4.0-8.12","true","13","3.9499999999999997","","",""
"828.6000000000931","i","choice","right","i","practice","114","137612","0.0-4.0-8.13","true","14","3.9499999999999997","","",""
"435.79999999981374","e","choice","left","e","practice","122","140383","0.0-4.0-8.14","true","15","3.8499999999999996","","",""
"600.5","i","choice","right","i","practice","130","143315","0.0-4.0-8.15","true","16","3.8499999999999996","","",""
"553.3999999999069","e","choice","right","i","practice","138","146214","0.0-4.0-8.16","false","17","3.7499999999999996","","",""
"367.40000000037253","e","choice","left","e","practice","146","148923","0.0-4.0-8.17","true","18","3.8499999999999996","","",""
"437.20000000018626","i","choice","right","i","practice","154","151664","0.0-4.0-8.18","true","19","3.8499999999999996","","",""
"282.39999999990687","e","choice","left","e","practice","162","154292","0.0-4.0-8.19","true","20","3.7499999999999996","","",""
"636.8000000002794","i","choice","left","e","practice","170","157276","0.0-4.0-8.20","false","21","3.7499999999999996","","",""
"24.799999999813735","i","choice","right","i","practice","178","159648","0.0-4.0-8.21","true","22","3.8499999999999996","","",""
"284.79999999981374","e","choice","left","e","practice","186","162281","0.0-4.0-8.22","true","23","3.8499999999999996","","",""
"378.79999999981374","i","choice","right","i","practice","194","165004","0.0-4.0-8.23","true","24","3.7499999999999996","","",""
"451.8000000002794","i","choice","right","i","practice","202","167796","0.0-4.0-8.24","true","25","3.7499999999999996","","",""
"425.3000000002794","e","choice","left","e","practice","210","170551","0.0-4.0-8.25","true","26","3.6499999999999995","","",""
"428.39999999990687","i","choice","right","i","experimental","221","203282","0.0-4.0-8.26","true","27","3.6499999999999995","","",""
"4627.399999999907","4","confid","","","html-slider-response","223","208422","0.0-4.0-10.26-0.26","","","","Rate your confidence","1",""
"433.60000000009313","e","choice","left","e","experimental","230","210670","0.0-4.0-8.27","true","28","3.5499999999999994","","",""
"2717","6","confid","","","html-slider-response","232","213893","0.0-4.0-10.27-0.27","","","","Rate your confidence","1",""
"683.1000000000931","e","choice","right","i","experimental","239","216404","0.0-4.0-8.28","false","29","3.5499999999999994","","",""
"2786.399999999907","3","confid","","","html-slider-response","241","219698","0.0-4.0-10.28-0.28","","","","Rate your confidence","1",""
"466.39999999990687","e","choice","left","e","experimental","248","221977","0.0-4.0-8.29","true","30","3.6499999999999995","","",""
"1985.8000000002794","6","confid","","","html-slider-response","250","224477","0.0-4.0-10.29-0.29","","","","Rate your confidence","1",""
"413.1999999997206","e","choice","left","e","experimental","257","226718","0.0-4.0-8.30","true","31","3.6499999999999995","","",""
"2114.399999999907","6","confid","","","html-slider-response","259","229348","0.0-4.0-10.30-0.30","","","","Rate your confidence","1",""
"498.39999999990687","i","choice","right","i","experimental","266","231687","0.0-4.0-8.31","true","32","3.5499999999999994","","",""
"2754.7000000001863","5","confid","","","html-slider-response","268","234958","0.0-4.0-10.31-0.31","","","","Rate your confidence","1",""
"425.60000000009313","e","choice","left","e","experimental","275","237217","0.0-4.0-8.32","true","33","3.5499999999999994","","",""
"2689.2999999998137","5","confid","","","html-slider-response","277","240413","0.0-4.0-10.32-0.32","","","","Rate your confidence","1",""
"444.60000000009313","i","choice","right","i","experimental","284","242677","0.0-4.0-8.33","true","34","3.4499999999999993","","",""
"2951.5","4","confid","","","html-slider-response","286","246132","0.0-4.0-10.33-0.33","","","","Rate your confidence","1",""
"2283","i","choice","right","i","experimental","293","250255","0.0-4.0-8.34","true","35","3.4499999999999993","","",""
"5233.899999999907","1","confid","","","html-slider-response","295","256000","0.0-4.0-10.34-0.34","","","","Rate your confidence","1",""
"505.89999999990687","e","choice","left","e","experimental","302","258362","0.0-4.0-8.35","true","36","3.349999999999999","","",""
"2697.2999999998137","2","confid","","","html-slider-response","304","261567","0.0-4.0-10.35-0.35","","","","Rate your confidence","1",""
"432.60000000009313","e","choice","left","e","experimental","311","263840","0.0-4.0-8.36","true","37","3.349999999999999","","",""
"2019.8999999999069","5","confid","","","html-slider-response","313","266373","0.0-4.0-10.36-0.36","","","","Rate your confidence","1",""
"1569.7000000001863","e","choice","right","i","experimental","320","269762","0.0-4.0-8.37","false","38","3.249999999999999","","",""
"3202.899999999907","1","confid","","","html-slider-response","322","273477","0.0-4.0-10.37-0.37","","","","Rate your confidence","1",""
"813.3999999999069","i","choice","left","e","experimental","329","276120","0.0-4.0-8.38","false","39","3.349999999999999","","",""
"2950.2000000001863","1","confid","","","html-slider-response","331","279575","0.0-4.0-10.38-0.38","","","","Rate your confidence","1",""
"826.7999999998137","i","choice","right","i","experimental","338","282241","0.0-4.0-8.39","true","40","3.4499999999999993","","",""
"2678.399999999907","1","confid","","","html-slider-response","340","285425","0.0-4.0-10.39-0.39","","","","Rate your confidence","1",""
"791.5","i","choice","right","i","experimental","347","288042","0.0-4.0-8.40","true","41","3.4499999999999993","","",""
"3396.1999999997206","4","confid","","","html-slider-response","349","291947","0.0-4.0-10.40-0.40","","","","Rate your confidence","1",""
"576.5","e","choice","left","e","experimental","356","294374","0.0-4.0-8.41","true","42","3.349999999999999","","",""
"3037.100000000093","2","confid","","","html-slider-response","358","297919","0.0-4.0-10.41-0.41","","","","Rate your confidence","1",""
"457.89999999990687","i","choice","right","i","experimental","365","300199","0.0-4.0-8.42","true","43","3.349999999999999","","",""
"2872.899999999907","4","confid","","","html-slider-response","367","303587","0.0-4.0-10.42-0.42","","","","Rate your confidence","1",""
"420.1999999997206","e","choice","left","e","experimental","374","305832","0.0-4.0-8.43","true","44","3.249999999999999","","",""
"2378.6999999997206","4","confid","","","html-slider-response","376","308714","0.0-4.0-10.43-0.43","","","","Rate your confidence","1",""
"949.2000000001863","i","choice","right","i","experimental","383","311497","0.0-4.0-8.44","true","45","3.249999999999999","","",""
"1841.4000000003725","1","confid","","","html-slider-response","385","313850","0.0-4.0-10.44-0.44","","","","Rate your confidence","1",""
"426.60000000009313","e","choice","left","e","experimental","392","316106","0.0-4.0-8.45","true","46","3.149999999999999","","",""
"2191.7999999998137","3","confid","","","html-slider-response","394","318803","0.0-4.0-10.45-0.45","","","","Rate your confidence","1",""
"506","e","choice","left","e","experimental","401","321117","0.0-4.0-8.46","true","47","3.149999999999999","","",""
"2513.1999999997206","2","confid","","","html-slider-response","403","324142","0.0-4.0-10.46-0.46","","","","Rate your confidence","1",""
"1282.2999999998137","e","choice","right","i","experimental","410","327255","0.0-4.0-8.47","false","48","3.049999999999999","","",""
"2240","1","confid","","","html-slider-response","412","329999","0.0-4.0-10.47-0.47","","","","Rate your confidence","1",""
"1606.7999999998137","i","choice","right","i","experimental","419","333451","0.0-4.0-8.48","true","49","3.149999999999999","","",""
"2063.899999999907","2","confid","","","html-slider-response","421","336024","0.0-4.0-10.48-0.48","","","","Rate your confidence","1",""
"493.39999999990687","e","choice","left","e","experimental","428","338328","0.0-4.0-8.49","true","50","3.149999999999999","","",""
"3255.2999999998137","3","confid","","","html-slider-response","430","342093","0.0-4.0-10.49-0.49","","","","Rate your confidence","1",""
"1004.8999999999069","e","choice","left","e","experimental","437","344919","0.0-4.0-8.50","true","51","3.049999999999999","","",""
"2753.4000000003725","4","confid","","","html-slider-response","439","348185","0.0-4.0-10.50-0.50","","","","Rate your confidence","1",""
"516.2999999998137","i","choice","right","i","experimental","446","350540","0.0-4.0-8.51","true","52","3.049999999999999","","",""
"1913.9000000003725","4","confid","","","html-slider-response","448","352963","0.0-4.0-10.51-0.51","","","","Rate your confidence","1",""
"530.5","e","choice","left","e","experimental","455","355332","0.0-4.0-8.52","true","53","2.949999999999999","","",""
"2335.7000000001863","3","confid","","","html-slider-response","457","358184","0.0-4.0-10.52-0.52","","","","Rate your confidence","1",""
"738.3999999999069","i","choice","right","i","experimental","464","360729","0.0-4.0-8.53","true","54","2.949999999999999","","",""
"4286.700000000186","2","confid","","","html-slider-response","466","365545","0.0-4.0-10.53-0.53","","","","Rate your confidence","1",""
"441.20000000018626","e","choice","left","e","experimental","473","367802","0.0-4.0-8.54","true","55","2.8499999999999988","","",""
"2732.5","1","confid","","","html-slider-response","475","371044","0.0-4.0-10.54-0.54","","","","Rate your confidence","1",""
"534","i","choice","right","i","experimental","482","373403","0.0-4.0-8.55","true","56","2.8499999999999988","","",""
"2541.899999999907","4","confid","","","html-slider-response","484","376457","0.0-4.0-10.55-0.55","","","","Rate your confidence","1",""
"449.1999999997206","e","choice","left","e","experimental","491","378728","0.0-4.0-8.56","true","57","2.7499999999999987","","",""
"1915.8999999999069","3","confid","","","html-slider-response","493","381155","0.0-4.0-10.56-0.56","","","","Rate your confidence","1",""
"453.79999999981374","e","choice","right","i","experimental","500","383442","0.0-4.0-8.57","false","58","2.7499999999999987","","",""
"2096.7999999998137","3","confid","","","html-slider-response","502","386050","0.0-4.0-10.57-0.57","","","","Rate your confidence","1",""
"1214.7000000001863","i","choice","left","e","experimental","509","389098","0.0-4.0-8.58","false","59","2.8499999999999988","","",""
"2470.7000000001863","1","confid","","","html-slider-response","511","392081","0.0-4.0-10.58-0.58","","","","Rate your confidence","1",""
"1027.4000000003725","i","choice","right","i","experimental","518","394928","0.0-4.0-8.59","true","60","2.949999999999999","","",""
"3936.2000000001863","2","confid","","","html-slider-response","520","399368","0.0-4.0-10.59-0.59","","","","Rate your confidence","1",""
"430","e","choice","left","e","experimental","527","401639","0.0-4.0-8.60","true","61","2.949999999999999","","",""
"2704.399999999907","5","confid","","","html-slider-response","529","404861","0.0-4.0-10.60-0.60","","","","Rate your confidence","1",""
"447.79999999981374","i","choice","right","i","experimental","536","407134","0.0-4.0-8.61","true","62","2.8499999999999988","","",""
"1822.1000000000931","4","confid","","","html-slider-response","538","409470","0.0-4.0-10.61-0.61","","","","Rate your confidence","1",""
"1371.6000000000931","i","choice","right","i","experimental","545","412676","0.0-4.0-8.62","true","63","2.8499999999999988","","",""
"3394.399999999907","2","confid","","","html-slider-response","547","416575","0.0-4.0-10.62-0.62","","","","Rate your confidence","1",""
"3928.1999999997206","i","choice","left","e","experimental","554","422319","0.0-4.0-8.63","false","64","2.7499999999999987","","",""
"2788.8000000002794","3","confid","","","html-slider-response","556","425626","0.0-4.0-10.63-0.63","","","","Rate your confidence","1",""
"608.3999999999069","e","choice","right","i","experimental","563","428068","0.0-4.0-8.64","false","65","2.8499999999999988","","",""
"3642.5","4","confid","","","html-slider-response","565","432220","0.0-4.0-10.64-0.64","","","","Rate your confidence","1",""
"667.1000000000931","i","choice","left","e","experimental","572","434705","0.0-4.0-8.65","false","66","2.949999999999999","","",""
"2228.4000000003725","4","confid","","","html-slider-response","574","437442","0.0-4.0-10.65-0.65","","","","Rate your confidence","1",""
"1073.2999999998137","e","choice","right","i","experimental","581","440331","0.0-4.0-8.66","false","67","3.049999999999999","","",""
"1794.5","2","confid","","","html-slider-response","583","442635","0.0-4.0-10.66-0.66","","","","Rate your confidence","1",""
"580.1999999997206","e","choice","left","e","experimental","590","445053","0.0-4.0-8.67","true","68","3.149999999999999","","",""
"1911.5999999996275","5","confid","","","html-slider-response","592","447471","0.0-4.0-10.67-0.67","","","","Rate your confidence","1",""
"626.8999999999069","e","choice","left","e","experimental","600","497650","0.0-4.0-8.68","true","69","3.149999999999999","","",""
"2873.5","5","confid","","","html-slider-response","602","501032","0.0-4.0-10.68-0.68","","","","Rate your confidence","1",""
"490.5","i","choice","right","i","experimental","609","503303","0.0-4.0-8.69","true","70","3.049999999999999","","",""
"2023.6000000000931","5","confid","","","html-slider-response","611","505830","0.0-4.0-10.69-0.69","","","","Rate your confidence","1",""
"614.8000000002794","e","choice","left","e","experimental","618","508222","0.0-4.0-8.70","true","71","3.049999999999999","","",""
"2011.2000000001863","4","confid","","","html-slider-response","620","510738","0.0-4.0-10.70-0.70","","","","Rate your confidence","1",""
"574.7000000001863","i","choice","right","i","experimental","627","513105","0.0-4.0-8.71","true","72","2.949999999999999","","",""
"2558.2999999998137","3","confid","","","html-slider-response","629","516172","0.0-4.0-10.71-0.71","","","","Rate your confidence","1",""
"513.1000000000931","i","choice","right","i","experimental","636","518473","0.0-4.0-8.72","true","73","2.949999999999999","","",""
"2153.5","3","confid","","","html-slider-response","638","521131","0.0-4.0-10.72-0.72","","","","Rate your confidence","1",""
"577.5","e","choice","left","e","experimental","645","523486","0.0-4.0-8.73","true","74","2.8499999999999988","","",""
"2126.5","3","confid","","","html-slider-response","647","526127","0.0-4.0-10.73-0.73","","","","Rate your confidence","1",""
"970.2999999998137","i","choice","left","e","experimental","654","528880","0.0-4.0-8.74","false","75","2.8499999999999988","","",""
"1874.7000000001863","2","confid","","","html-slider-response","656","531261","0.0-4.0-10.74-0.74","","","","Rate your confidence","1",""
"790.4000000003725","e","choice","right","i","experimental","663","533846","0.0-4.0-8.75","false","76","2.949999999999999","","",""
"2156","2","confid","","","html-slider-response","665","536506","0.0-4.0-10.75-0.75","","","","Rate your confidence","1",""
"384","e","choice","left","e","experimental","672","538670","0.0-4.0-8.76","true","77","3.049999999999999","","",""
"2532.2000000001863","4","confid","","","html-slider-response","674","541707","0.0-4.0-10.76-0.76","","","","Rate your confidence","1",""
"786.2000000001863","i","choice","right","i","experimental","681","544277","0.0-4.0-8.77","true","78","3.049999999999999","","",""
"2362.2999999998137","5","confid","","","html-slider-response","683","547170","0.0-4.0-10.77-0.77","","","","Rate your confidence","1",""
"570","e","choice","left","e","experimental","690","549525","0.0-4.0-8.78","true","79","2.949999999999999","","",""
"1501.2000000001863","3","confid","","","html-slider-response","692","551530","0.0-4.0-10.78-0.78","","","","Rate your confidence","1",""
"487.60000000009313","i","choice","right","i","experimental","699","553803","0.0-4.0-8.79","true","80","2.949999999999999","","",""
"2314.600000000093","3","confid","","","html-slider-response","701","556621","0.0-4.0-10.79-0.79","","","","Rate your confidence","1",""
"394.6999999997206","e","choice","left","e","experimental","708","558817","0.0-4.0-8.80","true","81","2.8499999999999988","","",""
"2822","4","confid","","","html-slider-response","710","562144","0.0-4.0-10.80-0.80","","","","Rate your confidence","1",""
"1632.2999999998137","e","choice","right","i","experimental","717","565558","0.0-4.0-8.81","false","82","2.8499999999999988","","",""
"1969.8999999999069","1","confid","","","html-slider-response","719","568043","0.0-4.0-10.81-0.81","","","","Rate your confidence","1",""
"640.6000000000931","e","choice","left","e","experimental","726","570466","0.0-4.0-8.82","true","83","2.949999999999999","","",""
"2274.5","1","confid","","","html-slider-response","728","573244","0.0-4.0-10.82-0.82","","","","Rate your confidence","1",""
"395.89999999990687","i","choice","right","i","experimental","735","575435","0.0-4.0-8.83","true","84","2.949999999999999","","",""
"2308.6999999997206","5","confid","","","html-slider-response","737","578248","0.0-4.0-10.83-0.83","","","","Rate your confidence","1",""
"372.6999999997206","e","choice","left","e","experimental","744","580419","0.0-4.0-8.84","true","85","2.8499999999999988","","",""
"1933.1000000000931","5","confid","","","html-slider-response","746","582856","0.0-4.0-10.84-0.84","","","","Rate your confidence","1",""
"339.70000000018626","i","choice","right","i","experimental","753","584985","0.0-4.0-8.85","true","86","2.8499999999999988","","",""
"4412.5","5","confid","","","html-slider-response","755","589903","0.0-4.0-10.85-0.85","","","","Rate your confidence","1",""
"440.8000000002794","i","choice","right","i","experimental","762","592126","0.0-4.0-8.86","true","87","2.7499999999999987","","",""
"3729.600000000093","5","confid","","","html-slider-response","764","596360","0.0-4.0-10.86-0.86","","","","Rate your confidence","1",""
"1323","e","choice","left","e","experimental","771","599466","0.0-4.0-8.87","true","88","2.7499999999999987","","",""
"3677.5","2","confid","","","html-slider-response","773","603647","0.0-4.0-10.87-0.87","","","","Rate your confidence","1",""
"1017.8999999999069","i","choice","right","i","experimental","780","606460","0.0-4.0-8.88","true","89","2.6499999999999986","","",""
"2041.7000000001863","1","confid","","","html-slider-response","782","609006","0.0-4.0-10.88-0.88","","","","Rate your confidence","1",""
"1333.8999999999069","i","choice","left","e","experimental","789","612129","0.0-4.0-8.89","false","90","2.6499999999999986","","",""
"2221.7999999998137","3","confid","","","html-slider-response","791","614856","0.0-4.0-10.89-0.89","","","","Rate your confidence","1",""
"745.2000000001863","i","choice","right","i","experimental","798","617391","0.0-4.0-8.90","true","91","2.7499999999999987","","",""
"2349.2000000001863","2","confid","","","html-slider-response","800","620246","0.0-4.0-10.90-0.90","","","","Rate your confidence","1",""
"1059.3999999999069","i","choice","left","e","experimental","807","623095","0.0-4.0-8.91","false","92","2.7499999999999987","","",""
"2290.2999999998137","2","confid","","","html-slider-response","809","625890","0.0-4.0-10.91-0.91","","","","Rate your confidence","1",""
"1069.3000000002794","e","choice","right","i","experimental","816","628738","0.0-4.0-8.92","false","93","2.8499999999999988","","",""
"2111.3000000002794","1","confid","","","html-slider-response","818","631353","0.0-4.0-10.92-0.92","","","","Rate your confidence","1",""
"606.8000000002794","e","choice","left","e","experimental","825","633754","0.0-4.0-8.93","true","94","2.949999999999999","","",""
"1763.5","3","confid","","","html-slider-response","827","636022","0.0-4.0-10.93-0.93","","","","Rate your confidence","1",""
"1981.2999999998137","e","choice","left","e","experimental","834","639797","0.0-4.0-8.94","true","95","2.949999999999999","","",""
"3476.100000000093","1","confid","","","html-slider-response","836","643777","0.0-4.0-10.94-0.94","","","","Rate your confidence","1",""
"468.29999999981374","i","choice","right","i","experimental","843","646032","0.0-4.0-8.95","true","96","2.8499999999999988","","",""
"1943.7000000001863","2","confid","","","html-slider-response","845","648480","0.0-4.0-10.95-0.95","","","","Rate your confidence","1",""
"412.89999999990687","e","choice","left","e","experimental","852","650672","0.0-4.0-8.96","true","97","2.8499999999999988","","",""
"2023.2000000001863","1","confid","","","html-slider-response","854","653200","0.0-4.0-10.96-0.96","","","","Rate your confidence","1",""
"700.8999999999069","i","choice","right","i","experimental","861","655686","0.0-4.0-8.97","true","98","2.7499999999999987","","",""
"2049.9000000003725","2","confid","","","html-slider-response","863","658241","0.0-4.0-10.97-0.97","","","","Rate your confidence","1",""
"1325.8000000002794","i","choice","left","e","experimental","870","661367","0.0-4.0-8.98","false","99","2.7499999999999987","","",""
"1940.2000000001863","1","confid","","","html-slider-response","872","663811","0.0-4.0-10.98-0.98","","","","Rate your confidence","1",""
"798.2999999998137","e","choice","right","i","experimental","879","666617","0.0-4.0-8.99","false","100","2.8499999999999988","","",""
"2180.899999999907","1","confid","","","html-slider-response","881","669302","0.0-4.0-10.99-0.99","","","","Rate your confidence","1",""
"2460.399999999907","i","choice","left","e","experimental","888","673546","0.0-4.0-8.100","false","101","2.949999999999999","","",""
"1986","1","confid","","","html-slider-response","890","676034","0.0-4.0-10.100-0.100","","","","Rate your confidence","1",""
"3711.600000000093","i","choice","right","i","experimental","897","681530","0.0-4.0-8.101","true","102","3.049999999999999","","",""
"2677.899999999907","1","confid","","","html-slider-response","899","684712","0.0-4.0-10.101-0.101","","","","Rate your confidence","1",""
"532.8999999999069","i","choice","right","i","experimental","906","687042","0.0-4.0-8.102","true","103","3.049999999999999","","",""
"2803.2000000001863","2","confid","","","html-slider-response","908","690350","0.0-4.0-10.102-0.102","","","","Rate your confidence","1",""
"3541.7000000001863","i","choice","left","e","experimental","915","695686","0.0-4.0-8.103","false","104","2.949999999999999","","",""
"1919.6000000000931","1","confid","","","html-slider-response","917","698110","0.0-4.0-10.103-0.103","","","","Rate your confidence","1",""
"502.79999999981374","i","choice","right","i","experimental","924","700404","0.0-4.0-8.104","true","105","3.049999999999999","","",""
"3687.2000000001863","3","confid","","","html-slider-response","926","704595","0.0-4.0-10.104-0.104","","","","Rate your confidence","1",""
"2409.7000000001863","i","choice","left","e","experimental","933","708790","0.0-4.0-8.105","false","106","3.049999999999999","","",""
"2686.3000000002794","2","confid","","","html-slider-response","935","711990","0.0-4.0-10.105-0.105","","","","Rate your confidence","1",""
"2251.899999999907","i","choice","left","e","experimental","942","716023","0.0-4.0-8.106","false","107","3.149999999999999","","",""
"1887","1","confid","","","html-slider-response","944","718415","0.0-4.0-10.106-0.106","","","","Rate your confidence","1",""
"622.8999999999069","e","choice","right","i","experimental","951","720823","0.0-4.0-8.107","false","108","3.249999999999999","","",""
"2213.6999999997206","2","confid","","","html-slider-response","953","723543","0.0-4.0-10.107-0.107","","","","Rate your confidence","1",""
"2368.5999999996275","i","choice","left","e","experimental","960","727694","0.0-4.0-8.108","false","109","3.349999999999999","","",""
"1994.3000000002794","1","confid","","","html-slider-response","962","730194","0.0-4.0-10.108-0.108","","","","Rate your confidence","1",""
"1970.7000000001863","e","choice","right","i","experimental","969","733958","0.0-4.0-8.109","false","110","3.4499999999999993","","",""
"2069.5","1","confid","","","html-slider-response","971","736532","0.0-4.0-10.109-0.109","","","","Rate your confidence","1",""
"2999.7000000001863","i","choice","left","e","experimental","979","745604","0.0-4.0-8.110","false","111","3.5499999999999994","","",""
"2295.899999999907","2","confid","","","html-slider-response","981","748404","0.0-4.0-10.110-0.110","","","","Rate your confidence","1",""
"427.29999999981374","i","choice","right","i","experimental","988","750614","0.0-4.0-8.111","true","112","3.6499999999999995","","",""
"2092.600000000093","4","confid","","","html-slider-response","990","753211","0.0-4.0-10.111-0.111","","","","Rate your confidence","1",""
"542.1999999997206","e","choice","left","e","experimental","997","755536","0.0-4.0-8.112","true","113","3.6499999999999995","","",""
"3714.6999999997206","5","confid","","","html-slider-response","999","759755","0.0-4.0-10.112-0.112","","","","Rate your confidence","1",""
"436.29999999981374","i","choice","right","i","experimental","1006","761986","0.0-4.0-8.113","true","114","3.5499999999999994","","",""
"1931.8999999999069","6","confid","","","html-slider-response","1008","764423","0.0-4.0-10.113-0.113","","","","Rate your confidence","1",""
"518","i","choice","right","i","experimental","1015","766738","0.0-4.0-8.114","true","115","3.5499999999999994","","",""
"2732.7000000001863","4","confid","","","html-slider-response","1017","769975","0.0-4.0-10.114-0.114","","","","Rate your confidence","1",""
"278.6999999997206","e","choice","left","e","experimental","1024","772037","0.0-4.0-8.115","true","116","3.4499999999999993","","",""
"2325.5","6","confid","","","html-slider-response","1026","774868","0.0-4.0-10.115-0.115","","","","Rate your confidence","1",""
"326","i","choice","right","i","experimental","1033","776977","0.0-4.0-8.116","true","117","3.4499999999999993","","",""
"2244.7000000001863","5","confid","","","html-slider-response","1035","779726","0.0-4.0-10.116-0.116","","","","Rate your confidence","1",""
"425.89999999990687","e","choice","left","e","experimental","1042","781949","0.0-4.0-8.117","true","118","3.349999999999999","","",""
"5816.5999999996275","5","confid","","","html-slider-response","1044","788269","0.0-4.0-10.117-0.117","","","","Rate your confidence","1",""
"358.60000000009313","i","choice","right","i","experimental","1051","790428","0.0-4.0-8.118","true","119","3.349999999999999","","",""
"2777.399999999907","6","confid","","","html-slider-response","1053","793710","0.0-4.0-10.118-0.118","","","","Rate your confidence","1",""
"853.3000000002794","e","choice","left","e","experimental","1060","796346","0.0-4.0-8.119","true","120","3.249999999999999","","",""
"1942.1000000000931","3","confid","","","html-slider-response","1062","798793","0.0-4.0-10.119-0.119","","","","Rate your confidence","1",""
"629.7000000001863","e","choice","left","e","experimental","1069","801207","0.0-4.0-8.120","true","121","3.249999999999999","","",""
"2479.7999999998137","5","confid","","","html-slider-response","1071","804191","0.0-4.0-10.120-0.120","","","","Rate your confidence","1",""
"550.6999999997206","i","choice","right","i","experimental","1078","806540","0.0-4.0-8.121","true","122","3.149999999999999","","",""
"3485.2000000001863","5","confid","","","html-slider-response","1080","810530","0.0-4.0-10.121-0.121","","","","Rate your confidence","1",""
"3030","e","choice","left","e","experimental","1087","815351","0.0-4.0-8.122","true","123","3.149999999999999","","",""
"2221.7999999998137","2","confid","","","html-slider-response","1089","818078","0.0-4.0-10.122-0.122","","","","Rate your confidence","1",""
"561.3999999999069","i","choice","right","i","experimental","1096","820422","0.0-4.0-8.123","true","124","3.049999999999999","","",""
"4604.700000000186","3","confid","","","html-slider-response","1098","825541","0.0-4.0-10.123-0.123","","","","Rate your confidence","1",""
"333.20000000018626","i","choice","right","i","experimental","1105","827656","0.0-4.0-8.124","true","125","3.049999999999999","","",""
"5296.200000000186","6","confid","","","html-slider-response","1107","833457","0.0-4.0-10.124-0.124","","","","Rate your confidence","1",""
"607.5999999996275","e","choice","left","e","experimental","1114","835862","0.0-4.0-8.125","true","126","2.949999999999999","","",""
"2159.1999999997206","3","confid","","","html-slider-response","1116","838526","0.0-4.0-10.125-0.125","","","","Rate your confidence","1",""
"1023.7999999998137","i","choice","left","e","experimental","1123","841348","0.0-4.0-8.126","false","127","2.949999999999999","","",""
"2091.399999999907","5","confid","","","html-slider-response","1125","843944","0.0-4.0-10.126-0.126","","","","Rate your confidence","1",""
"1571.1000000000931","i","choice","right","i","experimental","1132","847296","0.0-4.0-8.127","true","128","3.049999999999999","","",""
"2894.2000000001863","1","confid","","","html-slider-response","1134","850706","0.0-4.0-10.127-0.127","","","","Rate your confidence","1",""
"420.39999999990687","e","choice","left","e","experimental","1141","852911","0.0-4.0-8.128","true","129","3.049999999999999","","",""
"3257","5","confid","","","html-slider-response","1143","856673","0.0-4.0-10.128-0.128","","","","Rate your confidence","1",""
"329.5","i","choice","right","i","experimental","1150","858799","0.0-4.0-8.129","true","130","2.949999999999999","","",""
"2314","5","confid","","","html-slider-response","1152","861618","0.0-4.0-10.129-0.129","","","","Rate your confidence","1",""
"539.8999999999069","i","choice","right","i","experimental","1159","863957","0.0-4.0-8.130","true","131","2.949999999999999","","",""
"2102.9000000003725","5","confid","","","html-slider-response","1161","866564","0.0-4.0-10.130-0.130","","","","Rate your confidence","1",""
"609.1000000000931","e","choice","left","e","experimental","1168","868968","0.0-4.0-8.131","true","132","2.8499999999999988","","",""
"2045.2999999998137","4","confid","","","html-slider-response","1170","871517","0.0-4.0-10.131-0.131","","","","Rate your confidence","1",""
"391.8000000002794","e","choice","left","e","experimental","1177","873691","0.0-4.0-8.132","true","133","2.8499999999999988","","",""
"2332.7000000001863","5","confid","","","html-slider-response","1179","876527","0.0-4.0-10.132-0.132","","","","Rate your confidence","1",""
"443.70000000018626","e","choice","right","i","experimental","1186","878754","0.0-4.0-8.133","false","134","2.7499999999999987","","",""
"2554.5","6","confid","","","html-slider-response","1188","881817","0.0-4.0-10.133-0.133","","","","Rate your confidence","1",""
"2448.5","i","choice","right","i","experimental","1195","886049","0.0-4.0-8.134","true","135","2.8499999999999988","","",""
"2556","2","confid","","","html-slider-response","1197","889110","0.0-4.0-10.134-0.134","","","","Rate your confidence","1",""
"675.2999999998137","e","choice","left","e","experimental","1204","891578","0.0-4.0-8.135","true","136","2.8499999999999988","","",""
"2075.7999999998137","4","confid","","","html-slider-response","1206","894158","0.0-4.0-10.135-0.135","","","","Rate your confidence","1",""
"361.1999999997206","i","choice","left","e","experimental","1213","896316","0.0-4.0-8.136","false","137","2.7499999999999987","","",""
"3179","4","confid","","","html-slider-response","1215","900000","0.0-4.0-10.136-0.136","","","","Rate your confidence","1",""
"440.10000000009313","i","choice","right","i","experimental","1222","902234","0.0-4.0-8.137","true","138","2.8499999999999988","","",""
"2232.7000000001863","4","confid","","","html-slider-response","1224","904983","0.0-4.0-10.137-0.137","","","","Rate your confidence","1",""
"631.2000000001863","e","choice","right","i","experimental","1231","907397","0.0-4.0-8.138","false","139","2.8499999999999988","","",""
"3173","3","confid","","","html-slider-response","1233","911074","0.0-4.0-10.138-0.138","","","","Rate your confidence","1",""
"456.89999999990687","i","choice","left","e","experimental","1240","913322","0.0-4.0-8.139","false","140","2.949999999999999","","",""
"2515.600000000093","1","confid","","","html-slider-response","1242","916341","0.0-4.0-10.139-0.139","","","","Rate your confidence","1",""
"489.39999999990687","e","choice","left","e","experimental","1249","918614","0.0-4.0-8.140","true","141","3.049999999999999","","",""
"2102.399999999907","3","confid","","","html-slider-response","1251","921221","0.0-4.0-10.140-0.140","","","","Rate your confidence","1",""
"316.39999999990687","i","choice","right","i","experimental","1258","923337","0.0-4.0-8.141","true","142","3.049999999999999","","",""
"2033.6999999997206","6","confid","","","html-slider-response","1260","925876","0.0-4.0-10.141-0.141","","","","Rate your confidence","1",""
"499.10000000009313","e","choice","left","e","experimental","1267","928174","0.0-4.0-8.142","true","143","2.949999999999999","","",""
"1864.2999999998137","4","confid","","","html-slider-response","1269","930543","0.0-4.0-10.142-0.142","","","","Rate your confidence","1",""
"525.5","i","choice","right","i","experimental","1276","932866","0.0-4.0-8.143","true","144","2.949999999999999","","",""
"2001.7000000001863","2","confid","","","html-slider-response","1278","935373","0.0-4.0-10.143-0.143","","","","Rate your confidence","1",""
"2606.100000000093","e","choice","right","i","experimental","1285","939762","0.0-4.0-8.144","false","145","2.8499999999999988","","",""
"2368.7999999998137","2","confid","","","html-slider-response","1287","942636","0.0-4.0-10.144-0.144","","","","Rate your confidence","1",""
"2365.600000000093","e","choice","left","e","experimental","1294","946799","0.0-4.0-8.145","true","146","2.949999999999999","","",""
"1947.8999999999069","2","confid","","","html-slider-response","1296","949251","0.0-4.0-10.145-0.145","","","","Rate your confidence","1",""
"994.3999999999069","i","choice","right","i","experimental","1303","952030","0.0-4.0-8.146","true","147","2.949999999999999","","",""
"2560.600000000093","1","confid","","","html-slider-response","1305","955096","0.0-4.0-10.146-0.146","","","","Rate your confidence","1",""
"812.6999999997206","i","choice","left","e","experimental","1312","957707","0.0-4.0-8.147","false","148","2.8499999999999988","","",""
"2295.7000000001863","1","confid","","","html-slider-response","1314","960507","0.0-4.0-10.147-0.147","","","","Rate your confidence","1",""
"446.10000000009313","e","choice","right","i","experimental","1321","962737","0.0-4.0-8.148","false","149","2.949999999999999","","",""
"2429","4","confid","","","html-slider-response","1323","965671","0.0-4.0-10.148-0.148","","","","Rate your confidence","1",""
"435.79999999981374","e","choice","left","e","experimental","1330","967890","0.0-4.0-8.149","true","150","3.049999999999999","","",""
"2206.2000000001863","5","confid","","","html-slider-response","1332","970610","0.0-4.0-10.149-0.149","","","","Rate your confidence","1",""
"1657.9000000003725","e","choice","left","e","experimental","1339","974052","0.0-4.0-8.150","true","151","3.049999999999999","","",""
"1640.3999999999069","3","confid","","","html-slider-response","1341","976197","0.0-4.0-10.150-0.150","","","","Rate your confidence","1",""
"1582","i","choice","right","i","experimental","1348","979568","0.0-4.0-8.151","true","152","2.949999999999999","","",""
"1871.6000000000931","2","confid","","","html-slider-response","1350","981944","0.0-4.0-10.151-0.151","","","","Rate your confidence","1",""
"1476.3000000002794","i","choice","left","e","experimental","1358","987872","0.0-4.0-8.152","false","153","2.949999999999999","","",""
"1961.6999999997206","3","confid","","","html-slider-response","1360","990338","0.0-4.0-10.152-0.152","","","","Rate your confidence","1",""
"1935.7999999998137","e","choice","right","i","experimental","1367","994071","0.0-4.0-8.153","false","154","3.049999999999999","","",""
"2085.5","4","confid","","","html-slider-response","1369","996661","0.0-4.0-10.153-0.153","","","","Rate your confidence","1",""
"3049","e","choice","left","e","experimental","1376","1001494","0.0-4.0-8.154","true","155","3.149999999999999","","",""
"2247.100000000093","2","confid","","","html-slider-response","1378","1004246","0.0-4.0-10.154-0.154","","","","Rate your confidence","1",""
"2884.899999999907","i","choice","right","i","experimental","1385","1008912","0.0-4.0-8.155","true","156","3.149999999999999","","",""
"3078.2000000001863","2","confid","","","html-slider-response","1387","1012496","0.0-4.0-10.155-0.155","","","","Rate your confidence","1",""
"2986.2999999998137","e","choice","right","i","experimental","1394","1017267","0.0-4.0-8.156","false","157","3.049999999999999","","",""
"1878.2000000001863","2","confid","","","html-slider-response","1396","1019650","0.0-4.0-10.156-0.156","","","","Rate your confidence","1",""
"497","e","choice","left","e","experimental","1403","1021948","0.0-4.0-8.157","true","158","3.149999999999999","","",""
"2295.399999999907","5","confid","","","html-slider-response","1405","1024748","0.0-4.0-10.157-0.157","","","","Rate your confidence","1",""
"1250.2000000001863","e","choice","right","i","experimental","1412","1027798","0.0-4.0-8.158","false","159","3.149999999999999","","",""
"2069.399999999907","4","confid","","","html-slider-response","1414","1030371","0.0-4.0-10.158-0.158","","","","Rate your confidence","1",""
"386.79999999981374","e","choice","left","e","experimental","1421","1032554","0.0-4.0-8.159","true","160","3.249999999999999","","",""
"1806.2000000001863","6","confid","","","html-slider-response","1423","1034865","0.0-4.0-10.159-0.159","","","","Rate your confidence","1",""
"457.39999999990687","i","choice","right","i","experimental","1430","1037107","0.0-4.0-8.160","true","161","3.249999999999999","","",""
"2353.3000000002794","5","confid","","","html-slider-response","1432","1039967","0.0-4.0-10.160-0.160","","","","Rate your confidence","1",""
"247.79999999981374","e","choice","left","e","experimental","1439","1041999","0.0-4.0-8.161","true","162","3.149999999999999","","",""
"3033.600000000093","5","confid","","","html-slider-response","1441","1045538","0.0-4.0-10.161-0.161","","","","Rate your confidence","1",""
"505","e","choice","right","i","experimental","1448","1047840","0.0-4.0-8.162","false","163","3.149999999999999","","",""
"3254.100000000093","4","confid","","","html-slider-response","1450","1051599","0.0-4.0-10.162-0.162","","","","Rate your confidence","1",""
"420","e","choice","left","e","experimental","1457","1053814","0.0-4.0-8.163","true","164","3.249999999999999","","",""
"1767","4","confid","","","html-slider-response","1459","1056086","0.0-4.0-10.163-0.163","","","","Rate your confidence","1",""
"574","i","choice","right","i","experimental","1466","1058445","0.0-4.0-8.164","true","165","3.249999999999999","","",""
"3722.3000000002794","2","confid","","","html-slider-response","1468","1062672","0.0-4.0-10.164-0.164","","","","Rate your confidence","1",""
"562.5999999996275","e","choice","left","e","experimental","1475","1065017","0.0-4.0-8.165","true","166","3.149999999999999","","",""
"1775.2000000001863","4","confid","","","html-slider-response","1477","1067296","0.0-4.0-10.165-0.165","","","","Rate your confidence","1",""
"971.4000000003725","e","choice","left","e","experimental","1484","1070051","0.0-4.0-8.166","true","167","3.149999999999999","","",""
"1947","4","confid","","","html-slider-response","1486","1072503","0.0-4.0-10.166-0.166","","","","Rate your confidence","1",""
"1172.8000000002794","i","choice","right","i","experimental","1493","1075457","0.0-4.0-8.167","true","168","3.049999999999999","","",""
"2063.5999999996275","2","confid","","","html-slider-response","1495","1078026","0.0-4.0-10.167-0.167","","","","Rate your confidence","1",""
"335.19999999925494","e","choice","left","e","experimental","1502","1080152","0.0-4.0-8.168","true","169","3.049999999999999","","",""
"3088.199999999255","3","confid","","","html-slider-response","1504","1083746","0.0-4.0-10.168-0.168","","","","Rate your confidence","1",""
"539.7000000001863","i","choice","right","i","experimental","1511","1086067","0.0-4.0-8.169","true","170","2.949999999999999","","",""
"2381.7999999998137","3","confid","","","html-slider-response","1513","1088954","0.0-4.0-10.169-0.169","","","","Rate your confidence","1",""
"689.0999999996275","i","choice","right","i","experimental","1520","1091426","0.0-4.0-8.170","true","171","2.949999999999999","","",""
"1748.7999999998137","2","confid","","","html-slider-response","1522","1093679","0.0-4.0-10.170-0.170","","","","Rate your confidence","1",""
"608.2999999998137","e","choice","left","e","experimental","1529","1096071","0.0-4.0-8.171","true","172","2.8499999999999988","","",""
"1591.5999999996275","4","confid","","","html-slider-response","1531","1098166","0.0-4.0-10.171-0.171","","","","Rate your confidence","1",""
"359.70000000018626","i","choice","right","i","experimental","1538","1100323","0.0-4.0-8.172","true","173","2.8499999999999988","","",""
"2533","6","confid","","","html-slider-response","1540","1103360","0.0-4.0-10.172-0.172","","","","Rate your confidence","1",""
"3675.7000000001863","e","choice","left","e","experimental","1547","1108821","0.0-4.0-8.173","true","174","2.7499999999999987","","",""
"2661.5","3","confid","","","html-slider-response","1549","1111987","0.0-4.0-10.173-0.173","","","","Rate your confidence","1",""
"545.7000000001863","e","choice","left","e","experimental","1556","1114316","0.0-4.0-8.174","true","175","2.7499999999999987","","",""
"2456.100000000559","4","confid","","","html-slider-response","1558","1117276","0.0-4.0-10.174-0.174","","","","Rate your confidence","1",""
"396.1000000005588","i","choice","right","i","experimental","1565","1119463","0.0-4.0-8.175","true","176","2.6499999999999986","","",""
"2071.7999999998137","5","confid","","","html-slider-response","1567","1122040","0.0-4.0-10.175-0.175","","","","Rate your confidence","1",""
"1155.7999999998137","e","choice","right","i","experimental","1574","1124977","0.0-4.0-8.176","false","177","2.6499999999999986","","",""
"2837.4000000003725","3","confid","","","html-slider-response","1576","1128320","0.0-4.0-10.176-0.176","","","","Rate your confidence","1",""
"973.7000000001863","i","choice","left","e","experimental","1583","1131076","0.0-4.0-8.177","false","178","2.7499999999999987","","",""
"2281.7000000001863","5","confid","","","html-slider-response","1585","1133863","0.0-4.0-10.177-0.177","","","","Rate your confidence","1",""
"1170.6000000005588","i","choice","left","e","experimental","1592","1136831","0.0-4.0-8.178","false","179","2.8499999999999988","","",""
"2005.2000000001863","5","confid","","","html-slider-response","1594","1139341","0.0-4.0-10.178-0.178","","","","Rate your confidence","1",""
"426.79999999981374","i","choice","right","i","experimental","1601","1141552","0.0-4.0-8.179","true","180","2.949999999999999","","",""
"1612.2000000001863","4","confid","","","html-slider-response","1603","1143668","0.0-4.0-10.179-0.179","","","","Rate your confidence","1",""
"564.6000000005588","e","choice","left","e","experimental","1610","1146017","0.0-4.0-8.180","true","181","2.949999999999999","","",""
"2398.0999999996275","5","confid","","","html-slider-response","1612","1148920","0.0-4.0-10.180-0.180","","","","Rate your confidence","1",""
"350.5","e","choice","right","i","experimental","1619","1151076","0.0-4.0-8.181","false","182","2.8499999999999988","","",""
"2604.5","5","confid","","","html-slider-response","1621","1154186","0.0-4.0-10.181-0.181","","","","Rate your confidence","1",""
"558","i","choice","right","i","experimental","1628","1156543","0.0-4.0-8.182","true","183","2.949999999999999","","",""
"1908.7999999998137","4","confid","","","html-slider-response","1630","1158957","0.0-4.0-10.182-0.182","","","","Rate your confidence","1",""
"305.70000000018626","e","choice","left","e","experimental","1637","1161047","0.0-4.0-8.183","true","184","2.949999999999999","","",""
"4204.299999999814","6","confid","","","html-slider-response","1639","1165756","0.0-4.0-10.183-0.183","","","","Rate your confidence","1",""
"279.59999999962747","i","choice","left","e","experimental","1646","1167831","0.0-4.0-8.184","false","185","2.8499999999999988","","",""
"1733.2000000001863","4","confid","","","html-slider-response","1648","1170068","0.0-4.0-10.184-0.184","","","","Rate your confidence","1",""
"311.20000000018626","e","choice","right","i","experimental","1655","1172163","0.0-4.0-8.185","false","186","2.949999999999999","","",""
"2454.9000000003725","5","confid","","","html-slider-response","1657","1175123","0.0-4.0-10.185-0.185","","","","Rate your confidence","1",""
"1385.2999999998137","i","choice","right","i","experimental","1664","1178293","0.0-4.0-8.186","true","187","3.049999999999999","","",""
"2583.5","4","confid","","","html-slider-response","1666","1181382","0.0-4.0-10.186-0.186","","","","Rate your confidence","1",""
"892.5","i","choice","left","e","experimental","1673","1184073","0.0-4.0-8.187","false","188","3.049999999999999","","",""
"3479.0999999996275","5","confid","","","html-slider-response","1675","1188057","0.0-4.0-10.187-0.187","","","","Rate your confidence","1",""
"423","i","choice","right","i","experimental","1682","1190278","0.0-4.0-8.188","true","189","3.149999999999999","","",""
"2964.2999999998137","5","confid","","","html-slider-response","1684","1193747","0.0-4.0-10.188-0.188","","","","Rate your confidence","1",""
"251.5","e","choice","left","e","experimental","1691","1195796","0.0-4.0-8.189","true","190","3.149999999999999","","",""
"2085.699999999255","6","confid","","","html-slider-response","1693","1198387","0.0-4.0-10.189-0.189","","","","Rate your confidence","1",""
"2566.2000000001863","e","choice","right","i","experimental","1700","1202737","0.0-4.0-8.190","false","191","3.049999999999999","","",""
"2243.600000000559","2","confid","","","html-slider-response","1702","1205485","0.0-4.0-10.190-0.190","","","","Rate your confidence","1",""
"1192.3999999994412","e","choice","left","e","experimental","1709","1208463","0.0-4.0-8.191","true","192","3.149999999999999","","",""
"2148.600000000559","2","confid","","","html-slider-response","1711","1211130","0.0-4.0-10.191-0.191","","","","Rate your confidence","1",""
"1677.5","i","choice","left","e","experimental","1718","1214592","0.0-4.0-8.192","false","193","3.149999999999999","","",""
"3190.5999999996275","4","confid","","","html-slider-response","1720","1218287","0.0-4.0-10.192-0.192","","","","Rate your confidence","1",""
"834.5999999996275","i","choice","right","i","experimental","1727","1220930","0.0-4.0-8.193","true","194","3.249999999999999","","",""
"1680.199999999255","4","confid","","","html-slider-response","1729","1223114","0.0-4.0-10.193-0.193","","","","Rate your confidence","1","75187"
